"rt","stimulus","key_press","trial_type","trial_index","time_elapsed","internal_node_id","session","startTime","attn_word","button_pressed","view_history","animation_sequence","condition","time_sequence","stim_type","direction","correct","init_locations","moves","final_locations","sort_correct","finalLocations","responses"
"1476","welcome","32","html-keyboard-response","0","1484","0.0-0.0","1","2020-1-6 11:40:40","MONKEY",NA,NA,NA,NA,NA,NA,NA,NA,NA,NA,NA,NA,NA,NA
"2770","consent",NA,"html-button-response","1","4260","0.0-1.0","1","2020-1-6 11:40:40","MONKEY","0",NA,NA,NA,NA,NA,NA,NA,NA,NA,NA,NA,NA,NA
"11794","instructions",NA,"instructions","2","16056","0.0-2.0","1","2020-1-6 11:40:40","MONKEY",NA,"[{""page_index"":0,""viewing_time"":3802},{""page_index"":1,""viewing_time"":1319},{""page_index"":2,""viewing_time"":2737},{""page_index"":3,""viewing_time"":687},{""page_index"":4,""viewing_time"":841},{""page_index"":5,""viewing_time"":711},{""page_index"":6,""viewing_time"":1696}]",NA,NA,NA,NA,NA,NA,NA,NA,NA,NA,NA,NA
"19936","setup5",NA,"animation","3","35994","0.0-3.0-0.0","1","2020-1-6 11:40:40","MONKEY",NA,NA,"[{""cat"":18,""src"":2,""loc"":0},{""cat"":13,""src"":17,""loc"":4},{""cat"":28,""src"":13,""loc"":6},{""cat"":18,""src"":13,""loc"":8},{""cat"":28,""src"":14,""loc"":5},{""cat"":13,""src"":8,""loc"":1},{""cat"":13,""src"":3,""loc"":7},{""cat"":28,""src"":17,""loc"":2},{""cat"":18,""src"":0,""loc"":3}]","5","1110,1102,1104,1102,1103,1104,1101,1103,1105,10002",NA,NA,NA,NA,NA,NA,NA,NA,NA
"4634","flanker_instructions","32","html-keyboard-response","4","40630","0.0-3.0-1.0","1","2020-1-6 11:40:40","MONKEY",NA,NA,NA,NA,NA,NA,NA,NA,NA,NA,NA,NA,NA,NA
NA,"flanker_test",NA,"image-keyboard-response","5","42539","0.0-3.0-2.0-0.0","1","2020-1-6 11:40:40","MONKEY",NA,NA,NA,NA,NA,"congruent","left","FALSE",NA,NA,NA,NA,NA,NA
NA,"flanker_test",NA,"image-keyboard-response","6","44128","0.0-3.0-2.0-0.1","1","2020-1-6 11:40:40","MONKEY",NA,NA,NA,NA,NA,"congruent","right","FALSE",NA,NA,NA,NA,NA,NA
NA,"flanker_test",NA,"image-keyboard-response","7","45376","0.0-3.0-2.0-0.2","1","2020-1-6 11:40:40","MONKEY",NA,NA,NA,NA,NA,"incongruent","right","FALSE",NA,NA,NA,NA,NA,NA
NA,"flanker_test",NA,"image-keyboard-response","8","47467","0.0-3.0-2.0-0.3","1","2020-1-6 11:40:40","MONKEY",NA,NA,NA,NA,NA,"incongruent","left","FALSE",NA,NA,NA,NA,NA,NA
"28223","sort_trial",NA,"free-sort","9","76087","0.0-3.0-3.0","1","2020-1-6 11:40:40","MONKEY",NA,NA,NA,NA,NA,NA,NA,NA,"[{""cat"":18,""src"":2,""x"":65,""y"":23},{""cat"":13,""src"":17,""x"":79,""y"":484},{""cat"":28,""src"":13,""x"":21,""y"":69},{""cat"":18,""src"":13,""x"":62,""y"":328},{""cat"":28,""src"":14,""x"":74,""y"":200},{""cat"":13,""src"":8,""x"":71,""y"":372},{""cat"":13,""src"":3,""x"":16,""y"":138},{""cat"":28,""src"":17,""x"":33,""y"":263},{""cat"":18,""src"":0,""x"":16,""y"":431}]","[{""cat"":""13"",""src"":""3"",""x"":248,""y"":398},{""cat"":""13"",""src"":""3"",""x"":0,""y"":0},{""cat"":""28"",""src"":""14"",""x"":0,""y"":0},{""cat"":""18"",""src"":""13"",""x"":0,""y"":0},{""cat"":""28"",""src"":""13"",""x"":0,""y"":0},{""cat"":""18"",""src"":""2"",""x"":0,""y"":0},{""cat"":""28"",""src"":""17"",""x"":0,""y"":0},{""cat"":""13"",""src"":""8"",""x"":0,""y"":0},{""cat"":""13"",""src"":""17"",""x"":0,""y"":0},{""cat"":""18"",""src"":""0"",""x"":0,""y"":0}]","[{""cat"":13,""src"":3,""loc"":7},{""cat"":28,""src"":14,""loc"":5},{""cat"":18,""src"":13,""loc"":8},{""cat"":28,""src"":13,""loc"":6},{""cat"":18,""src"":2,""loc"":0},{""cat"":28,""src"":17,""loc"":2},{""cat"":13,""src"":8,""loc"":1},{""cat"":13,""src"":17,""loc"":4},{""cat"":18,""src"":0,""loc"":3}]","9","18,13,28,18,13,28,28,13,18,2,8,17,0,17,14,13,3,13,0,1,2,3,4,5,6,7,8,4,6,5,8,7,1,3,0,2",NA
"1604","sort_feedback","32","html-keyboard-response","10","77694","0.0-3.0-4.0","1","2020-1-6 11:40:40","MONKEY",NA,NA,NA,NA,NA,NA,NA,NA,NA,NA,NA,NA,NA,NA
"19931","setup5",NA,"animation","11","97627","0.0-3.0-5.0","1","2020-1-6 11:40:40","MONKEY",NA,NA,"[{""cat"":30,""src"":13,""loc"":1},{""cat"":26,""src"":15,""loc"":8},{""cat"":31,""src"":9,""loc"":3},{""cat"":31,""src"":13,""loc"":2},{""cat"":30,""src"":3,""loc"":7},{""cat"":26,""src"":14,""loc"":5},{""cat"":30,""src"":12,""loc"":4},{""cat"":26,""src"":5,""loc"":0},{""cat"":31,""src"":8,""loc"":6}]","5","1104,1103,1103,1103,1102,1108,1102,1102,1102,10002",NA,NA,NA,NA,NA,NA,NA,NA,NA
"4856","flanker_instructions","78","html-keyboard-response","12","102488","0.0-3.0-6.0","1","2020-1-6 11:40:40","MONKEY",NA,NA,NA,NA,NA,NA,NA,NA,NA,NA,NA,NA,NA,NA
NA,"flanker_test",NA,"image-keyboard-response","13","104395","0.0-3.0-7.0-0.0","1","2020-1-6 11:40:40","MONKEY",NA,NA,NA,NA,NA,"congruent","right","FALSE",NA,NA,NA,NA,NA,NA
NA,"flanker_test",NA,"image-keyboard-response","14","105789","0.0-3.0-7.0-0.1","1","2020-1-6 11:40:40","MONKEY",NA,NA,NA,NA,NA,"incongruent","left","FALSE",NA,NA,NA,NA,NA,NA
NA,"flanker_test",NA,"image-keyboard-response","15","107853","0.0-3.0-7.0-0.2","1","2020-1-6 11:40:40","MONKEY",NA,NA,NA,NA,NA,"congruent","left","FALSE",NA,NA,NA,NA,NA,NA
NA,"flanker_test",NA,"image-keyboard-response","16","109088","0.0-3.0-7.0-0.3","1","2020-1-6 11:40:40","MONKEY",NA,NA,NA,NA,NA,"incongruent","right","FALSE",NA,NA,NA,NA,NA,NA
"42198","sort_trial",NA,"free-sort","17","151958","0.0-3.0-8.0","1","2020-1-6 11:40:40","MONKEY",NA,NA,NA,NA,NA,NA,NA,NA,"[{""cat"":30,""src"":13,""x"":50,""y"":80},{""cat"":26,""src"":15,""x"":60,""y"":200},{""cat"":31,""src"":9,""x"":5,""y"":420},{""cat"":31,""src"":13,""x"":1,""y"":303},{""cat"":30,""src"":3,""x"":54,""y"":120},{""cat"":26,""src"":14,""x"":36,""y"":255},{""cat"":30,""src"":12,""x"":19,""y"":378},{""cat"":26,""src"":5,""x"":8,""y"":11},{""cat"":31,""src"":8,""x"":59,""y"":479}]","[{""cat"":""26"",""src"":""5"",""x"":0,""y"":0},{""cat"":""30"",""src"":""13"",""x"":0,""y"":0},{""cat"":""31"",""src"":""13"",""x"":448,""y"":261},{""cat"":""31"",""src"":""13"",""x"":0,""y"":0},{""cat"":""30"",""src"":""3"",""x"":0,""y"":0},{""cat"":""26"",""src"":""15"",""x"":0,""y"":0},{""cat"":""26"",""src"":""14"",""x"":0,""y"":0},{""cat"":""30"",""src"":""12"",""x"":0,""y"":0},{""cat"":""31"",""src"":""9"",""x"":0,""y"":0},{""cat"":""31"",""src"":""8"",""x"":0,""y"":0}]","[{""cat"":26,""src"":5,""loc"":0},{""cat"":30,""src"":13,""loc"":1},{""cat"":31,""src"":13,""loc"":6},{""cat"":30,""src"":3,""loc"":7},{""cat"":26,""src"":15,""loc"":8},{""cat"":26,""src"":14,""loc"":5},{""cat"":30,""src"":12,""loc"":4},{""cat"":31,""src"":9,""loc"":3},{""cat"":31,""src"":8,""loc"":2}]","7","26,30,31,31,30,26,31,30,26,5,13,8,9,12,14,13,3,15,0,1,2,3,4,5,6,7,8,0,1,8,7,6,5,2,3,4",NA
"5037","sort_feedback","68","html-keyboard-response","18","156998","0.0-3.0-9.0","1","2020-1-6 11:40:40","MONKEY",NA,NA,NA,NA,NA,NA,NA,NA,NA,NA,NA,NA,NA,NA
"1734","finalInstructions",NA,"html-button-response","19","158735","0.0-4.0-0.0","1","2020-1-6 11:40:40","MONKEY","0",NA,NA,NA,NA,NA,NA,NA,NA,NA,NA,NA,NA,NA
"20560","setup1",NA,"animation","20","179296","0.0-4.0-1.0","1","2020-1-6 11:40:40","MONKEY",NA,NA,"[{""cat"":12,""src"":9,""loc"":8},{""cat"":12,""src"":14,""loc"":6},{""cat"":12,""src"":7,""loc"":7},{""cat"":31,""src"":6,""loc"":3},{""cat"":31,""src"":8,""loc"":4},{""cat"":31,""src"":19,""loc"":5},{""cat"":1,""src"":12,""loc"":1},{""cat"":1,""src"":1,""loc"":2},{""cat"":1,""src"":18,""loc"":0}]","1","1103,1102,1103,1103,1106,1109,1101,1103,1102,10628",NA,NA,NA,NA,NA,NA,NA,NA,NA
"1978","flanker_instructions","32","html-keyboard-response","21","181277","0.0-4.0-2.0","1","2020-1-6 11:40:40","MONKEY",NA,NA,NA,NA,NA,NA,NA,NA,NA,NA,NA,NA,NA,NA
NA,"flanker_test",NA,"image-keyboard-response","22","183180","0.0-4.0-3.0-0.0","1","2020-1-6 11:40:40","MONKEY",NA,NA,NA,NA,NA,"congruent","left","FALSE",NA,NA,NA,NA,NA,NA
NA,"flanker_test",NA,"image-keyboard-response","23","185263","0.0-4.0-3.0-0.1","1","2020-1-6 11:40:40","MONKEY",NA,NA,NA,NA,NA,"incongruent","right","FALSE",NA,NA,NA,NA,NA,NA
NA,"flanker_test",NA,"image-keyboard-response","24","187349","0.0-4.0-3.0-0.2","1","2020-1-6 11:40:40","MONKEY",NA,NA,NA,NA,NA,"incongruent","left","FALSE",NA,NA,NA,NA,NA,NA
NA,"flanker_test",NA,"image-keyboard-response","25","188569","0.0-4.0-3.0-0.3","1","2020-1-6 11:40:40","MONKEY",NA,NA,NA,NA,NA,"congruent","right","FALSE",NA,NA,NA,NA,NA,NA
"19629","sort_trial",NA,"free-sort","26","208599","0.0-4.0-4.0","1","2020-1-6 11:40:40","MONKEY",NA,NA,NA,NA,NA,NA,NA,NA,"[{""cat"":12,""src"":9,""x"":41,""y"":496},{""cat"":12,""src"":14,""x"":73,""y"":64},{""cat"":12,""src"":7,""x"":35,""y"":4},{""cat"":31,""src"":6,""x"":66,""y"":122},{""cat"":31,""src"":8,""x"":30,""y"":444},{""cat"":31,""src"":19,""x"":41,""y"":301},{""cat"":1,""src"":12,""x"":20,""y"":181},{""cat"":1,""src"":1,""x"":33,""y"":362},{""cat"":1,""src"":18,""x"":69,""y"":254}]","[{""cat"":""1"",""src"":""18"",""x"":0,""y"":0},{""cat"":""1"",""src"":""1"",""x"":0,""y"":0},{""cat"":""1"",""src"":""12"",""x"":0,""y"":0},{""cat"":""12"",""src"":""9"",""x"":0,""y"":0},{""cat"":""12"",""src"":""7"",""x"":289,""y"":422},{""cat"":""12"",""src"":""7"",""x"":0,""y"":0},{""cat"":""12"",""src"":""14"",""x"":0,""y"":0},{""cat"":""31"",""src"":""19"",""x"":0,""y"":0},{""cat"":""31"",""src"":""8"",""x"":0,""y"":0},{""cat"":""31"",""src"":""6"",""x"":0,""y"":0}]","[{""cat"":1,""src"":18,""loc"":0},{""cat"":1,""src"":1,""loc"":2},{""cat"":1,""src"":12,""loc"":1},{""cat"":12,""src"":9,""loc"":8},{""cat"":12,""src"":7,""loc"":7},{""cat"":12,""src"":14,""loc"":6},{""cat"":31,""src"":19,""loc"":5},{""cat"":31,""src"":8,""loc"":4},{""cat"":31,""src"":6,""loc"":3}]","9","1,1,1,31,31,31,12,12,12,18,12,1,6,8,19,14,7,9,0,1,2,3,4,5,6,7,8,0,2,1,8,7,6,5,4,3",NA
"1211","sort_feedback","32","html-keyboard-response","27","209811","0.0-4.0-5.0","1","2020-1-6 11:40:40","MONKEY",NA,NA,NA,NA,NA,NA,NA,NA,NA,NA,NA,NA,NA,NA
"19938","setup2",NA,"animation","28","229751","0.0-4.0-6.0","1","2020-1-6 11:40:40","MONKEY",NA,NA,"[{""cat"":8,""src"":3,""loc"":4},{""cat"":32,""src"":19,""loc"":3},{""cat"":1,""src"":17,""loc"":5},{""cat"":8,""src"":1,""loc"":8},{""cat"":1,""src"":14,""loc"":7},{""cat"":32,""src"":4,""loc"":6},{""cat"":8,""src"":19,""loc"":0},{""cat"":1,""src"":8,""loc"":1},{""cat"":32,""src"":17,""loc"":2}]","2","1103,1101,1103,1101,1110,1110,1102,1101,1106,10001",NA,NA,NA,NA,NA,NA,NA,NA,NA
"913","flanker_instructions","32","html-keyboard-response","29","230665","0.0-4.0-7.0","1","2020-1-6 11:40:40","MONKEY",NA,NA,NA,NA,NA,NA,NA,NA,NA,NA,NA,NA,NA,NA
NA,"flanker_test",NA,"image-keyboard-response","30","232569","0.0-4.0-8.0-0.0","1","2020-1-6 11:40:40","MONKEY",NA,NA,NA,NA,NA,"incongruent","right","FALSE",NA,NA,NA,NA,NA,NA
NA,"flanker_test",NA,"image-keyboard-response","31","233831","0.0-4.0-8.0-0.1","1","2020-1-6 11:40:40","MONKEY",NA,NA,NA,NA,NA,"congruent","right","FALSE",NA,NA,NA,NA,NA,NA
NA,"flanker_test",NA,"image-keyboard-response","32","235709","0.0-4.0-8.0-0.2","1","2020-1-6 11:40:40","MONKEY",NA,NA,NA,NA,NA,"incongruent","left","FALSE",NA,NA,NA,NA,NA,NA
NA,"flanker_test",NA,"image-keyboard-response","33","237311","0.0-4.0-8.0-0.3","1","2020-1-6 11:40:40","MONKEY",NA,NA,NA,NA,NA,"congruent","left","FALSE",NA,NA,NA,NA,NA,NA
"24890","sort_trial",NA,"free-sort","34","262726","0.0-4.0-9.0","1","2020-1-6 11:40:40","MONKEY",NA,NA,NA,NA,NA,NA,NA,NA,"[{""cat"":8,""src"":3,""x"":52,""y"":18},{""cat"":32,""src"":19,""x"":18,""y"":421},{""cat"":1,""src"":17,""x"":68,""y"":245},{""cat"":8,""src"":1,""x"":25,""y"":372},{""cat"":1,""src"":14,""x"":29,""y"":205},{""cat"":32,""src"":4,""x"":18,""y"":483},{""cat"":8,""src"":19,""x"":7,""y"":305},{""cat"":1,""src"":8,""x"":44,""y"":62},{""cat"":32,""src"":17,""x"":8,""y"":149}]","[{""cat"":""8"",""src"":""19"",""x"":0,""y"":0},{""cat"":""1"",""src"":""14"",""x"":0,""y"":0},{""cat"":""32"",""src"":""17"",""x"":0,""y"":0},{""cat"":""1"",""src"":""17"",""x"":0,""y"":0},{""cat"":""8"",""src"":""3"",""x"":0,""y"":0},{""cat"":""32"",""src"":""19"",""x"":0,""y"":0},{""cat"":""32"",""src"":""4"",""x"":0,""y"":0},{""cat"":""8"",""src"":""1"",""x"":0,""y"":0},{""cat"":""1"",""src"":""8"",""x"":0,""y"":0}]","[{""cat"":8,""src"":19,""loc"":0},{""cat"":1,""src"":14,""loc"":1},{""cat"":32,""src"":17,""loc"":2},{""cat"":1,""src"":17,""loc"":5},{""cat"":8,""src"":3,""loc"":4},{""cat"":32,""src"":19,""loc"":3},{""cat"":32,""src"":4,""loc"":6},{""cat"":8,""src"":1,""loc"":7},{""cat"":1,""src"":8,""loc"":8}]","6","8,1,32,32,8,1,32,8,1,19,14,17,19,3,17,4,1,8,0,1,2,3,4,5,6,7,8,0,1,2,5,4,3,6,7,8",NA
"2204","sort_feedback","32","html-keyboard-response","35","264931","0.0-4.0-10.0","1","2020-1-6 11:40:40","MONKEY",NA,NA,NA,NA,NA,NA,NA,NA,NA,NA,NA,NA,NA,NA
"19929","setup5",NA,"animation","36","284861","0.0-4.0-11.0","1","2020-1-6 11:40:40","MONKEY",NA,NA,"[{""cat"":27,""src"":4,""loc"":8},{""cat"":11,""src"":10,""loc"":1},{""cat"":23,""src"":7,""loc"":5},{""cat"":23,""src"":10,""loc"":7},{""cat"":27,""src"":18,""loc"":2},{""cat"":11,""src"":5,""loc"":3},{""cat"":27,""src"":19,""loc"":4},{""cat"":11,""src"":3,""loc"":6},{""cat"":23,""src"":15,""loc"":0}]","5","1113,1102,1102,1102,1102,1102,1102,1102,1101,10001",NA,NA,NA,NA,NA,NA,NA,NA,NA
"870","flanker_instructions","32","html-keyboard-response","37","285734","0.0-4.0-12.0","1","2020-1-6 11:40:40","MONKEY",NA,NA,NA,NA,NA,NA,NA,NA,NA,NA,NA,NA,NA,NA
NA,"flanker_test",NA,"image-keyboard-response","38","287637","0.0-4.0-13.0-0.0","1","2020-1-6 11:40:40","MONKEY",NA,NA,NA,NA,NA,"incongruent","left","FALSE",NA,NA,NA,NA,NA,NA
NA,"flanker_test",NA,"image-keyboard-response","39","289569","0.0-4.0-13.0-0.1","1","2020-1-6 11:40:40","MONKEY",NA,NA,NA,NA,NA,"congruent","left","FALSE",NA,NA,NA,NA,NA,NA
NA,"flanker_test",NA,"image-keyboard-response","40","291525","0.0-4.0-13.0-0.2","1","2020-1-6 11:40:40","MONKEY",NA,NA,NA,NA,NA,"congruent","right","FALSE",NA,NA,NA,NA,NA,NA
NA,"flanker_test",NA,"image-keyboard-response","41","293581","0.0-4.0-13.0-0.3","1","2020-1-6 11:40:40","MONKEY",NA,NA,NA,NA,NA,"incongruent","right","FALSE",NA,NA,NA,NA,NA,NA
"25417","sort_trial",NA,"free-sort","42","319606","0.0-4.0-14.0","1","2020-1-6 11:40:40","MONKEY",NA,NA,NA,NA,NA,NA,NA,NA,"[{""cat"":27,""src"":4,""x"":43,""y"":200},{""cat"":11,""src"":10,""x"":17,""y"":261},{""cat"":23,""src"":7,""x"":26,""y"":12},{""cat"":23,""src"":10,""x"":74,""y"":122},{""cat"":27,""src"":18,""x"":7,""y"":448},{""cat"":11,""src"":5,""x"":79,""y"":85},{""cat"":27,""src"":19,""x"":20,""y"":366},{""cat"":11,""src"":3,""x"":62,""y"":308},{""cat"":23,""src"":15,""x"":37,""y"":494}]","[{""cat"":""23"",""src"":""15"",""x"":0,""y"":0},{""cat"":""27"",""src"":""18"",""x"":0,""y"":0},{""cat"":""27"",""src"":""4"",""x"":0,""y"":0},{""cat"":""11"",""src"":""3"",""x"":0,""y"":0},{""cat"":""11"",""src"":""10"",""x"":0,""y"":0},{""cat"":""23"",""src"":""7"",""x"":676,""y"":172},{""cat"":""23"",""src"":""7"",""x"":0,""y"":0},{""cat"":""11"",""src"":""5"",""x"":0,""y"":0},{""cat"":""27"",""src"":""19"",""x"":810,""y"":238},{""cat"":""27"",""src"":""19"",""x"":0,""y"":0},{""cat"":""23"",""src"":""10"",""x"":239,""y"":352},{""cat"":""23"",""src"":""10"",""x"":0,""y"":0}]","[{""cat"":23,""src"":15,""loc"":0},{""cat"":27,""src"":18,""loc"":2},{""cat"":27,""src"":4,""loc"":8},{""cat"":11,""src"":3,""loc"":6},{""cat"":11,""src"":10,""loc"":1},{""cat"":23,""src"":7,""loc"":5},{""cat"":11,""src"":5,""loc"":4},{""cat"":27,""src"":19,""loc"":3},{""cat"":23,""src"":10,""loc"":7}]","7","23,11,27,27,11,23,11,23,27,15,10,18,19,5,7,3,10,4,0,1,2,3,4,5,6,7,8,0,4,1,7,6,5,3,8,2",NA
"2286","sort_feedback","32","html-keyboard-response","43","321894","0.0-4.0-15.0","1","2020-1-6 11:40:40","MONKEY",NA,NA,NA,NA,NA,NA,NA,NA,NA,NA,NA,NA,NA,NA
"19920","setup3",NA,"animation","44","341815","0.0-4.0-16.0","1","2020-1-6 11:40:40","MONKEY",NA,NA,"[{""cat"":1,""src"":14,""loc"":6},{""cat"":23,""src"":18,""loc"":3},{""cat"":15,""src"":13,""loc"":2},{""cat"":1,""src"":1,""loc"":8},{""cat"":23,""src"":5,""loc"":4},{""cat"":15,""src"":1,""loc"":0},{""cat"":15,""src"":6,""loc"":1},{""cat"":23,""src"":0,""loc"":5},{""cat"":1,""src"":3,""loc"":7}]","3","1103,1103,1103,1102,1102,1102,1101,1102,1102,10000",NA,NA,NA,NA,NA,NA,NA,NA,NA
"2249","flanker_instructions","32","html-keyboard-response","45","344066","0.0-4.0-17.0","1","2020-1-6 11:40:40","MONKEY",NA,NA,NA,NA,NA,NA,NA,NA,NA,NA,NA,NA,NA,NA
NA,"flanker_test",NA,"image-keyboard-response","46","345969","0.0-4.0-18.0-0.0","1","2020-1-6 11:40:40","MONKEY",NA,NA,NA,NA,NA,"incongruent","left","FALSE",NA,NA,NA,NA,NA,NA
NA,"flanker_test",NA,"image-keyboard-response","47","347642","0.0-4.0-18.0-0.1","1","2020-1-6 11:40:40","MONKEY",NA,NA,NA,NA,NA,"incongruent","right","FALSE",NA,NA,NA,NA,NA,NA
NA,"flanker_test",NA,"image-keyboard-response","48","349721","0.0-4.0-18.0-0.2","1","2020-1-6 11:40:40","MONKEY",NA,NA,NA,NA,NA,"congruent","right","FALSE",NA,NA,NA,NA,NA,NA
NA,"flanker_test",NA,"image-keyboard-response","49","351154","0.0-4.0-18.0-0.3","1","2020-1-6 11:40:40","MONKEY",NA,NA,NA,NA,NA,"congruent","left","FALSE",NA,NA,NA,NA,NA,NA
"19453","sort_trial",NA,"free-sort","50","371165","0.0-4.0-19.0","1","2020-1-6 11:40:40","MONKEY",NA,NA,NA,NA,NA,NA,NA,NA,"[{""cat"":1,""src"":14,""x"":39,""y"":493},{""cat"":23,""src"":18,""x"":45,""y"":81},{""cat"":15,""src"":13,""x"":1,""y"":15},{""cat"":1,""src"":1,""x"":35,""y"":132},{""cat"":23,""src"":5,""x"":83,""y"":423},{""cat"":15,""src"":1,""x"":45,""y"":302},{""cat"":15,""src"":6,""x"":74,""y"":374},{""cat"":23,""src"":0,""x"":80,""y"":264},{""cat"":1,""src"":3,""x"":66,""y"":193}]","[{""cat"":""15"",""src"":""1"",""x"":0,""y"":0},{""cat"":""15"",""src"":""13"",""x"":0,""y"":0},{""cat"":""15"",""src"":""6"",""x"":0,""y"":0},{""cat"":""23"",""src"":""0"",""x"":0,""y"":0},{""cat"":""23"",""src"":""5"",""x"":0,""y"":0},{""cat"":""23"",""src"":""18"",""x"":0,""y"":0},{""cat"":""1"",""src"":""14"",""x"":0,""y"":0},{""cat"":""1"",""src"":""1"",""x"":0,""y"":0},{""cat"":""1"",""src"":""3"",""x"":0,""y"":0}]","[{""cat"":15,""src"":1,""loc"":0},{""cat"":15,""src"":13,""loc"":2},{""cat"":15,""src"":6,""loc"":1},{""cat"":23,""src"":0,""loc"":5},{""cat"":23,""src"":5,""loc"":4},{""cat"":23,""src"":18,""loc"":3},{""cat"":1,""src"":14,""loc"":6},{""cat"":1,""src"":1,""loc"":8},{""cat"":1,""src"":3,""loc"":7}]","9","15,15,15,23,23,23,1,1,1,1,6,13,18,5,0,14,3,1,0,1,2,3,4,5,6,7,8,0,2,1,5,4,3,6,8,7",NA
"3327","sort_feedback","32","html-keyboard-response","51","374493","0.0-4.0-20.0","1","2020-1-6 11:40:40","MONKEY",NA,NA,NA,NA,NA,NA,NA,NA,NA,NA,NA,NA,NA,NA
"19921","setup4",NA,"animation","52","394416","0.0-4.0-21.0","1","2020-1-6 11:40:40","MONKEY",NA,NA,"[{""cat"":17,""src"":1,""loc"":8},{""cat"":17,""src"":10,""loc"":1},{""cat"":17,""src"":11,""loc"":5},{""cat"":33,""src"":17,""loc"":3},{""cat"":33,""src"":7,""loc"":6},{""cat"":33,""src"":6,""loc"":2},{""cat"":15,""src"":9,""loc"":7},{""cat"":15,""src"":18,""loc"":0},{""cat"":15,""src"":3,""loc"":4}]","4","1103,1101,1105,1102,1102,1102,1101,1102,1102,10001",NA,NA,NA,NA,NA,NA,NA,NA,NA
"1573","flanker_instructions","32","html-keyboard-response","53","395991","0.0-4.0-22.0","1","2020-1-6 11:40:40","MONKEY",NA,NA,NA,NA,NA,NA,NA,NA,NA,NA,NA,NA,NA,NA
NA,"flanker_test",NA,"image-keyboard-response","54","397895","0.0-4.0-23.0-0.0","1","2020-1-6 11:40:40","MONKEY",NA,NA,NA,NA,NA,"incongruent","left","FALSE",NA,NA,NA,NA,NA,NA
NA,"flanker_test",NA,"image-keyboard-response","55","399981","0.0-4.0-23.0-0.1","1","2020-1-6 11:40:40","MONKEY",NA,NA,NA,NA,NA,"incongruent","right","FALSE",NA,NA,NA,NA,NA,NA
NA,"flanker_test",NA,"image-keyboard-response","56","401685","0.0-4.0-23.0-0.2","1","2020-1-6 11:40:40","MONKEY",NA,NA,NA,NA,NA,"congruent","left","FALSE",NA,NA,NA,NA,NA,NA
NA,"flanker_test",NA,"image-keyboard-response","57","402948","0.0-4.0-23.0-0.3","1","2020-1-6 11:40:40","MONKEY",NA,NA,NA,NA,NA,"congruent","right","FALSE",NA,NA,NA,NA,NA,NA
"18696","sort_trial",NA,"free-sort","58","422556","0.0-4.0-24.0","1","2020-1-6 11:40:40","MONKEY",NA,NA,NA,NA,NA,NA,NA,NA,"[{""cat"":17,""src"":1,""x"":55,""y"":71},{""cat"":17,""src"":10,""x"":15,""y"":15},{""cat"":17,""src"":11,""x"":77,""y"":195},{""cat"":33,""src"":17,""x"":4,""y"":364},{""cat"":33,""src"":7,""x"":52,""y"":419},{""cat"":33,""src"":6,""x"":11,""y"":483},{""cat"":15,""src"":9,""x"":38,""y"":248},{""cat"":15,""src"":18,""x"":65,""y"":313},{""cat"":15,""src"":3,""x"":45,""y"":125}]","[{""cat"":""17"",""src"":""10"",""x"":0,""y"":0},{""cat"":""33"",""src"":""6"",""x"":0,""y"":0},{""cat"":""33"",""src"":""7"",""x"":0,""y"":0},{""cat"":""17"",""src"":""1"",""x"":513,""y"":307},{""cat"":""17"",""src"":""1"",""x"":0,""y"":0},{""cat"":""15"",""src"":""18"",""x"":0,""y"":0},{""cat"":""15"",""src"":""9"",""x"":0,""y"":0},{""cat"":""33"",""src"":""17"",""x"":0,""y"":0},{""cat"":""17"",""src"":""11"",""x"":0,""y"":0},{""cat"":""15"",""src"":""3"",""x"":0,""y"":0}]","[{""cat"":17,""src"":10,""loc"":1},{""cat"":33,""src"":6,""loc"":2},{""cat"":33,""src"":7,""loc"":6},{""cat"":17,""src"":1,""loc"":8},{""cat"":15,""src"":18,""loc"":0},{""cat"":15,""src"":9,""loc"":7},{""cat"":33,""src"":17,""loc"":3},{""cat"":17,""src"":11,""loc"":5},{""cat"":15,""src"":3,""loc"":4}]","9","15,17,33,33,15,17,33,15,17,18,10,6,17,3,11,7,9,1,0,1,2,3,4,5,6,7,8,4,0,1,6,8,7,2,5,3",NA
"2537","sort_feedback","32","html-keyboard-response","59","425094","0.0-4.0-25.0","1","2020-1-6 11:40:40","MONKEY",NA,NA,NA,NA,NA,NA,NA,NA,NA,NA,NA,NA,NA,NA
"19933","setup5",NA,"animation","60","445028","0.0-4.0-26.0","1","2020-1-6 11:40:40","MONKEY",NA,NA,"[{""cat"":33,""src"":9,""loc"":5},{""cat"":25,""src"":14,""loc"":8},{""cat"":30,""src"":16,""loc"":1},{""cat"":25,""src"":16,""loc"":4},{""cat"":33,""src"":8,""loc"":2},{""cat"":30,""src"":11,""loc"":6},{""cat"":30,""src"":14,""loc"":3},{""cat"":25,""src"":9,""loc"":0},{""cat"":33,""src"":2,""loc"":7}]","5","1113,1101,1105,1101,1104,1102,1101,1103,1101,10002",NA,NA,NA,NA,NA,NA,NA,NA,NA
"487","flanker_instructions","32","html-keyboard-response","61","445517","0.0-4.0-27.0","1","2020-1-6 11:40:40","MONKEY",NA,NA,NA,NA,NA,NA,NA,NA,NA,NA,NA,NA,NA,NA
NA,"flanker_test",NA,"image-keyboard-response","62","447420","0.0-4.0-28.0-0.0","1","2020-1-6 11:40:40","MONKEY",NA,NA,NA,NA,NA,"congruent","left","FALSE",NA,NA,NA,NA,NA,NA
NA,"flanker_test",NA,"image-keyboard-response","63","448768","0.0-4.0-28.0-0.1","1","2020-1-6 11:40:40","MONKEY",NA,NA,NA,NA,NA,"congruent","right","FALSE",NA,NA,NA,NA,NA,NA
NA,"flanker_test",NA,"image-keyboard-response","64","450358","0.0-4.0-28.0-0.2","1","2020-1-6 11:40:40","MONKEY",NA,NA,NA,NA,NA,"incongruent","right","FALSE",NA,NA,NA,NA,NA,NA
NA,"flanker_test",NA,"image-keyboard-response","65","451836","0.0-4.0-28.0-0.3","1","2020-1-6 11:40:40","MONKEY",NA,NA,NA,NA,NA,"incongruent","left","FALSE",NA,NA,NA,NA,NA,NA
"23355","sort_trial",NA,"free-sort","66","475924","0.0-4.0-29.0","1","2020-1-6 11:40:40","MONKEY",NA,NA,NA,NA,NA,NA,NA,NA,"[{""cat"":33,""src"":9,""x"":49,""y"":16},{""cat"":25,""src"":14,""x"":47,""y"":505},{""cat"":30,""src"":16,""x"":57,""y"":129},{""cat"":25,""src"":16,""x"":41,""y"":259},{""cat"":33,""src"":8,""x"":68,""y"":428},{""cat"":30,""src"":11,""x"":1,""y"":323},{""cat"":30,""src"":14,""x"":32,""y"":188},{""cat"":25,""src"":9,""x"":60,""y"":88},{""cat"":33,""src"":2,""x"":61,""y"":363}]","[{""cat"":""25"",""src"":""9"",""x"":0,""y"":0},{""cat"":""30"",""src"":""16"",""x"":0,""y"":0},{""cat"":""33"",""src"":""8"",""x"":0,""y"":0},{""cat"":""30"",""src"":""11"",""x"":0,""y"":0},{""cat"":""25"",""src"":""14"",""x"":0,""y"":0},{""cat"":""25"",""src"":""16"",""x"":0,""y"":0},{""cat"":""33"",""src"":""9"",""x"":0,""y"":0},{""cat"":""30"",""src"":""14"",""x"":0,""y"":0},{""cat"":""33"",""src"":""2"",""x"":787,""y"":242},{""cat"":""33"",""src"":""2"",""x"":0,""y"":0}]","[{""cat"":25,""src"":9,""loc"":0},{""cat"":30,""src"":16,""loc"":1},{""cat"":33,""src"":8,""loc"":2},{""cat"":30,""src"":11,""loc"":6},{""cat"":25,""src"":14,""loc"":8},{""cat"":25,""src"":16,""loc"":7},{""cat"":33,""src"":9,""loc"":5},{""cat"":30,""src"":14,""loc"":4},{""cat"":33,""src"":2,""loc"":3}]","6","25,30,33,33,30,33,30,25,25,9,16,8,2,14,9,11,16,14,0,1,2,3,4,5,6,7,8,0,1,2,8,7,6,3,5,4",NA
"3300","sort_feedback","32","html-keyboard-response","67","479225","0.0-4.0-30.0","1","2020-1-6 11:40:40","MONKEY",NA,NA,NA,NA,NA,NA,NA,NA,NA,NA,NA,NA,NA,NA
"19928","setup4",NA,"animation","68","499155","0.0-4.0-31.0","1","2020-1-6 11:40:40","MONKEY",NA,NA,"[{""cat"":3,""src"":7,""loc"":0},{""cat"":3,""src"":6,""loc"":7},{""cat"":3,""src"":1,""loc"":3},{""cat"":14,""src"":9,""loc"":5},{""cat"":14,""src"":10,""loc"":8},{""cat"":14,""src"":0,""loc"":2},{""cat"":15,""src"":13,""loc"":1},{""cat"":15,""src"":18,""loc"":6},{""cat"":15,""src"":2,""loc"":4}]","4","1103,1111,1101,1103,1103,1102,1100,1102,1102,10001",NA,NA,NA,NA,NA,NA,NA,NA,NA
"9474","flanker_instructions","74","html-keyboard-response","69","508630","0.0-4.0-32.0","1","2020-1-6 11:40:40","MONKEY",NA,NA,NA,NA,NA,NA,NA,NA,NA,NA,NA,NA,NA,NA
NA,"flanker_test",NA,"image-keyboard-response","70","510534","0.0-4.0-33.0-0.0","1","2020-1-6 11:40:40","MONKEY",NA,NA,NA,NA,NA,"congruent","right","FALSE",NA,NA,NA,NA,NA,NA
NA,"flanker_test",NA,"image-keyboard-response","71","511831","0.0-4.0-33.0-0.1","1","2020-1-6 11:40:40","MONKEY",NA,NA,NA,NA,NA,"incongruent","left","FALSE",NA,NA,NA,NA,NA,NA
NA,"flanker_test",NA,"image-keyboard-response","72","513910","0.0-4.0-33.0-0.2","1","2020-1-6 11:40:40","MONKEY",NA,NA,NA,NA,NA,"congruent","left","FALSE",NA,NA,NA,NA,NA,NA
NA,"flanker_test",NA,"image-keyboard-response","73","515627","0.0-4.0-33.0-0.3","1","2020-1-6 11:40:40","MONKEY",NA,NA,NA,NA,NA,"incongruent","right","FALSE",NA,NA,NA,NA,NA,NA
"24077","sort_trial",NA,"free-sort","74","540108","0.0-4.0-34.0","1","2020-1-6 11:40:40","MONKEY",NA,NA,NA,NA,NA,NA,NA,NA,"[{""cat"":3,""src"":7,""x"":25,""y"":306},{""cat"":3,""src"":6,""x"":67,""y"":206},{""cat"":3,""src"":1,""x"":42,""y"":445},{""cat"":14,""src"":9,""x"":20,""y"":68},{""cat"":14,""src"":10,""x"":19,""y"":365},{""cat"":14,""src"":0,""x"":80,""y"":266},{""cat"":15,""src"":13,""x"":19,""y"":138},{""cat"":15,""src"":18,""x"":34,""y"":482},{""cat"":15,""src"":2,""x"":37,""y"":1}]","[{""cat"":""15"",""src"":""13"",""x"":0,""y"":0},{""cat"":""14"",""src"":""0"",""x"":0,""y"":0},{""cat"":""3"",""src"":""7"",""x"":0,""y"":0},{""cat"":""14"",""src"":""9"",""x"":0,""y"":0},{""cat"":""3"",""src"":""1"",""x"":0,""y"":0},{""cat"":""14"",""src"":""10"",""x"":0,""y"":0},{""cat"":""3"",""src"":""6"",""x"":0,""y"":0},{""cat"":""15"",""src"":""18"",""x"":0,""y"":0},{""cat"":""15"",""src"":""2"",""x"":0,""y"":0}]","[{""cat"":15,""src"":13,""loc"":1},{""cat"":14,""src"":0,""loc"":2},{""cat"":3,""src"":7,""loc"":0},{""cat"":14,""src"":9,""loc"":5},{""cat"":3,""src"":1,""loc"":3},{""cat"":14,""src"":10,""loc"":6},{""cat"":3,""src"":6,""loc"":7},{""cat"":15,""src"":18,""loc"":8},{""cat"":15,""src"":2,""loc"":4}]","7","3,15,14,3,15,14,14,3,15,7,13,0,1,2,9,10,6,18,0,1,2,3,4,5,6,7,8,2,0,1,4,8,3,5,6,7",NA
"1848","sort_feedback","75","html-keyboard-response","75","541958","0.0-4.0-35.0","1","2020-1-6 11:40:40","MONKEY",NA,NA,NA,NA,NA,NA,NA,NA,NA,NA,NA,NA,NA,NA
"19917","setup1",NA,"animation","76","561875","0.0-4.0-36.0","1","2020-1-6 11:40:40","MONKEY",NA,NA,"[{""cat"":13,""src"":11,""loc"":6},{""cat"":13,""src"":2,""loc"":8},{""cat"":13,""src"":12,""loc"":7},{""cat"":32,""src"":0,""loc"":5},{""cat"":32,""src"":7,""loc"":3},{""cat"":32,""src"":3,""loc"":4},{""cat"":20,""src"":12,""loc"":0},{""cat"":20,""src"":13,""loc"":2},{""cat"":20,""src"":10,""loc"":1}]","1","1104,1101,1101,1101,1102,1101,1102,1101,1102,10002",NA,NA,NA,NA,NA,NA,NA,NA,NA
"2264","flanker_instructions","75","html-keyboard-response","77","564141","0.0-4.0-37.0","1","2020-1-6 11:40:40","MONKEY",NA,NA,NA,NA,NA,NA,NA,NA,NA,NA,NA,NA,NA,NA
NA,"flanker_test",NA,"image-keyboard-response","78","566044","0.0-4.0-38.0-0.0","1","2020-1-6 11:40:40","MONKEY",NA,NA,NA,NA,NA,"incongruent","right","FALSE",NA,NA,NA,NA,NA,NA
NA,"flanker_test",NA,"image-keyboard-response","79","567831","0.0-4.0-38.0-0.1","1","2020-1-6 11:40:40","MONKEY",NA,NA,NA,NA,NA,"incongruent","left","FALSE",NA,NA,NA,NA,NA,NA
NA,"flanker_test",NA,"image-keyboard-response","80","569252","0.0-4.0-38.0-0.2","1","2020-1-6 11:40:40","MONKEY",NA,NA,NA,NA,NA,"congruent","right","FALSE",NA,NA,NA,NA,NA,NA
NA,"flanker_test",NA,"image-keyboard-response","81","570653","0.0-4.0-38.0-0.3","1","2020-1-6 11:40:40","MONKEY",NA,NA,NA,NA,NA,"congruent","left","FALSE",NA,NA,NA,NA,NA,NA
"25345","sort_trial",NA,"free-sort","82","596842","0.0-4.0-39.0","1","2020-1-6 11:40:40","MONKEY",NA,NA,NA,NA,NA,NA,NA,NA,"[{""cat"":13,""src"":11,""x"":10,""y"":379},{""cat"":13,""src"":2,""x"":34,""y"":85},{""cat"":13,""src"":12,""x"":10,""y"":250},{""cat"":32,""src"":0,""x"":21,""y"":5},{""cat"":32,""src"":7,""x"":30,""y"":313},{""cat"":32,""src"":3,""x"":72,""y"":431},{""cat"":20,""src"":12,""x"":50,""y"":182},{""cat"":20,""src"":13,""x"":45,""y"":506},{""cat"":20,""src"":10,""x"":68,""y"":147}]","[{""cat"":""20"",""src"":""12"",""x"":0,""y"":0},{""cat"":""20"",""src"":""10"",""x"":0,""y"":0},{""cat"":""20"",""src"":""13"",""x"":0,""y"":0},{""cat"":""13"",""src"":""11"",""x"":0,""y"":0},{""cat"":""13"",""src"":""12"",""x"":0,""y"":0},{""cat"":""13"",""src"":""2"",""x"":0,""y"":0},{""cat"":""32"",""src"":""0"",""x"":694,""y"":153},{""cat"":""32"",""src"":""0"",""x"":0,""y"":0},{""cat"":""32"",""src"":""3"",""x"":0,""y"":0},{""cat"":""32"",""src"":""7"",""x"":785,""y"":244},{""cat"":""32"",""src"":""7"",""x"":0,""y"":0}]","[{""cat"":20,""src"":12,""loc"":0},{""cat"":20,""src"":10,""loc"":1},{""cat"":20,""src"":13,""loc"":2},{""cat"":13,""src"":11,""loc"":6},{""cat"":13,""src"":12,""loc"":7},{""cat"":13,""src"":2,""loc"":8},{""cat"":32,""src"":0,""loc"":5},{""cat"":32,""src"":3,""loc"":4},{""cat"":32,""src"":7,""loc"":3}]","9","20,20,20,32,32,32,13,13,13,12,10,13,7,3,0,11,12,2,0,1,2,3,4,5,6,7,8,0,1,2,8,7,6,3,4,5",NA
"1802","sort_feedback","75","html-keyboard-response","83","598645","0.0-4.0-40.0","1","2020-1-6 11:40:40","MONKEY",NA,NA,NA,NA,NA,NA,NA,NA,NA,NA,NA,NA,NA,NA
"19916","setup3",NA,"animation","84","618563","0.0-4.0-41.0","1","2020-1-6 11:40:40","MONKEY",NA,NA,"[{""cat"":9,""src"":18,""loc"":8},{""cat"":15,""src"":16,""loc"":3},{""cat"":6,""src"":7,""loc"":0},{""cat"":6,""src"":2,""loc"":1},{""cat"":9,""src"":14,""loc"":6},{""cat"":15,""src"":13,""loc"":5},{""cat"":15,""src"":11,""loc"":4},{""cat"":6,""src"":9,""loc"":2},{""cat"":9,""src"":17,""loc"":7}]","3","1102,1101,1102,1102,1101,1102,1101,1102,1102,10001",NA,NA,NA,NA,NA,NA,NA,NA,NA
"604","flanker_instructions","70","html-keyboard-response","85","619168","0.0-4.0-42.0","1","2020-1-6 11:40:40","MONKEY",NA,NA,NA,NA,NA,NA,NA,NA,NA,NA,NA,NA,NA,NA
NA,"flanker_test",NA,"image-keyboard-response","86","621072","0.0-4.0-43.0-0.0","1","2020-1-6 11:40:40","MONKEY",NA,NA,NA,NA,NA,"congruent","left","FALSE",NA,NA,NA,NA,NA,NA
NA,"flanker_test",NA,"image-keyboard-response","87","622829","0.0-4.0-43.0-0.1","1","2020-1-6 11:40:40","MONKEY",NA,NA,NA,NA,NA,"congruent","right","FALSE",NA,NA,NA,NA,NA,NA
NA,"flanker_test",NA,"image-keyboard-response","88","624330","0.0-4.0-43.0-0.2","1","2020-1-6 11:40:40","MONKEY",NA,NA,NA,NA,NA,"incongruent","right","FALSE",NA,NA,NA,NA,NA,NA
NA,"flanker_test",NA,"image-keyboard-response","89","626266","0.0-4.0-43.0-0.3","1","2020-1-6 11:40:40","MONKEY",NA,NA,NA,NA,NA,"incongruent","left","FALSE",NA,NA,NA,NA,NA,NA
"20666","sort_trial",NA,"free-sort","90","647705","0.0-4.0-44.0","1","2020-1-6 11:40:40","MONKEY",NA,NA,NA,NA,NA,NA,NA,NA,"[{""cat"":9,""src"":18,""x"":17,""y"":440},{""cat"":15,""src"":16,""x"":39,""y"":310},{""cat"":6,""src"":7,""x"":35,""y"":374},{""cat"":6,""src"":2,""x"":74,""y"":500},{""cat"":9,""src"":14,""x"":3,""y"":81},{""cat"":15,""src"":13,""x"":64,""y"":267},{""cat"":15,""src"":11,""x"":61,""y"":201},{""cat"":6,""src"":9,""x"":70,""y"":21},{""cat"":9,""src"":17,""x"":42,""y"":128}]","[{""cat"":""6"",""src"":""9"",""x"":360,""y"":169},{""cat"":""6"",""src"":""9"",""x"":0,""y"":0},{""cat"":""6"",""src"":""7"",""x"":0,""y"":0},{""cat"":""6"",""src"":""2"",""x"":0,""y"":0},{""cat"":""9"",""src"":""14"",""x"":0,""y"":0},{""cat"":""9"",""src"":""18"",""x"":0,""y"":0},{""cat"":""15"",""src"":""13"",""x"":0,""y"":0},{""cat"":""15"",""src"":""11"",""x"":0,""y"":0},{""cat"":""15"",""src"":""16"",""x"":0,""y"":0},{""cat"":""9"",""src"":""17"",""x"":0,""y"":0}]","[{""cat"":6,""src"":9,""loc"":2},{""cat"":6,""src"":7,""loc"":0},{""cat"":6,""src"":2,""loc"":1},{""cat"":9,""src"":14,""loc"":6},{""cat"":9,""src"":18,""loc"":7},{""cat"":15,""src"":13,""loc"":5},{""cat"":15,""src"":11,""loc"":4},{""cat"":15,""src"":16,""loc"":3},{""cat"":9,""src"":17,""loc"":8}]","7","6,6,6,15,15,15,9,9,9,7,2,9,16,11,13,14,18,17,0,1,2,3,4,5,6,7,8,1,2,0,7,6,5,3,4,8",NA
"1311","sort_feedback","32","html-keyboard-response","91","649017","0.0-4.0-45.0","1","2020-1-6 11:40:40","MONKEY",NA,NA,NA,NA,NA,NA,NA,NA,NA,NA,NA,NA,NA,NA
"19919","setup2",NA,"animation","92","668937","0.0-4.0-46.0","1","2020-1-6 11:40:40","MONKEY",NA,NA,"[{""cat"":21,""src"":11,""loc"":0},{""cat"":7,""src"":0,""loc"":1},{""cat"":32,""src"":12,""loc"":2},{""cat"":32,""src"":17,""loc"":4},{""cat"":21,""src"":18,""loc"":5},{""cat"":7,""src"":3,""loc"":3},{""cat"":7,""src"":5,""loc"":6},{""cat"":21,""src"":8,""loc"":8},{""cat"":32,""src"":5,""loc"":7}]","2","1103,1101,1102,1100,1102,1103,1101,1102,1102,10002",NA,NA,NA,NA,NA,NA,NA,NA,NA
"468","flanker_instructions","74","html-keyboard-response","93","669407","0.0-4.0-47.0","1","2020-1-6 11:40:40","MONKEY",NA,NA,NA,NA,NA,NA,NA,NA,NA,NA,NA,NA,NA,NA
NA,"flanker_test",NA,"image-keyboard-response","94","671310","0.0-4.0-48.0-0.0","1","2020-1-6 11:40:40","MONKEY",NA,NA,NA,NA,NA,"incongruent","right","FALSE",NA,NA,NA,NA,NA,NA
NA,"flanker_test",NA,"image-keyboard-response","95","672796","0.0-4.0-48.0-0.1","1","2020-1-6 11:40:40","MONKEY",NA,NA,NA,NA,NA,"congruent","right","FALSE",NA,NA,NA,NA,NA,NA
NA,"flanker_test",NA,"image-keyboard-response","96","674056","0.0-4.0-48.0-0.2","1","2020-1-6 11:40:40","MONKEY",NA,NA,NA,NA,NA,"congruent","left","FALSE",NA,NA,NA,NA,NA,NA
NA,"flanker_test",NA,"image-keyboard-response","97","675828","0.0-4.0-48.0-0.3","1","2020-1-6 11:40:40","MONKEY",NA,NA,NA,NA,NA,"incongruent","left","FALSE",NA,NA,NA,NA,NA,NA
"16436","sort_trial",NA,"free-sort","98","693193","0.0-4.0-49.0","1","2020-1-6 11:40:40","MONKEY",NA,NA,NA,NA,NA,NA,NA,NA,"[{""cat"":21,""src"":11,""x"":60,""y"":429},{""cat"":7,""src"":0,""x"":14,""y"":326},{""cat"":32,""src"":12,""x"":14,""y"":386},{""cat"":32,""src"":17,""x"":47,""y"":191},{""cat"":21,""src"":18,""x"":75,""y"":4},{""cat"":7,""src"":3,""x"":74,""y"":499},{""cat"":7,""src"":5,""x"":24,""y"":133},{""cat"":21,""src"":8,""x"":41,""y"":84},{""cat"":32,""src"":5,""x"":24,""y"":251}]","[{""cat"":""7"",""src"":""0"",""x"":480,""y"":50},{""cat"":""32"",""src"":""12"",""x"":0,""y"":0},{""cat"":""7"",""src"":""0"",""x"":0,""y"":0},{""cat"":""21"",""src"":""11"",""x"":0,""y"":0},{""cat"":""32"",""src"":""5"",""x"":0,""y"":0},{""cat"":""7"",""src"":""3"",""x"":0,""y"":0},{""cat"":""21"",""src"":""18"",""x"":0,""y"":0},{""cat"":""32"",""src"":""17"",""x"":0,""y"":0},{""cat"":""7"",""src"":""5"",""x"":0,""y"":0},{""cat"":""21"",""src"":""8"",""x"":0,""y"":0}]","[{""cat"":32,""src"":12,""loc"":2},{""cat"":7,""src"":0,""loc"":1},{""cat"":21,""src"":11,""loc"":0},{""cat"":32,""src"":5,""loc"":7},{""cat"":7,""src"":3,""loc"":3},{""cat"":21,""src"":18,""loc"":5},{""cat"":32,""src"":17,""loc"":4},{""cat"":7,""src"":5,""loc"":6},{""cat"":21,""src"":8,""loc"":8}]","9","21,7,32,7,32,21,7,32,21,11,0,12,3,17,18,5,5,8,0,1,2,3,4,5,6,7,8,2,1,0,4,6,5,7,3,8",NA
"1056","sort_feedback","75","html-keyboard-response","99","694251","0.0-4.0-50.0","1","2020-1-6 11:40:40","MONKEY",NA,NA,NA,NA,NA,NA,NA,NA,NA,NA,NA,NA,NA,NA
"19919","setup4",NA,"animation","100","714171","0.0-4.0-51.0","1","2020-1-6 11:40:40","MONKEY",NA,NA,"[{""cat"":4,""src"":18,""loc"":1},{""cat"":4,""src"":7,""loc"":4},{""cat"":4,""src"":0,""loc"":8},{""cat"":32,""src"":1,""loc"":7},{""cat"":32,""src"":8,""loc"":3},{""cat"":32,""src"":15,""loc"":0},{""cat"":20,""src"":10,""loc"":5},{""cat"":20,""src"":0,""loc"":2},{""cat"":20,""src"":13,""loc"":6}]","4","1103,1101,1102,1102,1102,1102,1102,1103,1102,10000",NA,NA,NA,NA,NA,NA,NA,NA,NA
"547","flanker_instructions","71","html-keyboard-response","101","714720","0.0-4.0-52.0","1","2020-1-6 11:40:40","MONKEY",NA,NA,NA,NA,NA,NA,NA,NA,NA,NA,NA,NA,NA,NA
NA,"flanker_test",NA,"image-keyboard-response","102","716624","0.0-4.0-53.0-0.0","1","2020-1-6 11:40:40","MONKEY",NA,NA,NA,NA,NA,"incongruent","left","FALSE",NA,NA,NA,NA,NA,NA
NA,"flanker_test",NA,"image-keyboard-response","103","717970","0.0-4.0-53.0-0.1","1","2020-1-6 11:40:40","MONKEY",NA,NA,NA,NA,NA,"congruent","right","FALSE",NA,NA,NA,NA,NA,NA
NA,"flanker_test",NA,"image-keyboard-response","104","719945","0.0-4.0-53.0-0.2","1","2020-1-6 11:40:40","MONKEY",NA,NA,NA,NA,NA,"incongruent","right","FALSE",NA,NA,NA,NA,NA,NA
NA,"flanker_test",NA,"image-keyboard-response","105","721663","0.0-4.0-53.0-0.3","1","2020-1-6 11:40:40","MONKEY",NA,NA,NA,NA,NA,"congruent","left","FALSE",NA,NA,NA,NA,NA,NA
"16778","sort_trial",NA,"free-sort","106","738913","0.0-4.0-54.0","1","2020-1-6 11:40:40","MONKEY",NA,NA,NA,NA,NA,NA,NA,NA,"[{""cat"":4,""src"":18,""x"":0,""y"":80},{""cat"":4,""src"":7,""x"":50,""y"":488},{""cat"":4,""src"":0,""x"":73,""y"":267},{""cat"":32,""src"":1,""x"":42,""y"":426},{""cat"":32,""src"":8,""x"":76,""y"":360},{""cat"":32,""src"":15,""x"":53,""y"":1},{""cat"":20,""src"":10,""x"":24,""y"":326},{""cat"":20,""src"":0,""x"":55,""y"":186},{""cat"":20,""src"":13,""x"":54,""y"":124}]","[{""cat"":""20"",""src"":""10"",""x"":0,""y"":0},{""cat"":""4"",""src"":""7"",""x"":0,""y"":0},{""cat"":""32"",""src"":""8"",""x"":0,""y"":0},{""cat"":""4"",""src"":""0"",""x"":0,""y"":0},{""cat"":""32"",""src"":""1"",""x"":0,""y"":0},{""cat"":""32"",""src"":""15"",""x"":0,""y"":0},{""cat"":""4"",""src"":""18"",""x"":0,""y"":0},{""cat"":""20"",""src"":""13"",""x"":0,""y"":0},{""cat"":""20"",""src"":""0"",""x"":640,""y"":187},{""cat"":""20"",""src"":""0"",""x"":0,""y"":0}]","[{""cat"":20,""src"":10,""loc"":5},{""cat"":4,""src"":7,""loc"":4},{""cat"":32,""src"":8,""loc"":3},{""cat"":4,""src"":0,""loc"":8},{""cat"":32,""src"":1,""loc"":7},{""cat"":32,""src"":15,""loc"":0},{""cat"":4,""src"":18,""loc"":1},{""cat"":20,""src"":13,""loc"":6},{""cat"":20,""src"":0,""loc"":2}]","9","32,4,20,32,4,20,20,32,4,15,18,0,8,7,10,13,1,0,0,1,2,3,4,5,6,7,8,5,6,8,2,1,0,7,4,3",NA
"1217","sort_feedback","70","html-keyboard-response","107","740131","0.0-4.0-55.0","1","2020-1-6 11:40:40","MONKEY",NA,NA,NA,NA,NA,NA,NA,NA,NA,NA,NA,NA,NA,NA
"22746","setup1",NA,"animation","108","762878","0.0-4.0-56.0","1","2020-1-6 11:40:40","MONKEY",NA,NA,"[{""cat"":17,""src"":19,""loc"":2},{""cat"":17,""src"":6,""loc"":0},{""cat"":17,""src"":13,""loc"":1},{""cat"":28,""src"":4,""loc"":4},{""cat"":28,""src"":13,""loc"":3},{""cat"":28,""src"":11,""loc"":5},{""cat"":21,""src"":15,""loc"":8},{""cat"":21,""src"":3,""loc"":6},{""cat"":21,""src"":12,""loc"":7}]","1","1103,1101,1101,1103,1102,1102,1101,1108,3924,10001",NA,NA,NA,NA,NA,NA,NA,NA,NA
"1691","flanker_instructions","75","html-keyboard-response","109","764570","0.0-4.0-57.0","1","2020-1-6 11:40:40","MONKEY",NA,NA,NA,NA,NA,NA,NA,NA,NA,NA,NA,NA,NA,NA
NA,"flanker_test",NA,"image-keyboard-response","110","766474","0.0-4.0-58.0-0.0","1","2020-1-6 11:40:40","MONKEY",NA,NA,NA,NA,NA,"incongruent","left","FALSE",NA,NA,NA,NA,NA,NA
NA,"flanker_test",NA,"image-keyboard-response","111","767885","0.0-4.0-58.0-0.1","1","2020-1-6 11:40:40","MONKEY",NA,NA,NA,NA,NA,"congruent","right","FALSE",NA,NA,NA,NA,NA,NA
NA,"flanker_test",NA,"image-keyboard-response","112","769821","0.0-4.0-58.0-0.2","1","2020-1-6 11:40:40","MONKEY",NA,NA,NA,NA,NA,"incongruent","right","FALSE",NA,NA,NA,NA,NA,NA
NA,"flanker_test",NA,"image-keyboard-response","113","771090","0.0-4.0-58.0-0.3","1","2020-1-6 11:40:40","MONKEY",NA,NA,NA,NA,NA,"congruent","left","FALSE",NA,NA,NA,NA,NA,NA
"18446","sort_trial",NA,"free-sort","114","790185","0.0-4.0-59.0","1","2020-1-6 11:40:40","MONKEY",NA,NA,NA,NA,NA,NA,NA,NA,"[{""cat"":17,""src"":19,""x"":64,""y"":361},{""cat"":17,""src"":6,""x"":76,""y"":62},{""cat"":17,""src"":13,""x"":72,""y"":135},{""cat"":28,""src"":4,""x"":5,""y"":11},{""cat"":28,""src"":13,""x"":9,""y"":306},{""cat"":28,""src"":11,""x"":31,""y"":203},{""cat"":21,""src"":15,""x"":56,""y"":501},{""cat"":21,""src"":3,""x"":19,""y"":427},{""cat"":21,""src"":12,""x"":56,""y"":258}]","[{""cat"":""21"",""src"":""3"",""x"":384,""y"":302},{""cat"":""21"",""src"":""3"",""x"":0,""y"":0},{""cat"":""21"",""src"":""15"",""x"":0,""y"":0},{""cat"":""28"",""src"":""11"",""x"":0,""y"":0},{""cat"":""28"",""src"":""4"",""x"":0,""y"":0},{""cat"":""28"",""src"":""13"",""x"":0,""y"":0},{""cat"":""17"",""src"":""6"",""x"":0,""y"":0},{""cat"":""17"",""src"":""13"",""x"":0,""y"":0},{""cat"":""17"",""src"":""19"",""x"":0,""y"":0},{""cat"":""21"",""src"":""12"",""x"":0,""y"":0}]","[{""cat"":21,""src"":3,""loc"":6},{""cat"":21,""src"":15,""loc"":8},{""cat"":28,""src"":11,""loc"":5},{""cat"":28,""src"":4,""loc"":4},{""cat"":28,""src"":13,""loc"":3},{""cat"":17,""src"":6,""loc"":0},{""cat"":17,""src"":13,""loc"":1},{""cat"":17,""src"":19,""loc"":2},{""cat"":21,""src"":12,""loc"":7}]","9","17,17,17,28,28,28,21,21,21,6,13,19,13,4,11,3,12,15,0,1,2,3,4,5,6,7,8,5,6,7,4,3,2,0,8,1",NA
"1826","sort_feedback","32","html-keyboard-response","115","792012","0.0-4.0-60.0","1","2020-1-6 11:40:40","MONKEY",NA,NA,NA,NA,NA,NA,NA,NA,NA,NA,NA,NA,NA,NA
"19923","setup5",NA,"animation","116","811936","0.0-4.0-61.0","1","2020-1-6 11:40:40","MONKEY",NA,NA,"[{""cat"":4,""src"":1,""loc"":3},{""cat"":15,""src"":17,""loc"":1},{""cat"":11,""src"":7,""loc"":8},{""cat"":15,""src"":12,""loc"":6},{""cat"":4,""src"":18,""loc"":2},{""cat"":11,""src"":11,""loc"":5},{""cat"":11,""src"":17,""loc"":0},{""cat"":4,""src"":8,""loc"":7},{""cat"":15,""src"":11,""loc"":4}]","5","1104,1102,1102,1102,1102,1103,1102,1103,1102,10001",NA,NA,NA,NA,NA,NA,NA,NA,NA
"783","flanker_instructions","70","html-keyboard-response","117","812720","0.0-4.0-62.0","1","2020-1-6 11:40:40","MONKEY",NA,NA,NA,NA,NA,NA,NA,NA,NA,NA,NA,NA,NA,NA
NA,"flanker_test",NA,"image-keyboard-response","118","814625","0.0-4.0-63.0-0.0","1","2020-1-6 11:40:40","MONKEY",NA,NA,NA,NA,NA,"incongruent","left","FALSE",NA,NA,NA,NA,NA,NA
NA,"flanker_test",NA,"image-keyboard-response","119","816404","0.0-4.0-63.0-0.1","1","2020-1-6 11:40:40","MONKEY",NA,NA,NA,NA,NA,"incongruent","right","FALSE",NA,NA,NA,NA,NA,NA
NA,"flanker_test",NA,"image-keyboard-response","120","818463","0.0-4.0-63.0-0.2","1","2020-1-6 11:40:40","MONKEY",NA,NA,NA,NA,NA,"congruent","left","FALSE",NA,NA,NA,NA,NA,NA
NA,"flanker_test",NA,"image-keyboard-response","121","820352","0.0-4.0-63.0-0.3","1","2020-1-6 11:40:40","MONKEY",NA,NA,NA,NA,NA,"congruent","right","FALSE",NA,NA,NA,NA,NA,NA
"19466","sort_trial",NA,"free-sort","122","840769","0.0-4.0-64.0","1","2020-1-6 11:40:40","MONKEY",NA,NA,NA,NA,NA,NA,NA,NA,"[{""cat"":4,""src"":1,""x"":22,""y"":378},{""cat"":15,""src"":17,""x"":25,""y"":319},{""cat"":11,""src"":7,""x"":8,""y"":252},{""cat"":15,""src"":12,""x"":55,""y"":504},{""cat"":4,""src"":18,""x"":10,""y"":5},{""cat"":11,""src"":11,""x"":37,""y"":63},{""cat"":11,""src"":17,""x"":55,""y"":136},{""cat"":4,""src"":8,""x"":32,""y"":420},{""cat"":15,""src"":11,""x"":10,""y"":184}]","[{""cat"":""15"",""src"":""17"",""x"":0,""y"":0},{""cat"":""4"",""src"":""18"",""x"":0,""y"":0},{""cat"":""15"",""src"":""11"",""x"":0,""y"":0},{""cat"":""15"",""src"":""12"",""x"":0,""y"":0},{""cat"":""11"",""src"":""7"",""x"":0,""y"":0},{""cat"":""4"",""src"":""1"",""x"":0,""y"":0},{""cat"":""11"",""src"":""11"",""x"":0,""y"":0},{""cat"":""4"",""src"":""8"",""x"":0,""y"":0},{""cat"":""11"",""src"":""17"",""x"":0,""y"":0}]","[{""cat"":15,""src"":17,""loc"":1},{""cat"":4,""src"":18,""loc"":2},{""cat"":15,""src"":11,""loc"":4},{""cat"":15,""src"":12,""loc"":6},{""cat"":11,""src"":7,""loc"":8},{""cat"":4,""src"":1,""loc"":3},{""cat"":11,""src"":11,""loc"":7},{""cat"":4,""src"":8,""loc"":0},{""cat"":11,""src"":17,""loc"":5}]","6","4,15,4,4,15,11,15,11,11,8,17,18,1,11,17,12,11,7,0,1,2,3,4,5,6,7,8,7,0,1,5,2,8,3,6,4",NA
"2014","sort_feedback","75","html-keyboard-response","123","842784","0.0-4.0-65.0","1","2020-1-6 11:40:40","MONKEY",NA,NA,NA,NA,NA,NA,NA,NA,NA,NA,NA,NA,NA,NA
"19921","setup2",NA,"animation","124","862706","0.0-4.0-66.0","1","2020-1-6 11:40:40","MONKEY",NA,NA,"[{""cat"":3,""src"":13,""loc"":6},{""cat"":20,""src"":18,""loc"":8},{""cat"":8,""src"":5,""loc"":7},{""cat"":3,""src"":14,""loc"":5},{""cat"":20,""src"":19,""loc"":3},{""cat"":8,""src"":3,""loc"":4},{""cat"":3,""src"":2,""loc"":1},{""cat"":20,""src"":6,""loc"":2},{""cat"":8,""src"":17,""loc"":0}]","2","1103,1102,1102,1103,1102,1101,1102,1102,1103,10001",NA,NA,NA,NA,NA,NA,NA,NA,NA
"556","flanker_instructions","75","html-keyboard-response","125","863264","0.0-4.0-67.0","1","2020-1-6 11:40:40","MONKEY",NA,NA,NA,NA,NA,NA,NA,NA,NA,NA,NA,NA,NA,NA
NA,"flanker_test",NA,"image-keyboard-response","126","865167","0.0-4.0-68.0-0.0","1","2020-1-6 11:40:40","MONKEY",NA,NA,NA,NA,NA,"congruent","left","FALSE",NA,NA,NA,NA,NA,NA
NA,"flanker_test",NA,"image-keyboard-response","127","866429","0.0-4.0-68.0-0.1","1","2020-1-6 11:40:40","MONKEY",NA,NA,NA,NA,NA,"congruent","right","FALSE",NA,NA,NA,NA,NA,NA
NA,"flanker_test",NA,"image-keyboard-response","128","868013","0.0-4.0-68.0-0.2","1","2020-1-6 11:40:40","MONKEY",NA,NA,NA,NA,NA,"incongruent","left","FALSE",NA,NA,NA,NA,NA,NA
NA,"flanker_test",NA,"image-keyboard-response","129","869786","0.0-4.0-68.0-0.3","1","2020-1-6 11:40:40","MONKEY",NA,NA,NA,NA,NA,"incongruent","right","FALSE",NA,NA,NA,NA,NA,NA
"19634","sort_trial",NA,"free-sort","130","889840","0.0-4.0-69.0","1","2020-1-6 11:40:40","MONKEY",NA,NA,NA,NA,NA,NA,NA,NA,"[{""cat"":3,""src"":13,""x"":59,""y"":70},{""cat"":20,""src"":18,""x"":78,""y"":301},{""cat"":8,""src"":5,""x"":40,""y"":497},{""cat"":3,""src"":14,""x"":3,""y"":383},{""cat"":20,""src"":19,""x"":70,""y"":24},{""cat"":8,""src"":3,""x"":81,""y"":133},{""cat"":3,""src"":2,""x"":23,""y"":184},{""cat"":20,""src"":6,""x"":80,""y"":433},{""cat"":8,""src"":17,""x"":50,""y"":258}]","[{""cat"":""3"",""src"":""2"",""x"":0,""y"":0},{""cat"":""3"",""src"":""13"",""x"":0,""y"":0},{""cat"":""20"",""src"":""18"",""x"":0,""y"":0},{""cat"":""8"",""src"":""5"",""x"":272,""y"":400},{""cat"":""8"",""src"":""5"",""x"":0,""y"":0},{""cat"":""3"",""src"":""14"",""x"":0,""y"":0},{""cat"":""20"",""src"":""19"",""x"":0,""y"":0},{""cat"":""8"",""src"":""3"",""x"":0,""y"":0},{""cat"":""20"",""src"":""6"",""x"":0,""y"":0},{""cat"":""8"",""src"":""17"",""x"":0,""y"":0}]","[{""cat"":3,""src"":2,""loc"":1},{""cat"":3,""src"":13,""loc"":6},{""cat"":20,""src"":18,""loc"":8},{""cat"":8,""src"":5,""loc"":7},{""cat"":3,""src"":14,""loc"":5},{""cat"":20,""src"":19,""loc"":3},{""cat"":8,""src"":3,""loc"":4},{""cat"":20,""src"":6,""loc"":2},{""cat"":8,""src"":17,""loc"":0}]","9","8,3,20,20,8,3,3,8,20,17,2,6,19,3,14,13,5,18,0,1,2,3,4,5,6,7,8,8,0,7,5,6,4,1,3,2",NA
"894","sort_feedback","68","html-keyboard-response","131","890736","0.0-4.0-70.0","1","2020-1-6 11:40:40","MONKEY",NA,NA,NA,NA,NA,NA,NA,NA,NA,NA,NA,NA,NA,NA
"19918","setup3",NA,"animation","132","910654","0.0-4.0-71.0","1","2020-1-6 11:40:40","MONKEY",NA,NA,"[{""cat"":12,""src"":3,""loc"":5},{""cat"":10,""src"":10,""loc"":6},{""cat"":24,""src"":5,""loc"":2},{""cat"":10,""src"":16,""loc"":7},{""cat"":24,""src"":15,""loc"":1},{""cat"":12,""src"":17,""loc"":4},{""cat"":10,""src"":14,""loc"":8},{""cat"":24,""src"":0,""loc"":0},{""cat"":12,""src"":19,""loc"":3}]","3","1103,1101,1102,1102,1102,1101,1101,1102,1102,10002",NA,NA,NA,NA,NA,NA,NA,NA,NA
"571","flanker_instructions","76","html-keyboard-response","133","911227","0.0-4.0-72.0","1","2020-1-6 11:40:40","MONKEY",NA,NA,NA,NA,NA,NA,NA,NA,NA,NA,NA,NA,NA,NA
NA,"flanker_test",NA,"image-keyboard-response","134","913146","0.0-4.0-73.0-0.0","1","2020-1-6 11:40:40","MONKEY",NA,NA,NA,NA,NA,"congruent","right","FALSE",NA,NA,NA,NA,NA,NA
NA,"flanker_test",NA,"image-keyboard-response","135","914392","0.0-4.0-73.0-0.1","1","2020-1-6 11:40:40","MONKEY",NA,NA,NA,NA,NA,"incongruent","right","FALSE",NA,NA,NA,NA,NA,NA
NA,"flanker_test",NA,"image-keyboard-response","136","916256","0.0-4.0-73.0-0.2","1","2020-1-6 11:40:40","MONKEY",NA,NA,NA,NA,NA,"incongruent","left","FALSE",NA,NA,NA,NA,NA,NA
NA,"flanker_test",NA,"image-keyboard-response","137","918179","0.0-4.0-73.0-0.3","1","2020-1-6 11:40:40","MONKEY",NA,NA,NA,NA,NA,"congruent","left","FALSE",NA,NA,NA,NA,NA,NA
"40467","sort_trial",NA,"free-sort","138","959320","0.0-4.0-74.0","1","2020-1-6 11:40:40","MONKEY",NA,NA,NA,NA,NA,NA,NA,NA,"[{""cat"":12,""src"":3,""x"":76,""y"":146},{""cat"":10,""src"":10,""x"":20,""y"":3},{""cat"":24,""src"":5,""x"":57,""y"":78},{""cat"":10,""src"":16,""x"":7,""y"":437},{""cat"":24,""src"":15,""x"":10,""y"":317},{""cat"":12,""src"":17,""x"":16,""y"":378},{""cat"":10,""src"":14,""x"":54,""y"":188},{""cat"":24,""src"":0,""x"":21,""y"":502},{""cat"":12,""src"":19,""x"":51,""y"":249}]","[{""cat"":""10"",""src"":""10"",""x"":0,""y"":0},{""cat"":""10"",""src"":""16"",""x"":267,""y"":399},{""cat"":""10"",""src"":""16"",""x"":0,""y"":0},{""cat"":""12"",""src"":""3"",""x"":0,""y"":0},{""cat"":""24"",""src"":""5"",""x"":0,""y"":0},{""cat"":""24"",""src"":""15"",""x"":0,""y"":0},{""cat"":""10"",""src"":""14"",""x"":0,""y"":0},{""cat"":""12"",""src"":""19"",""x"":0,""y"":0},{""cat"":""12"",""src"":""17"",""x"":0,""y"":0},{""cat"":""24"",""src"":""0"",""x"":0,""y"":0}]","[{""cat"":10,""src"":10,""loc"":6},{""cat"":10,""src"":16,""loc"":7},{""cat"":12,""src"":3,""loc"":5},{""cat"":24,""src"":5,""loc"":2},{""cat"":24,""src"":15,""loc"":1},{""cat"":10,""src"":14,""loc"":0},{""cat"":12,""src"":19,""loc"":3},{""cat"":12,""src"":17,""loc"":8},{""cat"":24,""src"":0,""loc"":4}]","6","10,24,24,12,24,12,10,10,12,14,15,5,19,0,3,10,16,17,0,1,2,3,4,5,6,7,8,5,4,3,6,8,2,0,1,7",NA
"2267","sort_feedback","75","html-keyboard-response","139","961589","0.0-4.0-75.0","1","2020-1-6 11:40:40","MONKEY",NA,NA,NA,NA,NA,NA,NA,NA,NA,NA,NA,NA,NA,NA
"19917","setup4",NA,"animation","140","981506","0.0-4.0-76.0","1","2020-1-6 11:40:40","MONKEY",NA,NA,"[{""cat"":24,""src"":8,""loc"":2},{""cat"":24,""src"":0,""loc"":8},{""cat"":24,""src"":5,""loc"":3},{""cat"":30,""src"":18,""loc"":0},{""cat"":30,""src"":9,""loc"":7},{""cat"":30,""src"":15,""loc"":5},{""cat"":3,""src"":3,""loc"":6},{""cat"":3,""src"":13,""loc"":1},{""cat"":3,""src"":9,""loc"":4}]","4","1103,1101,1102,1101,1102,1102,1101,1102,1101,10001",NA,NA,NA,NA,NA,NA,NA,NA,NA
"959","flanker_instructions","74","html-keyboard-response","141","982466","0.0-4.0-77.0","1","2020-1-6 11:40:40","MONKEY",NA,NA,NA,NA,NA,NA,NA,NA,NA,NA,NA,NA,NA,NA
NA,"flanker_test",NA,"image-keyboard-response","142","984371","0.0-4.0-78.0-0.0","1","2020-1-6 11:40:40","MONKEY",NA,NA,NA,NA,NA,"congruent","left","FALSE",NA,NA,NA,NA,NA,NA
NA,"flanker_test",NA,"image-keyboard-response","143","985596","0.0-4.0-78.0-0.1","1","2020-1-6 11:40:40","MONKEY",NA,NA,NA,NA,NA,"incongruent","left","FALSE",NA,NA,NA,NA,NA,NA
NA,"flanker_test",NA,"image-keyboard-response","144","987335","0.0-4.0-78.0-0.2","1","2020-1-6 11:40:40","MONKEY",NA,NA,NA,NA,NA,"incongruent","right","FALSE",NA,NA,NA,NA,NA,NA
NA,"flanker_test",NA,"image-keyboard-response","145","988972","0.0-4.0-78.0-0.3","1","2020-1-6 11:40:40","MONKEY",NA,NA,NA,NA,NA,"congruent","right","FALSE",NA,NA,NA,NA,NA,NA
"22411","sort_trial",NA,"free-sort","146","1012134","0.0-4.0-79.0","1","2020-1-6 11:40:40","MONKEY",NA,NA,NA,NA,NA,NA,NA,NA,"[{""cat"":24,""src"":8,""x"":30,""y"":125},{""cat"":24,""src"":0,""x"":7,""y"":16},{""cat"":24,""src"":5,""x"":43,""y"":428},{""cat"":30,""src"":18,""x"":72,""y"":481},{""cat"":30,""src"":9,""x"":73,""y"":246},{""cat"":30,""src"":15,""x"":8,""y"":67},{""cat"":3,""src"":3,""x"":56,""y"":310},{""cat"":3,""src"":13,""x"":34,""y"":185},{""cat"":3,""src"":9,""x"":11,""y"":387}]","[{""cat"":""30"",""src"":""18"",""x"":0,""y"":0},{""cat"":""24"",""src"":""8"",""x"":0,""y"":0},{""cat"":""30"",""src"":""9"",""x"":0,""y"":0},{""cat"":""24"",""src"":""0"",""x"":0,""y"":0},{""cat"":""30"",""src"":""15"",""x"":0,""y"":0},{""cat"":""24"",""src"":""5"",""x"":0,""y"":0},{""cat"":""3"",""src"":""9"",""x"":0,""y"":0},{""cat"":""3"",""src"":""13"",""x"":0,""y"":0},{""cat"":""3"",""src"":""3"",""x"":788,""y"":117},{""cat"":""3"",""src"":""3"",""x"":0,""y"":0}]","[{""cat"":30,""src"":18,""loc"":0},{""cat"":24,""src"":8,""loc"":2},{""cat"":30,""src"":9,""loc"":7},{""cat"":24,""src"":0,""loc"":8},{""cat"":30,""src"":15,""loc"":5},{""cat"":24,""src"":5,""loc"":3},{""cat"":3,""src"":9,""loc"":6},{""cat"":3,""src"":13,""loc"":1},{""cat"":3,""src"":3,""loc"":4}]","7","30,3,24,24,3,30,3,30,24,18,13,8,5,3,15,9,9,0,0,1,2,3,4,5,6,7,8,0,7,1,5,8,4,6,2,3",NA
"1504","sort_feedback","32","html-keyboard-response","147","1013639","0.0-4.0-80.0","1","2020-1-6 11:40:40","MONKEY",NA,NA,NA,NA,NA,NA,NA,NA,NA,NA,NA,NA,NA,NA
"19918","setup5",NA,"animation","148","1033558","0.0-4.0-81.0","1","2020-1-6 11:40:40","MONKEY",NA,NA,"[{""cat"":23,""src"":15,""loc"":7},{""cat"":15,""src"":5,""loc"":0},{""cat"":0,""src"":11,""loc"":4},{""cat"":0,""src"":5,""loc"":2},{""cat"":23,""src"":17,""loc"":3},{""cat"":15,""src"":8,""loc"":6},{""cat"":15,""src"":2,""loc"":5},{""cat"":0,""src"":0,""loc"":8},{""cat"":23,""src"":8,""loc"":1}]","5","1103,1101,1101,1102,1101,1102,1102,1102,1103,10001",NA,NA,NA,NA,NA,NA,NA,NA,NA
"412","flanker_instructions","75","html-keyboard-response","149","1033971","0.0-4.0-82.0","1","2020-1-6 11:40:40","MONKEY",NA,NA,NA,NA,NA,NA,NA,NA,NA,NA,NA,NA,NA,NA
NA,"flanker_test",NA,"image-keyboard-response","150","1036204","0.0-4.0-83.0-0.0","1","2020-1-6 11:40:40","MONKEY",NA,NA,NA,NA,NA,"congruent","right","FALSE",NA,NA,NA,NA,NA,NA
NA,"flanker_test",NA,"image-keyboard-response","151","1037680","0.0-4.0-83.0-0.1","1","2020-1-6 11:40:40","MONKEY",NA,NA,NA,NA,NA,"incongruent","right","FALSE",NA,NA,NA,NA,NA,NA
NA,"flanker_test",NA,"image-keyboard-response","152","1039307","0.0-4.0-83.0-0.2","1","2020-1-6 11:40:40","MONKEY",NA,NA,NA,NA,NA,"incongruent","left","FALSE",NA,NA,NA,NA,NA,NA
NA,"flanker_test",NA,"image-keyboard-response","153","1040762","0.0-4.0-83.0-0.3","1","2020-1-6 11:40:40","MONKEY",NA,NA,NA,NA,NA,"congruent","left","FALSE",NA,NA,NA,NA,NA,NA
"25493","sort_trial",NA,"free-sort","154","1066606","0.0-4.0-84.0","1","2020-1-6 11:40:40","MONKEY",NA,NA,NA,NA,NA,NA,NA,NA,"[{""cat"":23,""src"":15,""x"":78,""y"":139},{""cat"":15,""src"":5,""x"":0,""y"":249},{""cat"":0,""src"":11,""x"":45,""y"":377},{""cat"":0,""src"":5,""x"":2,""y"":7},{""cat"":23,""src"":17,""x"":81,""y"":484},{""cat"":15,""src"":8,""x"":7,""y"":300},{""cat"":15,""src"":2,""x"":54,""y"":443},{""cat"":0,""src"":0,""x"":47,""y"":87},{""cat"":23,""src"":8,""x"":80,""y"":201}]","[{""cat"":""15"",""src"":""5"",""x"":0,""y"":0},{""cat"":""0"",""src"":""5"",""x"":0,""y"":0},{""cat"":""15"",""src"":""8"",""x"":0,""y"":0},{""cat"":""23"",""src"":""15"",""x"":0,""y"":0},{""cat"":""0"",""src"":""0"",""x"":0,""y"":0},{""cat"":""15"",""src"":""2"",""x"":0,""y"":0},{""cat"":""0"",""src"":""11"",""x"":0,""y"":0},{""cat"":""23"",""src"":""17"",""x"":742,""y"":207},{""cat"":""23"",""src"":""8"",""x"":0,""y"":0},{""cat"":""23"",""src"":""17"",""x"":0,""y"":0}]","[{""cat"":15,""src"":5,""loc"":0},{""cat"":0,""src"":5,""loc"":2},{""cat"":15,""src"":8,""loc"":6},{""cat"":23,""src"":15,""loc"":7},{""cat"":0,""src"":0,""loc"":8},{""cat"":15,""src"":2,""loc"":5},{""cat"":0,""src"":11,""loc"":4},{""cat"":23,""src"":8,""loc"":1},{""cat"":23,""src"":17,""loc"":3}]","9","15,23,0,23,0,15,15,23,0,5,8,5,17,11,2,8,15,0,0,1,2,3,4,5,6,7,8,0,7,1,8,6,5,2,3,4",NA
"1807","sort_feedback","66","html-keyboard-response","155","1068414","0.0-4.0-85.0","1","2020-1-6 11:40:40","MONKEY",NA,NA,NA,NA,NA,NA,NA,NA,NA,NA,NA,NA,NA,NA
"20882","setup2",NA,"animation","156","1089298","0.0-4.0-86.0","1","2020-1-6 11:40:40","MONKEY",NA,NA,"[{""cat"":18,""src"":8,""loc"":6},{""cat"":4,""src"":8,""loc"":7},{""cat"":32,""src"":10,""loc"":8},{""cat"":18,""src"":15,""loc"":5},{""cat"":32,""src"":1,""loc"":3},{""cat"":4,""src"":15,""loc"":4},{""cat"":4,""src"":18,""loc"":2},{""cat"":18,""src"":18,""loc"":1},{""cat"":32,""src"":5,""loc"":0}]","2","1103,1103,1102,1102,1102,1102,1101,1102,2065,10000",NA,NA,NA,NA,NA,NA,NA,NA,NA
"1184","flanker_instructions","75","html-keyboard-response","157","1090484","0.0-4.0-87.0","1","2020-1-6 11:40:40","MONKEY",NA,NA,NA,NA,NA,NA,NA,NA,NA,NA,NA,NA,NA,NA
NA,"flanker_test",NA,"image-keyboard-response","158","1092388","0.0-4.0-88.0-0.0","1","2020-1-6 11:40:40","MONKEY",NA,NA,NA,NA,NA,"incongruent","left","FALSE",NA,NA,NA,NA,NA,NA
NA,"flanker_test",NA,"image-keyboard-response","159","1094350","0.0-4.0-88.0-0.1","1","2020-1-6 11:40:40","MONKEY",NA,NA,NA,NA,NA,"congruent","left","FALSE",NA,NA,NA,NA,NA,NA
NA,"flanker_test",NA,"image-keyboard-response","160","1096278","0.0-4.0-88.0-0.2","1","2020-1-6 11:40:40","MONKEY",NA,NA,NA,NA,NA,"congruent","right","FALSE",NA,NA,NA,NA,NA,NA
NA,"flanker_test",NA,"image-keyboard-response","161","1097842","0.0-4.0-88.0-0.3","1","2020-1-6 11:40:40","MONKEY",NA,NA,NA,NA,NA,"incongruent","right","FALSE",NA,NA,NA,NA,NA,NA
"18604","sort_trial",NA,"free-sort","162","1116973","0.0-4.0-89.0","1","2020-1-6 11:40:40","MONKEY",NA,NA,NA,NA,NA,NA,NA,NA,"[{""cat"":18,""src"":8,""x"":15,""y"":361},{""cat"":4,""src"":8,""x"":20,""y"":73},{""cat"":32,""src"":10,""x"":81,""y"":309},{""cat"":18,""src"":15,""x"":74,""y"":146},{""cat"":32,""src"":1,""x"":3,""y"":259},{""cat"":4,""src"":15,""x"":33,""y"":192},{""cat"":4,""src"":18,""x"":76,""y"":432},{""cat"":18,""src"":18,""x"":9,""y"":9},{""cat"":32,""src"":5,""x"":20,""y"":487}]","[{""cat"":""18"",""src"":""8"",""x"":0,""y"":0},{""cat"":""4"",""src"":""8"",""x"":0,""y"":0},{""cat"":""32"",""src"":""10"",""x"":0,""y"":0},{""cat"":""32"",""src"":""1"",""x"":0,""y"":0},{""cat"":""18"",""src"":""15"",""x"":0,""y"":0},{""cat"":""4"",""src"":""15"",""x"":0,""y"":0},{""cat"":""18"",""src"":""18"",""x"":0,""y"":0},{""cat"":""4"",""src"":""18"",""x"":0,""y"":0},{""cat"":""32"",""src"":""5"",""x"":0,""y"":0}]","[{""cat"":18,""src"":8,""loc"":6},{""cat"":4,""src"":8,""loc"":7},{""cat"":32,""src"":10,""loc"":8},{""cat"":32,""src"":1,""loc"":3},{""cat"":18,""src"":15,""loc"":5},{""cat"":4,""src"":15,""loc"":4},{""cat"":18,""src"":18,""loc"":1},{""cat"":4,""src"":18,""loc"":0},{""cat"":32,""src"":5,""loc"":2}]","7","4,18,32,32,4,18,18,4,32,18,18,5,1,15,15,8,8,10,0,1,2,3,4,5,6,7,8,7,6,8,3,5,4,0,1,2",NA
"2023","sort_feedback","74","html-keyboard-response","163","1118998","0.0-4.0-90.0","1","2020-1-6 11:40:40","MONKEY",NA,NA,NA,NA,NA,NA,NA,NA,NA,NA,NA,NA,NA,NA
"19918","setup1",NA,"animation","164","1138917","0.0-4.0-91.0","1","2020-1-6 11:40:40","MONKEY",NA,NA,"[{""cat"":0,""src"":1,""loc"":4},{""cat"":0,""src"":3,""loc"":3},{""cat"":0,""src"":10,""loc"":5},{""cat"":22,""src"":6,""loc"":0},{""cat"":22,""src"":2,""loc"":1},{""cat"":22,""src"":14,""loc"":2},{""cat"":21,""src"":3,""loc"":8},{""cat"":21,""src"":14,""loc"":7},{""cat"":21,""src"":15,""loc"":6}]","1","1102,1102,1101,1102,1101,1103,1101,1102,1102,10002",NA,NA,NA,NA,NA,NA,NA,NA,NA
"470","flanker_instructions","75","html-keyboard-response","165","1139388","0.0-4.0-92.0","1","2020-1-6 11:40:40","MONKEY",NA,NA,NA,NA,NA,NA,NA,NA,NA,NA,NA,NA,NA,NA
NA,"flanker_test",NA,"image-keyboard-response","166","1141291","0.0-4.0-93.0-0.0","1","2020-1-6 11:40:40","MONKEY",NA,NA,NA,NA,NA,"incongruent","left","FALSE",NA,NA,NA,NA,NA,NA
NA,"flanker_test",NA,"image-keyboard-response","167","1143132","0.0-4.0-93.0-0.1","1","2020-1-6 11:40:40","MONKEY",NA,NA,NA,NA,NA,"incongruent","right","FALSE",NA,NA,NA,NA,NA,NA
NA,"flanker_test",NA,"image-keyboard-response","168","1144708","0.0-4.0-93.0-0.2","1","2020-1-6 11:40:40","MONKEY",NA,NA,NA,NA,NA,"congruent","left","FALSE",NA,NA,NA,NA,NA,NA
NA,"flanker_test",NA,"image-keyboard-response","169","1146137","0.0-4.0-93.0-0.3","1","2020-1-6 11:40:40","MONKEY",NA,NA,NA,NA,NA,"congruent","right","FALSE",NA,NA,NA,NA,NA,NA
"15961","sort_trial",NA,"free-sort","170","1162741","0.0-4.0-94.0","1","2020-1-6 11:40:40","MONKEY",NA,NA,NA,NA,NA,NA,NA,NA,"[{""cat"":0,""src"":1,""x"":49,""y"":309},{""cat"":0,""src"":3,""x"":68,""y"":61},{""cat"":0,""src"":10,""x"":48,""y"":387},{""cat"":22,""src"":6,""x"":37,""y"":249},{""cat"":22,""src"":2,""x"":41,""y"":490},{""cat"":22,""src"":14,""x"":70,""y"":15},{""cat"":21,""src"":3,""x"":60,""y"":202},{""cat"":21,""src"":14,""x"":1,""y"":133},{""cat"":21,""src"":15,""x"":54,""y"":432}]","[{""cat"":""22"",""src"":""6"",""x"":0,""y"":0},{""cat"":""22"",""src"":""2"",""x"":0,""y"":0},{""cat"":""22"",""src"":""14"",""x"":0,""y"":0},{""cat"":""21"",""src"":""3"",""x"":0,""y"":0},{""cat"":""0"",""src"":""10"",""x"":0,""y"":0},{""cat"":""21"",""src"":""14"",""x"":0,""y"":0},{""cat"":""0"",""src"":""1"",""x"":0,""y"":0},{""cat"":""0"",""src"":""3"",""x"":0,""y"":0},{""cat"":""21"",""src"":""15"",""x"":0,""y"":0}]","[{""cat"":22,""src"":6,""loc"":0},{""cat"":22,""src"":2,""loc"":1},{""cat"":22,""src"":14,""loc"":2},{""cat"":21,""src"":3,""loc"":8},{""cat"":0,""src"":10,""loc"":5},{""cat"":21,""src"":14,""loc"":7},{""cat"":0,""src"":1,""loc"":4},{""cat"":0,""src"":3,""loc"":3},{""cat"":21,""src"":15,""loc"":6}]","9","22,22,22,0,0,0,21,21,21,6,2,14,3,1,10,15,14,3,0,1,2,3,4,5,6,7,8,0,1,2,7,6,4,8,5,3",NA
"1422","sort_feedback","74","html-keyboard-response","171","1164164","0.0-4.0-95.0","1","2020-1-6 11:40:40","MONKEY",NA,NA,NA,NA,NA,NA,NA,NA,NA,NA,NA,NA,NA,NA
"19917","setup3",NA,"animation","172","1184082","0.0-4.0-96.0","1","2020-1-6 11:40:40","MONKEY",NA,NA,"[{""cat"":15,""src"":11,""loc"":4},{""cat"":14,""src"":13,""loc"":6},{""cat"":17,""src"":4,""loc"":1},{""cat"":14,""src"":8,""loc"":7},{""cat"":15,""src"":9,""loc"":5},{""cat"":17,""src"":7,""loc"":0},{""cat"":15,""src"":14,""loc"":3},{""cat"":17,""src"":19,""loc"":2},{""cat"":14,""src"":18,""loc"":8}]","3","1102,1101,1102,1102,1102,1102,1102,1101,1102,10001",NA,NA,NA,NA,NA,NA,NA,NA,NA
"960","flanker_instructions","66","html-keyboard-response","173","1185044","0.0-4.0-97.0","1","2020-1-6 11:40:40","MONKEY",NA,NA,NA,NA,NA,NA,NA,NA,NA,NA,NA,NA,NA,NA
NA,"flanker_test",NA,"image-keyboard-response","174","1186948","0.0-4.0-98.0-0.0","1","2020-1-6 11:40:40","MONKEY",NA,NA,NA,NA,NA,"congruent","right","FALSE",NA,NA,NA,NA,NA,NA
NA,"flanker_test",NA,"image-keyboard-response","175","1188808","0.0-4.0-98.0-0.1","1","2020-1-6 11:40:40","MONKEY",NA,NA,NA,NA,NA,"congruent","left","FALSE",NA,NA,NA,NA,NA,NA
NA,"flanker_test",NA,"image-keyboard-response","176","1190750","0.0-4.0-98.0-0.2","1","2020-1-6 11:40:40","MONKEY",NA,NA,NA,NA,NA,"incongruent","right","FALSE",NA,NA,NA,NA,NA,NA
NA,"flanker_test",NA,"image-keyboard-response","177","1192843","0.0-4.0-98.0-0.3","1","2020-1-6 11:40:40","MONKEY",NA,NA,NA,NA,NA,"incongruent","left","FALSE",NA,NA,NA,NA,NA,NA
"15447","sort_trial",NA,"free-sort","178","1209460","0.0-4.0-99.0","1","2020-1-6 11:40:40","MONKEY",NA,NA,NA,NA,NA,NA,NA,NA,"[{""cat"":15,""src"":11,""x"":15,""y"":137},{""cat"":14,""src"":13,""x"":28,""y"":387},{""cat"":17,""src"":4,""x"":44,""y"":495},{""cat"":14,""src"":8,""x"":15,""y"":437},{""cat"":15,""src"":9,""x"":19,""y"":25},{""cat"":17,""src"":7,""x"":38,""y"":63},{""cat"":15,""src"":14,""x"":26,""y"":314},{""cat"":17,""src"":19,""x"":46,""y"":181},{""cat"":14,""src"":18,""x"":65,""y"":258}]","[{""cat"":""14"",""src"":""18"",""x"":0,""y"":0},{""cat"":""15"",""src"":""11"",""x"":863,""y"":145},{""cat"":""15"",""src"":""11"",""x"":0,""y"":0},{""cat"":""17"",""src"":""4"",""x"":0,""y"":0},{""cat"":""14"",""src"":""8"",""x"":0,""y"":0},{""cat"":""17"",""src"":""7"",""x"":0,""y"":0},{""cat"":""17"",""src"":""19"",""x"":0,""y"":0},{""cat"":""15"",""src"":""14"",""x"":345,""y"":276},{""cat"":""14"",""src"":""13"",""x"":0,""y"":0},{""cat"":""15"",""src"":""14"",""x"":0,""y"":0},{""cat"":""15"",""src"":""9"",""x"":0,""y"":0}]","[{""cat"":14,""src"":18,""loc"":8},{""cat"":15,""src"":11,""loc"":4},{""cat"":17,""src"":4,""loc"":1},{""cat"":14,""src"":8,""loc"":7},{""cat"":17,""src"":7,""loc"":0},{""cat"":17,""src"":19,""loc"":2},{""cat"":14,""src"":13,""loc"":5},{""cat"":15,""src"":14,""loc"":6},{""cat"":15,""src"":9,""loc"":3}]","6","17,17,17,15,15,14,15,14,14,7,4,19,9,11,13,14,8,18,0,1,2,3,4,5,6,7,8,4,2,5,8,1,6,7,3,0",NA
"1493","sort_feedback","74","html-keyboard-response","179","1210955","0.0-4.0-100.0","1","2020-1-6 11:40:40","MONKEY",NA,NA,NA,NA,NA,NA,NA,NA,NA,NA,NA,NA,NA,NA
NA,"breakStart",NA,"html-keyboard-response","180","1240957","0.0-5.0-0.0","1","2020-1-6 11:40:40","MONKEY",NA,NA,NA,NA,NA,NA,NA,NA,NA,NA,NA,NA,NA,NA
"1292","breakEnd",NA,"html-button-response","181","1242252","0.0-5.0-1.0","1","2020-1-6 11:40:40","MONKEY","0",NA,NA,NA,NA,NA,NA,NA,NA,NA,NA,NA,NA,NA
"19914","setup2",NA,"animation","182","1262167","0.0-6.0-0.0","1","2020-1-6 11:40:40","MONKEY",NA,NA,"[{""cat"":31,""src"":14,""loc"":5},{""cat"":0,""src"":4,""loc"":3},{""cat"":22,""src"":19,""loc"":4},{""cat"":22,""src"":14,""loc"":6},{""cat"":0,""src"":18,""loc"":7},{""cat"":31,""src"":5,""loc"":8},{""cat"":0,""src"":12,""loc"":0},{""cat"":31,""src"":18,""loc"":2},{""cat"":22,""src"":12,""loc"":1}]","2","1102,1102,1101,1102,1101,1102,1101,1102,1101,10000",NA,NA,NA,NA,NA,NA,NA,NA,NA
"199","flanker_instructions","70","html-keyboard-response","183","1262367","0.0-6.0-1.0","1","2020-1-6 11:40:40","MONKEY",NA,NA,NA,NA,NA,NA,NA,NA,NA,NA,NA,NA,NA,NA
NA,"flanker_test",NA,"image-keyboard-response","184","1264271","0.0-6.0-2.0-0.0","1","2020-1-6 11:40:40","MONKEY",NA,NA,NA,NA,NA,"congruent","left","FALSE",NA,NA,NA,NA,NA,NA
NA,"flanker_test",NA,"image-keyboard-response","185","1265559","0.0-6.0-2.0-0.1","1","2020-1-6 11:40:40","MONKEY",NA,NA,NA,NA,NA,"incongruent","right","FALSE",NA,NA,NA,NA,NA,NA
NA,"flanker_test",NA,"image-keyboard-response","186","1267657","0.0-6.0-2.0-0.2","1","2020-1-6 11:40:40","MONKEY",NA,NA,NA,NA,NA,"congruent","right","FALSE",NA,NA,NA,NA,NA,NA
NA,"flanker_test",NA,"image-keyboard-response","187","1269271","0.0-6.0-2.0-0.3","1","2020-1-6 11:40:40","MONKEY",NA,NA,NA,NA,NA,"incongruent","left","FALSE",NA,NA,NA,NA,NA,NA
"48651","sort_trial",NA,"free-sort","188","1318539","0.0-6.0-3.0","1","2020-1-6 11:40:40","MONKEY",NA,NA,NA,NA,NA,NA,NA,NA,"[{""cat"":31,""src"":14,""x"":2,""y"":486},{""cat"":0,""src"":4,""x"":26,""y"":437},{""cat"":22,""src"":19,""x"":78,""y"":253},{""cat"":22,""src"":14,""x"":49,""y"":1},{""cat"":0,""src"":18,""x"":57,""y"":191},{""cat"":31,""src"":5,""x"":76,""y"":324},{""cat"":0,""src"":12,""x"":5,""y"":369},{""cat"":31,""src"":18,""x"":76,""y"":136},{""cat"":22,""src"":12,""x"":70,""y"":77}]","[{""cat"":""31"",""src"":""5"",""x"":0,""y"":0},{""cat"":""22"",""src"":""14"",""x"":0,""y"":0},{""cat"":""0"",""src"":""18"",""x"":0,""y"":0},{""cat"":""31"",""src"":""14"",""x"":0,""y"":0},{""cat"":""22"",""src"":""19"",""x"":0,""y"":0},{""cat"":""0"",""src"":""4"",""x"":0,""y"":0},{""cat"":""31"",""src"":""18"",""x"":0,""y"":0},{""cat"":""0"",""src"":""12"",""x"":0,""y"":0},{""cat"":""22"",""src"":""12"",""x"":0,""y"":0}]","[{""cat"":31,""src"":5,""loc"":8},{""cat"":22,""src"":14,""loc"":6},{""cat"":0,""src"":18,""loc"":7},{""cat"":31,""src"":14,""loc"":5},{""cat"":22,""src"":19,""loc"":4},{""cat"":0,""src"":4,""loc"":3},{""cat"":31,""src"":18,""loc"":2},{""cat"":0,""src"":12,""loc"":0},{""cat"":22,""src"":12,""loc"":1}]","9","0,22,31,0,22,31,22,0,31,12,12,18,4,19,14,14,18,5,0,1,2,3,4,5,6,7,8,7,8,6,5,4,3,1,2,0",NA
"1637","sort_feedback","75","html-keyboard-response","189","1320179","0.0-6.0-4.0","1","2020-1-6 11:40:40","MONKEY",NA,NA,NA,NA,NA,NA,NA,NA,NA,NA,NA,NA,NA,NA
"19916","setup1",NA,"animation","190","1340096","0.0-6.0-5.0","1","2020-1-6 11:40:40","MONKEY",NA,NA,"[{""cat"":8,""src"":13,""loc"":4},{""cat"":8,""src"":9,""loc"":3},{""cat"":8,""src"":14,""loc"":5},{""cat"":14,""src"":10,""loc"":6},{""cat"":14,""src"":13,""loc"":7},{""cat"":14,""src"":2,""loc"":8},{""cat"":2,""src"":13,""loc"":2},{""cat"":2,""src"":12,""loc"":1},{""cat"":2,""src"":14,""loc"":0}]","1","1102,1102,1101,1102,1102,1102,1101,1101,1102,10001",NA,NA,NA,NA,NA,NA,NA,NA,NA
"420","flanker_instructions","75","html-keyboard-response","191","1340518","0.0-6.0-6.0","1","2020-1-6 11:40:40","MONKEY",NA,NA,NA,NA,NA,NA,NA,NA,NA,NA,NA,NA,NA,NA
NA,"flanker_test",NA,"image-keyboard-response","192","1342422","0.0-6.0-7.0-0.0","1","2020-1-6 11:40:40","MONKEY",NA,NA,NA,NA,NA,"congruent","left","FALSE",NA,NA,NA,NA,NA,NA
NA,"flanker_test",NA,"image-keyboard-response","193","1343754","0.0-6.0-7.0-0.1","1","2020-1-6 11:40:40","MONKEY",NA,NA,NA,NA,NA,"congruent","right","FALSE",NA,NA,NA,NA,NA,NA
NA,"flanker_test",NA,"image-keyboard-response","194","1345816","0.0-6.0-7.0-0.2","1","2020-1-6 11:40:40","MONKEY",NA,NA,NA,NA,NA,"incongruent","right","FALSE",NA,NA,NA,NA,NA,NA
NA,"flanker_test",NA,"image-keyboard-response","195","1347719","0.0-6.0-7.0-0.3","1","2020-1-6 11:40:40","MONKEY",NA,NA,NA,NA,NA,"incongruent","left","FALSE",NA,NA,NA,NA,NA,NA
"17192","sort_trial",NA,"free-sort","196","1366010","0.0-6.0-8.0","1","2020-1-6 11:40:40","MONKEY",NA,NA,NA,NA,NA,NA,NA,NA,"[{""cat"":8,""src"":13,""x"":65,""y"":325},{""cat"":8,""src"":9,""x"":62,""y"":490},{""cat"":8,""src"":14,""x"":7,""y"":11},{""cat"":14,""src"":10,""x"":22,""y"":373},{""cat"":14,""src"":13,""x"":44,""y"":182},{""cat"":14,""src"":2,""x"":72,""y"":247},{""cat"":2,""src"":13,""x"":17,""y"":132},{""cat"":2,""src"":12,""x"":16,""y"":421},{""cat"":2,""src"":14,""x"":77,""y"":85}]","[{""cat"":""14"",""src"":""13"",""x"":0,""y"":0},{""cat"":""14"",""src"":""10"",""x"":0,""y"":0},{""cat"":""14"",""src"":""2"",""x"":0,""y"":0},{""cat"":""8"",""src"":""9"",""x"":0,""y"":0},{""cat"":""8"",""src"":""13"",""x"":0,""y"":0},{""cat"":""8"",""src"":""14"",""x"":0,""y"":0},{""cat"":""2"",""src"":""12"",""x"":0,""y"":0},{""cat"":""2"",""src"":""13"",""x"":327,""y"":167},{""cat"":""2"",""src"":""14"",""x"":0,""y"":0},{""cat"":""2"",""src"":""13"",""x"":0,""y"":0}]","[{""cat"":14,""src"":13,""loc"":7},{""cat"":14,""src"":10,""loc"":6},{""cat"":14,""src"":2,""loc"":8},{""cat"":8,""src"":9,""loc"":3},{""cat"":8,""src"":13,""loc"":4},{""cat"":8,""src"":14,""loc"":5},{""cat"":2,""src"":12,""loc"":0},{""cat"":2,""src"":14,""loc"":1},{""cat"":2,""src"":13,""loc"":2}]","7","2,2,2,8,8,8,14,14,14,12,14,13,9,13,14,10,13,2,0,1,2,3,4,5,6,7,8,6,7,8,3,4,5,1,0,2",NA
"1301","sort_feedback","75","html-keyboard-response","197","1367313","0.0-6.0-9.0","1","2020-1-6 11:40:40","MONKEY",NA,NA,NA,NA,NA,NA,NA,NA,NA,NA,NA,NA,NA,NA
"19915","setup4",NA,"animation","198","1387228","0.0-6.0-10.0","1","2020-1-6 11:40:40","MONKEY",NA,NA,"[{""cat"":20,""src"":15,""loc"":0},{""cat"":20,""src"":8,""loc"":7},{""cat"":20,""src"":11,""loc"":4},{""cat"":3,""src"":13,""loc"":6},{""cat"":3,""src"":15,""loc"":1},{""cat"":3,""src"":8,""loc"":3},{""cat"":24,""src"":12,""loc"":8},{""cat"":24,""src"":17,""loc"":5},{""cat"":24,""src"":1,""loc"":2}]","4","1102,1102,1101,1102,1102,1101,1101,1101,1103,10000",NA,NA,NA,NA,NA,NA,NA,NA,NA
"616","flanker_instructions","75","html-keyboard-response","199","1387845","0.0-6.0-11.0","1","2020-1-6 11:40:40","MONKEY",NA,NA,NA,NA,NA,NA,NA,NA,NA,NA,NA,NA,NA,NA
NA,"flanker_test",NA,"image-keyboard-response","200","1389748","0.0-6.0-12.0-0.0","1","2020-1-6 11:40:40","MONKEY",NA,NA,NA,NA,NA,"incongruent","left","FALSE",NA,NA,NA,NA,NA,NA
NA,"flanker_test",NA,"image-keyboard-response","201","1391255","0.0-6.0-12.0-0.1","1","2020-1-6 11:40:40","MONKEY",NA,NA,NA,NA,NA,"congruent","left","FALSE",NA,NA,NA,NA,NA,NA
NA,"flanker_test",NA,"image-keyboard-response","202","1392535","0.0-6.0-12.0-0.2","1","2020-1-6 11:40:40","MONKEY",NA,NA,NA,NA,NA,"incongruent","right","FALSE",NA,NA,NA,NA,NA,NA
NA,"flanker_test",NA,"image-keyboard-response","203","1394042","0.0-6.0-12.0-0.3","1","2020-1-6 11:40:40","MONKEY",NA,NA,NA,NA,NA,"congruent","right","FALSE",NA,NA,NA,NA,NA,NA
"24013","sort_trial",NA,"free-sort","204","1418961","0.0-6.0-13.0","1","2020-1-6 11:40:40","MONKEY",NA,NA,NA,NA,NA,NA,NA,NA,"[{""cat"":20,""src"":15,""x"":8,""y"":240},{""cat"":20,""src"":8,""x"":4,""y"":383},{""cat"":20,""src"":11,""x"":0,""y"":120},{""cat"":3,""src"":13,""x"":15,""y"":19},{""cat"":3,""src"":15,""x"":34,""y"":434},{""cat"":3,""src"":8,""x"":58,""y"":320},{""cat"":24,""src"":12,""x"":1,""y"":201},{""cat"":24,""src"":17,""x"":20,""y"":490},{""cat"":24,""src"":1,""x"":14,""y"":88}]","[{""cat"":""20"",""src"":""15"",""x"":0,""y"":0},{""cat"":""3"",""src"":""15"",""x"":398,""y"":81},{""cat"":""3"",""src"":""15"",""x"":0,""y"":0},{""cat"":""20"",""src"":""8"",""x"":0,""y"":0},{""cat"":""3"",""src"":""13"",""x"":0,""y"":0},{""cat"":""20"",""src"":""11"",""x"":0,""y"":0},{""cat"":""3"",""src"":""8"",""x"":0,""y"":0},{""cat"":""24"",""src"":""12"",""x"":471,""y"":320},{""cat"":""24"",""src"":""17"",""x"":413,""y"":236},{""cat"":""24"",""src"":""12"",""x"":394,""y"":169},{""cat"":""24"",""src"":""17"",""x"":0,""y"":0},{""cat"":""24"",""src"":""12"",""x"":0,""y"":0},{""cat"":""24"",""src"":""1"",""x"":0,""y"":0}]","[{""cat"":20,""src"":15,""loc"":0},{""cat"":3,""src"":15,""loc"":1},{""cat"":20,""src"":8,""loc"":7},{""cat"":3,""src"":13,""loc"":6},{""cat"":20,""src"":11,""loc"":4},{""cat"":3,""src"":8,""loc"":3},{""cat"":24,""src"":17,""loc"":8},{""cat"":24,""src"":12,""loc"":2},{""cat"":24,""src"":1,""loc"":5}]","6","20,3,24,3,20,24,3,20,24,15,15,12,8,11,1,13,8,17,0,1,2,3,4,5,6,7,8,0,1,7,5,4,8,3,2,6",NA
"1288","sort_feedback","75","html-keyboard-response","205","1420251","0.0-6.0-14.0","1","2020-1-6 11:40:40","MONKEY",NA,NA,NA,NA,NA,NA,NA,NA,NA,NA,NA,NA,NA,NA
"21671","setup3",NA,"animation","206","1441922","0.0-6.0-15.0","1","2020-1-6 11:40:40","MONKEY",NA,NA,"[{""cat"":20,""src"":12,""loc"":7},{""cat"":13,""src"":16,""loc"":1},{""cat"":19,""src"":9,""loc"":3},{""cat"":19,""src"":0,""loc"":4},{""cat"":13,""src"":15,""loc"":0},{""cat"":20,""src"":10,""loc"":6},{""cat"":19,""src"":10,""loc"":5},{""cat"":20,""src"":14,""loc"":8},{""cat"":13,""src"":6,""loc"":2}]","3","1103,1945,2010,1102,1102,1102,1102,1101,1103,10001",NA,NA,NA,NA,NA,NA,NA,NA,NA
"328","flanker_instructions","32","html-keyboard-response","207","1442251","0.0-6.0-16.0","1","2020-1-6 11:40:40","MONKEY",NA,NA,NA,NA,NA,NA,NA,NA,NA,NA,NA,NA,NA,NA
NA,"flanker_test",NA,"image-keyboard-response","208","1444154","0.0-6.0-17.0-0.0","1","2020-1-6 11:40:40","MONKEY",NA,NA,NA,NA,NA,"congruent","right","FALSE",NA,NA,NA,NA,NA,NA
NA,"flanker_test",NA,"image-keyboard-response","209","1445649","0.0-6.0-17.0-0.1","1","2020-1-6 11:40:40","MONKEY",NA,NA,NA,NA,NA,"congruent","left","FALSE",NA,NA,NA,NA,NA,NA
NA,"flanker_test",NA,"image-keyboard-response","210","1447131","0.0-6.0-17.0-0.2","1","2020-1-6 11:40:40","MONKEY",NA,NA,NA,NA,NA,"incongruent","left","FALSE",NA,NA,NA,NA,NA,NA
NA,"flanker_test",NA,"image-keyboard-response","211","1449001","0.0-6.0-17.0-0.3","1","2020-1-6 11:40:40","MONKEY",NA,NA,NA,NA,NA,"incongruent","right","FALSE",NA,NA,NA,NA,NA,NA
"23133","sort_trial",NA,"free-sort","212","1472841","0.0-6.0-18.0","1","2020-1-6 11:40:40","MONKEY",NA,NA,NA,NA,NA,NA,NA,NA,"[{""cat"":20,""src"":12,""x"":10,""y"":132},{""cat"":13,""src"":16,""x"":15,""y"":256},{""cat"":19,""src"":9,""x"":77,""y"":19},{""cat"":19,""src"":0,""x"":39,""y"":187},{""cat"":13,""src"":15,""x"":53,""y"":483},{""cat"":20,""src"":10,""x"":35,""y"":444},{""cat"":19,""src"":10,""x"":70,""y"":68},{""cat"":20,""src"":14,""x"":37,""y"":370},{""cat"":13,""src"":6,""x"":54,""y"":304}]","[{""cat"":""20"",""src"":""10"",""x"":0,""y"":0},{""cat"":""20"",""src"":""12"",""x"":0,""y"":0},{""cat"":""13"",""src"":""15"",""x"":0,""y"":0},{""cat"":""13"",""src"":""16"",""x"":0,""y"":0},{""cat"":""13"",""src"":""6"",""x"":0,""y"":0},{""cat"":""20"",""src"":""14"",""x"":0,""y"":0},{""cat"":""19"",""src"":""9"",""x"":0,""y"":0},{""cat"":""19"",""src"":""10"",""x"":676,""y"":163},{""cat"":""19"",""src"":""0"",""x"":0,""y"":0},{""cat"":""19"",""src"":""10"",""x"":0,""y"":0}]","[{""cat"":20,""src"":10,""loc"":6},{""cat"":20,""src"":12,""loc"":7},{""cat"":13,""src"":15,""loc"":0},{""cat"":13,""src"":16,""loc"":1},{""cat"":13,""src"":6,""loc"":2},{""cat"":20,""src"":14,""loc"":8},{""cat"":19,""src"":9,""loc"":3},{""cat"":19,""src"":0,""loc"":4},{""cat"":19,""src"":10,""loc"":5}]","9","13,13,13,19,19,19,20,20,20,15,16,6,9,0,10,10,12,14,0,1,2,3,4,5,6,7,8,2,3,4,6,7,8,0,1,5",NA
"1357","sort_feedback","75","html-keyboard-response","213","1474199","0.0-6.0-19.0","1","2020-1-6 11:40:40","MONKEY",NA,NA,NA,NA,NA,NA,NA,NA,NA,NA,NA,NA,NA,NA
"19919","setup5",NA,"animation","214","1494119","0.0-6.0-20.0","1","2020-1-6 11:40:40","MONKEY",NA,NA,"[{""cat"":27,""src"":15,""loc"":0},{""cat"":12,""src"":1,""loc"":7},{""cat"":20,""src"":17,""loc"":3},{""cat"":12,""src"":17,""loc"":5},{""cat"":20,""src"":10,""loc"":2},{""cat"":27,""src"":4,""loc"":6},{""cat"":27,""src"":12,""loc"":4},{""cat"":12,""src"":14,""loc"":1},{""cat"":20,""src"":6,""loc"":8}]","5","1103,1101,1102,1102,1102,1103,1102,1101,1102,10001",NA,NA,NA,NA,NA,NA,NA,NA,NA
"350","flanker_instructions","32","html-keyboard-response","215","1494470","0.0-6.0-21.0","1","2020-1-6 11:40:40","MONKEY",NA,NA,NA,NA,NA,NA,NA,NA,NA,NA,NA,NA,NA,NA
NA,"flanker_test",NA,"image-keyboard-response","216","1496373","0.0-6.0-22.0-0.0","1","2020-1-6 11:40:40","MONKEY",NA,NA,NA,NA,NA,"incongruent","left","FALSE",NA,NA,NA,NA,NA,NA
NA,"flanker_test",NA,"image-keyboard-response","217","1497600","0.0-6.0-22.0-0.1","1","2020-1-6 11:40:40","MONKEY",NA,NA,NA,NA,NA,"congruent","right","FALSE",NA,NA,NA,NA,NA,NA
NA,"flanker_test",NA,"image-keyboard-response","218","1499300","0.0-6.0-22.0-0.2","1","2020-1-6 11:40:40","MONKEY",NA,NA,NA,NA,NA,"congruent","left","FALSE",NA,NA,NA,NA,NA,NA
NA,"flanker_test",NA,"image-keyboard-response","219","1500760","0.0-6.0-22.0-0.3","1","2020-1-6 11:40:40","MONKEY",NA,NA,NA,NA,NA,"incongruent","right","FALSE",NA,NA,NA,NA,NA,NA
"17965","sort_trial",NA,"free-sort","220","1519858","0.0-6.0-23.0","1","2020-1-6 11:40:40","MONKEY",NA,NA,NA,NA,NA,NA,NA,NA,"[{""cat"":27,""src"":15,""x"":16,""y"":492},{""cat"":12,""src"":1,""x"":55,""y"":307},{""cat"":20,""src"":17,""x"":24,""y"":360},{""cat"":12,""src"":17,""x"":82,""y"":242},{""cat"":20,""src"":10,""x"":30,""y"":179},{""cat"":27,""src"":4,""x"":22,""y"":423},{""cat"":27,""src"":12,""x"":41,""y"":88},{""cat"":12,""src"":14,""x"":44,""y"":29},{""cat"":20,""src"":6,""x"":57,""y"":139}]","[{""cat"":""12"",""src"":""17"",""x"":0,""y"":0},{""cat"":""20"",""src"":""17"",""x"":0,""y"":0},{""cat"":""27"",""src"":""4"",""x"":0,""y"":0},{""cat"":""12"",""src"":""1"",""x"":256,""y"":400},{""cat"":""12"",""src"":""1"",""x"":0,""y"":0},{""cat"":""20"",""src"":""10"",""x"":0,""y"":0},{""cat"":""27"",""src"":""15"",""x"":0,""y"":0},{""cat"":""20"",""src"":""6"",""x"":0,""y"":0},{""cat"":""27"",""src"":""12"",""x"":0,""y"":0},{""cat"":""12"",""src"":""14"",""x"":0,""y"":0}]","[{""cat"":12,""src"":17,""loc"":5},{""cat"":20,""src"":17,""loc"":3},{""cat"":27,""src"":4,""loc"":6},{""cat"":12,""src"":1,""loc"":7},{""cat"":20,""src"":10,""loc"":2},{""cat"":27,""src"":15,""loc"":0},{""cat"":20,""src"":6,""loc"":8},{""cat"":27,""src"":12,""loc"":1},{""cat"":12,""src"":14,""loc"":4}]","7","27,27,20,20,12,12,27,12,20,15,12,10,17,14,17,4,1,6,0,1,2,3,4,5,6,7,8,5,7,4,1,8,0,2,3,6",NA
"1193","sort_feedback","75","html-keyboard-response","221","1521052","0.0-6.0-24.0","1","2020-1-6 11:40:40","MONKEY",NA,NA,NA,NA,NA,NA,NA,NA,NA,NA,NA,NA,NA,NA
"19916","setup3",NA,"animation","222","1540969","0.0-6.0-25.0","1","2020-1-6 11:40:40","MONKEY",NA,NA,"[{""cat"":1,""src"":5,""loc"":4},{""cat"":15,""src"":5,""loc"":1},{""cat"":31,""src"":11,""loc"":8},{""cat"":1,""src"":12,""loc"":5},{""cat"":15,""src"":17,""loc"":2},{""cat"":31,""src"":8,""loc"":6},{""cat"":31,""src"":10,""loc"":7},{""cat"":1,""src"":0,""loc"":3},{""cat"":15,""src"":7,""loc"":0}]","3","1101,1102,1101,1102,1103,1101,1102,1102,1101,10001",NA,NA,NA,NA,NA,NA,NA,NA,NA
"3595","flanker_instructions","75","html-keyboard-response","223","1544565","0.0-6.0-26.0","1","2020-1-6 11:40:40","MONKEY",NA,NA,NA,NA,NA,NA,NA,NA,NA,NA,NA,NA,NA,NA
NA,"flanker_test",NA,"image-keyboard-response","224","1546468","0.0-6.0-27.0-0.0","1","2020-1-6 11:40:40","MONKEY",NA,NA,NA,NA,NA,"congruent","right","FALSE",NA,NA,NA,NA,NA,NA
NA,"flanker_test",NA,"image-keyboard-response","225","1547910","0.0-6.0-27.0-0.1","1","2020-1-6 11:40:40","MONKEY",NA,NA,NA,NA,NA,"incongruent","right","FALSE",NA,NA,NA,NA,NA,NA
NA,"flanker_test",NA,"image-keyboard-response","226","1549583","0.0-6.0-27.0-0.2","1","2020-1-6 11:40:40","MONKEY",NA,NA,NA,NA,NA,"incongruent","left","FALSE",NA,NA,NA,NA,NA,NA
NA,"flanker_test",NA,"image-keyboard-response","227","1551391","0.0-6.0-27.0-0.3","1","2020-1-6 11:40:40","MONKEY",NA,NA,NA,NA,NA,"congruent","left","FALSE",NA,NA,NA,NA,NA,NA
"24117","sort_trial",NA,"free-sort","228","1576391","0.0-6.0-28.0","1","2020-1-6 11:40:40","MONKEY",NA,NA,NA,NA,NA,NA,NA,NA,"[{""cat"":1,""src"":5,""x"":12,""y"":135},{""cat"":15,""src"":5,""x"":66,""y"":500},{""cat"":31,""src"":11,""x"":83,""y"":378},{""cat"":1,""src"":12,""x"":66,""y"":193},{""cat"":15,""src"":17,""x"":23,""y"":428},{""cat"":31,""src"":8,""x"":50,""y"":69},{""cat"":31,""src"":10,""x"":54,""y"":240},{""cat"":1,""src"":0,""x"":69,""y"":28},{""cat"":15,""src"":7,""x"":19,""y"":316}]","[{""cat"":""1"",""src"":""12"",""x"":0,""y"":0},{""cat"":""1"",""src"":""5"",""x"":0,""y"":0},{""cat"":""1"",""src"":""0"",""x"":0,""y"":0},{""cat"":""15"",""src"":""17"",""x"":373,""y"":165},{""cat"":""15"",""src"":""17"",""x"":0,""y"":0},{""cat"":""15"",""src"":""5"",""x"":0,""y"":0},{""cat"":""15"",""src"":""7"",""x"":0,""y"":0},{""cat"":""31"",""src"":""10"",""x"":0,""y"":0},{""cat"":""31"",""src"":""8"",""x"":0,""y"":0},{""cat"":""31"",""src"":""11"",""x"":0,""y"":0}]","[{""cat"":1,""src"":12,""loc"":5},{""cat"":1,""src"":5,""loc"":4},{""cat"":1,""src"":0,""loc"":3},{""cat"":15,""src"":17,""loc"":2},{""cat"":15,""src"":5,""loc"":1},{""cat"":15,""src"":7,""loc"":0},{""cat"":31,""src"":10,""loc"":7},{""cat"":31,""src"":8,""loc"":6},{""cat"":31,""src"":11,""loc"":8}]","9","15,15,15,1,1,1,31,31,31,7,5,17,0,5,12,8,10,11,0,1,2,3,4,5,6,7,8,5,4,3,2,1,0,7,6,8",NA
"1987","sort_feedback","79","html-keyboard-response","229","1578380","0.0-6.0-29.0","1","2020-1-6 11:40:40","MONKEY",NA,NA,NA,NA,NA,NA,NA,NA,NA,NA,NA,NA,NA,NA
"19917","setup5",NA,"animation","230","1598298","0.0-6.0-30.0","1","2020-1-6 11:40:40","MONKEY",NA,NA,"[{""cat"":18,""src"":9,""loc"":4},{""cat"":25,""src"":1,""loc"":0},{""cat"":8,""src"":8,""loc"":6},{""cat"":18,""src"":11,""loc"":2},{""cat"":25,""src"":2,""loc"":8},{""cat"":8,""src"":9,""loc"":5},{""cat"":25,""src"":0,""loc"":3},{""cat"":18,""src"":18,""loc"":7},{""cat"":8,""src"":7,""loc"":1}]","5","1102,1101,1101,1102,1101,1102,1101,1104,1102,10000",NA,NA,NA,NA,NA,NA,NA,NA,NA
"601","flanker_instructions","71","html-keyboard-response","231","1598900","0.0-6.0-31.0","1","2020-1-6 11:40:40","MONKEY",NA,NA,NA,NA,NA,NA,NA,NA,NA,NA,NA,NA,NA,NA
NA,"flanker_test",NA,"image-keyboard-response","232","1600803","0.0-6.0-32.0-0.0","1","2020-1-6 11:40:40","MONKEY",NA,NA,NA,NA,NA,"congruent","left","FALSE",NA,NA,NA,NA,NA,NA
NA,"flanker_test",NA,"image-keyboard-response","233","1602880","0.0-6.0-32.0-0.1","1","2020-1-6 11:40:40","MONKEY",NA,NA,NA,NA,NA,"incongruent","right","FALSE",NA,NA,NA,NA,NA,NA
NA,"flanker_test",NA,"image-keyboard-response","234","1604745","0.0-6.0-32.0-0.2","1","2020-1-6 11:40:40","MONKEY",NA,NA,NA,NA,NA,"congruent","right","FALSE",NA,NA,NA,NA,NA,NA
NA,"flanker_test",NA,"image-keyboard-response","235","1606662","0.0-6.0-32.0-0.3","1","2020-1-6 11:40:40","MONKEY",NA,NA,NA,NA,NA,"incongruent","left","FALSE",NA,NA,NA,NA,NA,NA
"28185","sort_trial",NA,"free-sort","236","1635959","0.0-6.0-33.0","1","2020-1-6 11:40:40","MONKEY",NA,NA,NA,NA,NA,NA,NA,NA,"[{""cat"":18,""src"":9,""x"":51,""y"":500},{""cat"":25,""src"":1,""x"":16,""y"":205},{""cat"":8,""src"":8,""x"":37,""y"":85},{""cat"":18,""src"":11,""x"":38,""y"":439},{""cat"":25,""src"":2,""x"":64,""y"":141},{""cat"":8,""src"":9,""x"":37,""y"":10},{""cat"":25,""src"":0,""x"":32,""y"":242},{""cat"":18,""src"":18,""x"":30,""y"":364},{""cat"":8,""src"":7,""x"":32,""y"":321}]","[{""cat"":""8"",""src"":""8"",""x"":0,""y"":0},{""cat"":""25"",""src"":""2"",""x"":0,""y"":0},{""cat"":""18"",""src"":""9"",""x"":0,""y"":0},{""cat"":""25"",""src"":""1"",""x"":0,""y"":0},{""cat"":""18"",""src"":""11"",""x"":351,""y"":173},{""cat"":""18"",""src"":""11"",""x"":405,""y"":172},{""cat"":""18"",""src"":""11"",""x"":0,""y"":0},{""cat"":""25"",""src"":""0"",""x"":0,""y"":0},{""cat"":""8"",""src"":""9"",""x"":42,""y"":28},{""cat"":""18"",""src"":""18"",""x"":0,""y"":0},{""cat"":""8"",""src"":""7"",""x"":0,""y"":0},{""cat"":""8"",""src"":""9"",""x"":37,""y"":22},{""cat"":""8"",""src"":""9"",""x"":737,""y"":231},{""cat"":""8"",""src"":""9"",""x"":0,""y"":0}]","[{""cat"":8,""src"":8,""loc"":6},{""cat"":25,""src"":2,""loc"":8},{""cat"":18,""src"":9,""loc"":4},{""cat"":25,""src"":1,""loc"":0},{""cat"":18,""src"":11,""loc"":2},{""cat"":25,""src"":0,""loc"":7},{""cat"":18,""src"":18,""loc"":5},{""cat"":8,""src"":7,""loc"":1},{""cat"":8,""src"":9,""loc"":3}]","6","25,8,18,8,18,18,8,25,25,1,7,11,9,9,18,8,0,2,0,1,2,3,4,5,6,7,8,3,7,4,8,2,6,0,5,1",NA
"2337","sort_feedback","75","html-keyboard-response","237","1638298","0.0-6.0-34.0","1","2020-1-6 11:40:40","MONKEY",NA,NA,NA,NA,NA,NA,NA,NA,NA,NA,NA,NA,NA,NA
"19916","setup4",NA,"animation","238","1658216","0.0-6.0-35.0","1","2020-1-6 11:40:40","MONKEY",NA,NA,"[{""cat"":5,""src"":13,""loc"":0},{""cat"":5,""src"":18,""loc"":8},{""cat"":5,""src"":11,""loc"":3},{""cat"":16,""src"":10,""loc"":4},{""cat"":16,""src"":1,""loc"":6},{""cat"":16,""src"":6,""loc"":2},{""cat"":17,""src"":19,""loc"":1},{""cat"":17,""src"":5,""loc"":7},{""cat"":17,""src"":16,""loc"":5}]","4","1103,1100,1102,1101,1103,1101,1102,1102,1102,10000",NA,NA,NA,NA,NA,NA,NA,NA,NA
"1576","flanker_instructions","70","html-keyboard-response","239","1659793","0.0-6.0-36.0","1","2020-1-6 11:40:40","MONKEY",NA,NA,NA,NA,NA,NA,NA,NA,NA,NA,NA,NA,NA,NA
NA,"flanker_test",NA,"image-keyboard-response","240","1661697","0.0-6.0-37.0-0.0","1","2020-1-6 11:40:40","MONKEY",NA,NA,NA,NA,NA,"congruent","left","FALSE",NA,NA,NA,NA,NA,NA
NA,"flanker_test",NA,"image-keyboard-response","241","1663327","0.0-6.0-37.0-0.1","1","2020-1-6 11:40:40","MONKEY",NA,NA,NA,NA,NA,"congruent","right","FALSE",NA,NA,NA,NA,NA,NA
NA,"flanker_test",NA,"image-keyboard-response","242","1664715","0.0-6.0-37.0-0.2","1","2020-1-6 11:40:40","MONKEY",NA,NA,NA,NA,NA,"incongruent","right","FALSE",NA,NA,NA,NA,NA,NA
NA,"flanker_test",NA,"image-keyboard-response","243","1666238","0.0-6.0-37.0-0.3","1","2020-1-6 11:40:40","MONKEY",NA,NA,NA,NA,NA,"incongruent","left","FALSE",NA,NA,NA,NA,NA,NA
"19633","sort_trial",NA,"free-sort","244","1686278","0.0-6.0-38.0","1","2020-1-6 11:40:40","MONKEY",NA,NA,NA,NA,NA,NA,NA,NA,"[{""cat"":5,""src"":13,""x"":15,""y"":503},{""cat"":5,""src"":18,""x"":35,""y"":307},{""cat"":5,""src"":11,""x"":13,""y"":180},{""cat"":16,""src"":10,""x"":78,""y"":146},{""cat"":16,""src"":1,""x"":51,""y"":433},{""cat"":16,""src"":6,""x"":34,""y"":249},{""cat"":17,""src"":19,""x"":63,""y"":21},{""cat"":17,""src"":5,""x"":2,""y"":89},{""cat"":17,""src"":16,""x"":4,""y"":360}]","[{""cat"":""5"",""src"":""11"",""x"":0,""y"":0},{""cat"":""16"",""src"":""10"",""x"":0,""y"":0},{""cat"":""5"",""src"":""18"",""x"":0,""y"":0},{""cat"":""16"",""src"":""1"",""x"":0,""y"":0},{""cat"":""16"",""src"":""6"",""x"":0,""y"":0},{""cat"":""5"",""src"":""13"",""x"":0,""y"":0},{""cat"":""17"",""src"":""5"",""x"":0,""y"":0},{""cat"":""17"",""src"":""16"",""x"":0,""y"":0},{""cat"":""17"",""src"":""19"",""x"":695,""y"":147},{""cat"":""17"",""src"":""19"",""x"":0,""y"":0}]","[{""cat"":5,""src"":11,""loc"":3},{""cat"":16,""src"":10,""loc"":4},{""cat"":5,""src"":18,""loc"":8},{""cat"":16,""src"":1,""loc"":6},{""cat"":16,""src"":6,""loc"":2},{""cat"":5,""src"":13,""loc"":0},{""cat"":17,""src"":5,""loc"":7},{""cat"":17,""src"":16,""loc"":1},{""cat"":17,""src"":19,""loc"":5}]","7","5,17,16,5,16,17,16,17,5,13,16,6,11,10,19,1,5,18,0,1,2,3,4,5,6,7,8,5,7,4,0,1,8,3,6,2",NA
"1353","sort_feedback","74","html-keyboard-response","245","1687633","0.0-6.0-39.0","1","2020-1-6 11:40:40","MONKEY",NA,NA,NA,NA,NA,NA,NA,NA,NA,NA,NA,NA,NA,NA
"19919","setup2",NA,"animation","246","1707552","0.0-6.0-40.0","1","2020-1-6 11:40:40","MONKEY",NA,NA,"[{""cat"":23,""src"":5,""loc"":0},{""cat"":16,""src"":18,""loc"":2},{""cat"":10,""src"":3,""loc"":1},{""cat"":23,""src"":1,""loc"":3},{""cat"":10,""src"":13,""loc"":5},{""cat"":16,""src"":7,""loc"":4},{""cat"":16,""src"":4,""loc"":7},{""cat"":23,""src"":7,""loc"":6},{""cat"":10,""src"":10,""loc"":8}]","2","1102,1102,1101,1102,1102,1101,1103,1103,1102,10001",NA,NA,NA,NA,NA,NA,NA,NA,NA
"544","flanker_instructions","74","html-keyboard-response","247","1708098","0.0-6.0-41.0","1","2020-1-6 11:40:40","MONKEY",NA,NA,NA,NA,NA,NA,NA,NA,NA,NA,NA,NA,NA,NA
NA,"flanker_test",NA,"image-keyboard-response","248","1710000","0.0-6.0-42.0-0.0","1","2020-1-6 11:40:40","MONKEY",NA,NA,NA,NA,NA,"congruent","left","FALSE",NA,NA,NA,NA,NA,NA
NA,"flanker_test",NA,"image-keyboard-response","249","1711210","0.0-6.0-42.0-0.1","1","2020-1-6 11:40:40","MONKEY",NA,NA,NA,NA,NA,"congruent","right","FALSE",NA,NA,NA,NA,NA,NA
NA,"flanker_test",NA,"image-keyboard-response","250","1713121","0.0-6.0-42.0-0.2","1","2020-1-6 11:40:40","MONKEY",NA,NA,NA,NA,NA,"incongruent","right","FALSE",NA,NA,NA,NA,NA,NA
NA,"flanker_test",NA,"image-keyboard-response","251","1715019","0.0-6.0-42.0-0.3","1","2020-1-6 11:40:40","MONKEY",NA,NA,NA,NA,NA,"incongruent","left","FALSE",NA,NA,NA,NA,NA,NA
"20882","sort_trial",NA,"free-sort","252","1736261","0.0-6.0-43.0","1","2020-1-6 11:40:40","MONKEY",NA,NA,NA,NA,NA,NA,NA,NA,"[{""cat"":23,""src"":5,""x"":44,""y"":145},{""cat"":16,""src"":18,""x"":72,""y"":83},{""cat"":10,""src"":3,""x"":19,""y"":380},{""cat"":23,""src"":1,""x"":79,""y"":258},{""cat"":10,""src"":13,""x"":57,""y"":431},{""cat"":16,""src"":7,""x"":65,""y"":188},{""cat"":16,""src"":4,""x"":57,""y"":309},{""cat"":23,""src"":7,""x"":41,""y"":485},{""cat"":10,""src"":10,""x"":49,""y"":3}]","[{""cat"":""10"",""src"":""3"",""x"":0,""y"":0},{""cat"":""16"",""src"":""18"",""x"":0,""y"":0},{""cat"":""23"",""src"":""5"",""x"":0,""y"":0},{""cat"":""10"",""src"":""13"",""x"":0,""y"":0},{""cat"":""23"",""src"":""1"",""x"":0,""y"":0},{""cat"":""23"",""src"":""7"",""x"":0,""y"":0},{""cat"":""16"",""src"":""4"",""x"":0,""y"":0},{""cat"":""16"",""src"":""7"",""x"":0,""y"":0},{""cat"":""10"",""src"":""10"",""x"":0,""y"":0}]","[{""cat"":10,""src"":3,""loc"":1},{""cat"":16,""src"":18,""loc"":2},{""cat"":23,""src"":5,""loc"":0},{""cat"":10,""src"":13,""loc"":5},{""cat"":23,""src"":1,""loc"":3},{""cat"":23,""src"":7,""loc"":4},{""cat"":16,""src"":4,""loc"":7},{""cat"":16,""src"":7,""loc"":6},{""cat"":10,""src"":10,""loc"":8}]","7","23,10,16,23,23,10,16,16,10,5,3,18,1,7,13,7,4,10,0,1,2,3,4,5,6,7,8,2,0,1,4,5,3,7,6,8",NA
"1968","sort_feedback","75","html-keyboard-response","253","1738230","0.0-6.0-44.0","1","2020-1-6 11:40:40","MONKEY",NA,NA,NA,NA,NA,NA,NA,NA,NA,NA,NA,NA,NA,NA
"19917","setup1",NA,"animation","254","1758149","0.0-6.0-45.0","1","2020-1-6 11:40:40","MONKEY",NA,NA,"[{""cat"":2,""src"":18,""loc"":7},{""cat"":2,""src"":11,""loc"":6},{""cat"":2,""src"":10,""loc"":8},{""cat"":19,""src"":17,""loc"":4},{""cat"":19,""src"":4,""loc"":5},{""cat"":19,""src"":0,""loc"":3},{""cat"":6,""src"":16,""loc"":2},{""cat"":6,""src"":10,""loc"":1},{""cat"":6,""src"":8,""loc"":0}]","1","1103,1101,1103,1101,1102,1100,1102,1102,1102,10001",NA,NA,NA,NA,NA,NA,NA,NA,NA
"410","flanker_instructions","76","html-keyboard-response","255","1758560","0.0-6.0-46.0","1","2020-1-6 11:40:40","MONKEY",NA,NA,NA,NA,NA,NA,NA,NA,NA,NA,NA,NA,NA,NA
NA,"flanker_test",NA,"image-keyboard-response","256","1760463","0.0-6.0-47.0-0.0","1","2020-1-6 11:40:40","MONKEY",NA,NA,NA,NA,NA,"incongruent","right","FALSE",NA,NA,NA,NA,NA,NA
NA,"flanker_test",NA,"image-keyboard-response","257","1762540","0.0-6.0-47.0-0.1","1","2020-1-6 11:40:40","MONKEY",NA,NA,NA,NA,NA,"congruent","left","FALSE",NA,NA,NA,NA,NA,NA
NA,"flanker_test",NA,"image-keyboard-response","258","1764089","0.0-6.0-47.0-0.2","1","2020-1-6 11:40:40","MONKEY",NA,NA,NA,NA,NA,"congruent","right","FALSE",NA,NA,NA,NA,NA,NA
NA,"flanker_test",NA,"image-keyboard-response","259","1765696","0.0-6.0-47.0-0.3","1","2020-1-6 11:40:40","MONKEY",NA,NA,NA,NA,NA,"incongruent","left","FALSE",NA,NA,NA,NA,NA,NA
"18152","sort_trial",NA,"free-sort","260","1784196","0.0-6.0-48.0","1","2020-1-6 11:40:40","MONKEY",NA,NA,NA,NA,NA,NA,NA,NA,"[{""cat"":2,""src"":18,""x"":1,""y"":0},{""cat"":2,""src"":11,""x"":75,""y"":209},{""cat"":2,""src"":10,""x"":29,""y"":508},{""cat"":19,""src"":17,""x"":58,""y"":125},{""cat"":19,""src"":4,""x"":34,""y"":370},{""cat"":19,""src"":0,""x"":57,""y"":302},{""cat"":6,""src"":16,""x"":53,""y"":65},{""cat"":6,""src"":10,""x"":52,""y"":443},{""cat"":6,""src"":8,""x"":61,""y"":253}]","[{""cat"":""2"",""src"":""11"",""x"":0,""y"":0},{""cat"":""2"",""src"":""18"",""x"":0,""y"":0},{""cat"":""2"",""src"":""10"",""x"":0,""y"":0},{""cat"":""19"",""src"":""0"",""x"":0,""y"":0},{""cat"":""19"",""src"":""17"",""x"":0,""y"":0},{""cat"":""19"",""src"":""4"",""x"":0,""y"":0},{""cat"":""6"",""src"":""8"",""x"":0,""y"":0},{""cat"":""6"",""src"":""16"",""x"":0,""y"":0},{""cat"":""6"",""src"":""10"",""x"":0,""y"":0}]","[{""cat"":2,""src"":11,""loc"":6},{""cat"":2,""src"":18,""loc"":7},{""cat"":2,""src"":10,""loc"":8},{""cat"":19,""src"":0,""loc"":5},{""cat"":19,""src"":17,""loc"":4},{""cat"":19,""src"":4,""loc"":3},{""cat"":6,""src"":8,""loc"":1},{""cat"":6,""src"":16,""loc"":2},{""cat"":6,""src"":10,""loc"":0}]","5","6,6,6,19,19,19,2,2,2,10,8,16,4,17,0,11,18,10,0,1,2,3,4,5,6,7,8,8,6,7,5,4,3,0,1,2",NA
"1963","sort_feedback","75","html-keyboard-response","261","1786160","0.0-6.0-49.0","1","2020-1-6 11:40:40","MONKEY",NA,NA,NA,NA,NA,NA,NA,NA,NA,NA,NA,NA,NA,NA
"1987","demographics",NA,"html-button-response","262","1788149","0.0-7.0-0.0","1","2020-1-6 11:40:40","MONKEY","0",NA,NA,NA,NA,NA,NA,NA,NA,NA,NA,NA,NA,NA
"10502","workerID",NA,"survey-text","263","1798652","0.0-7.0-1.0","1","2020-1-6 11:40:40","MONKEY",NA,NA,NA,NA,NA,NA,NA,NA,NA,NA,NA,NA,NA,"{""Q0"":""A3AGQ2G8QI59EG""}"
"146666","attn_check",NA,"survey-multi-choice","264","1945333","0.0-7.0-2.0","1","2020-1-6 11:40:40","MONKEY",NA,NA,NA,NA,NA,NA,NA,NA,NA,NA,NA,NA,NA,"{""Q0"":""LION""}"
"3526","age",NA,"survey-text","265","1948882","0.0-7.0-3.0","1","2020-1-6 11:40:40","MONKEY",NA,NA,NA,NA,NA,NA,NA,NA,NA,NA,NA,NA,NA,"{""Q0"":""23""}"
"3037","gender",NA,"survey-multi-choice","266","1951923","0.0-7.0-4.0","1","2020-1-6 11:40:40","MONKEY",NA,NA,NA,NA,NA,NA,NA,NA,NA,NA,NA,NA,NA,"{""Q0"":""Female""}"
"1607","ethnic",NA,"survey-multi-choice","267","1953547","0.0-7.0-5.0","1","2020-1-6 11:40:40","MONKEY",NA,NA,NA,NA,NA,NA,NA,NA,NA,NA,NA,NA,NA,"{""Q0"":""Hispanic or Latino""}"
"32693","race",NA,"survey-multi-select","268","1986267","0.0-7.0-6.0","1","2020-1-6 11:40:40","MONKEY",NA,NA,NA,NA,NA,NA,NA,NA,NA,NA,NA,NA,NA,"{""Q0"":[""White""]}"
"1621","english",NA,"survey-multi-choice","269","1987907","0.0-7.0-7.0","1","2020-1-6 11:40:40","MONKEY",NA,NA,NA,NA,NA,NA,NA,NA,NA,NA,NA,NA,NA,"{""Q0"":""Yes""}"
"3379","understand",NA,"survey-multi-choice","270","1991307","0.0-7.0-8.0","1","2020-1-6 11:40:40","MONKEY",NA,NA,NA,NA,NA,NA,NA,NA,NA,NA,NA,NA,NA,"{""Q0"":""No""}"
"40328","strategies",NA,"survey-text","271","2031651","0.0-7.0-9.0","1","2020-1-6 11:40:40","MONKEY",NA,NA,NA,NA,NA,NA,NA,NA,NA,NA,NA,NA,NA,"{""Q0"":""I thought that the remembering of the word at the end was very stupid, the survey itself takes so long and it asks you to remember a lot of things. I honoustly struggled to think off the word at the end.""}"
"1582","comments",NA,"survey-text","272","2033234","0.0-7.0-10.0","1","2020-1-6 11:40:40","MONKEY",NA,NA,NA,NA,NA,NA,NA,NA,NA,NA,NA,NA,NA,"{""Q0"":""na""}"
"1631","study_end",NA,"html-button-response","273","2034867","0.0-8.0","1","2020-1-6 11:40:40","MONKEY","0",NA,NA,NA,NA,NA,NA,NA,NA,NA,NA,NA,NA,NA
