"rt","stimulus","key_press","trial_type","trial_index","time_elapsed","internal_node_id","session","startTime","attn_word","button_pressed","view_history","animation_sequence","condition","time_sequence","stim_type","direction","correct","init_locations","moves","final_locations","sort_correct","finalLocations","responses"
"7979","welcome","32","html-keyboard-response","0","7991","0.0-0.0","1","2020-1-7 7:28:37","FISH",NA,NA,NA,NA,NA,NA,NA,NA,NA,NA,NA,NA,NA,NA
"21032","consent",NA,"html-button-response","1","29027","0.0-1.0","1","2020-1-7 7:28:37","FISH","0",NA,NA,NA,NA,NA,NA,NA,NA,NA,NA,NA,NA,NA
"1363396","instructions",NA,"instructions","2","1392426","0.0-2.0","1","2020-1-7 7:28:37","FISH",NA,"[{""page_index"":0,""viewing_time"":22500},{""page_index"":1,""viewing_time"":12734},{""page_index"":2,""viewing_time"":3974},{""page_index"":1,""viewing_time"":63361},{""page_index"":2,""viewing_time"":1200859},{""page_index"":3,""viewing_time"":20907},{""page_index"":4,""viewing_time"":12618},{""page_index"":5,""viewing_time"":21798},{""page_index"":6,""viewing_time"":4644}]",NA,NA,NA,NA,NA,NA,NA,NA,NA,NA,NA,NA
"19964","setup5",NA,"animation","3","1412397","0.0-3.0-0.0","1","2020-1-7 7:28:37","FISH",NA,NA,"[{""cat"":18,""src"":5,""loc"":4},{""cat"":16,""src"":17,""loc"":7},{""cat"":20,""src"":2,""loc"":1},{""cat"":16,""src"":9,""loc"":2},{""cat"":18,""src"":8,""loc"":6},{""cat"":20,""src"":3,""loc"":5},{""cat"":18,""src"":11,""loc"":0},{""cat"":20,""src"":11,""loc"":8},{""cat"":16,""src"":16,""loc"":3}]","5","1112,1106,1108,1105,1106,1104,1107,1103,1108,10003",NA,NA,NA,NA,NA,NA,NA,NA,NA
"31474","flanker_instructions","32","html-keyboard-response","4","1443877","0.0-3.0-1.0","1","2020-1-7 7:28:37","FISH",NA,NA,NA,NA,NA,NA,NA,NA,NA,NA,NA,NA,NA,NA
NA,"flanker_test",NA,"image-keyboard-response","5","1445800","0.0-3.0-2.0-0.0","1","2020-1-7 7:28:37","FISH",NA,NA,NA,NA,NA,"congruent","left","FALSE",NA,NA,NA,NA,NA,NA
"814","flanker_test","39","image-keyboard-response","6","1447814","0.0-3.0-2.0-0.1","1","2020-1-7 7:28:37","FISH",NA,NA,NA,NA,NA,"incongruent","right","TRUE",NA,NA,NA,NA,NA,NA
"737","flanker_test","37","image-keyboard-response","7","1449595","0.0-3.0-2.0-0.2","1","2020-1-7 7:28:37","FISH",NA,NA,NA,NA,NA,"incongruent","left","TRUE",NA,NA,NA,NA,NA,NA
"563","flanker_test","39","image-keyboard-response","8","1451122","0.0-3.0-2.0-0.3","1","2020-1-7 7:28:37","FISH",NA,NA,NA,NA,NA,"congruent","right","TRUE",NA,NA,NA,NA,NA,NA
"47504","sort_trial",NA,"free-sort","9","1499380","0.0-3.0-3.0","1","2020-1-7 7:28:37","FISH",NA,NA,NA,NA,NA,NA,NA,NA,"[{""cat"":18,""src"":5,""x"":58,""y"":13},{""cat"":16,""src"":17,""x"":48,""y"":134},{""cat"":20,""src"":2,""x"":7,""y"":189},{""cat"":16,""src"":9,""x"":75,""y"":440},{""cat"":18,""src"":8,""x"":22,""y"":491},{""cat"":20,""src"":3,""x"":57,""y"":240},{""cat"":18,""src"":11,""x"":48,""y"":367},{""cat"":20,""src"":11,""x"":23,""y"":310},{""cat"":16,""src"":16,""x"":48,""y"":67}]","[{""cat"":""20"",""src"":""11"",""x"":0,""y"":0},{""cat"":""18"",""src"":""5"",""x"":0,""y"":0},{""cat"":""18"",""src"":""8"",""x"":0,""y"":0},{""cat"":""16"",""src"":""9"",""x"":0,""y"":0},{""cat"":""20"",""src"":""3"",""x"":0,""y"":0},{""cat"":""16"",""src"":""17"",""x"":0,""y"":0},{""cat"":""16"",""src"":""16"",""x"":0,""y"":0},{""cat"":""18"",""src"":""11"",""x"":0,""y"":0},{""cat"":""20"",""src"":""2"",""x"":0,""y"":0}]","[{""cat"":20,""src"":11,""loc"":8},{""cat"":18,""src"":5,""loc"":5},{""cat"":18,""src"":8,""loc"":7},{""cat"":16,""src"":9,""loc"":6},{""cat"":20,""src"":3,""loc"":0},{""cat"":16,""src"":17,""loc"":2},{""cat"":16,""src"":16,""loc"":3},{""cat"":18,""src"":11,""loc"":1},{""cat"":20,""src"":2,""loc"":4}]","2","20,18,16,16,20,18,16,18,20,3,11,17,16,2,5,9,8,11,0,1,2,3,4,5,6,7,8,4,7,5,6,8,1,3,2,0",NA
"6566","sort_feedback","32","html-keyboard-response","10","1505953","0.0-3.0-4.0","1","2020-1-7 7:28:37","FISH",NA,NA,NA,NA,NA,NA,NA,NA,NA,NA,NA,NA,NA,NA
"19996","setup5",NA,"animation","11","1525952","0.0-3.0-5.0","1","2020-1-7 7:28:37","FISH",NA,NA,"[{""cat"":5,""src"":7,""loc"":4},{""cat"":20,""src"":19,""loc"":8},{""cat"":22,""src"":17,""loc"":1},{""cat"":22,""src"":9,""loc"":6},{""cat"":20,""src"":12,""loc"":5},{""cat"":5,""src"":3,""loc"":2},{""cat"":20,""src"":4,""loc"":0},{""cat"":5,""src"":10,""loc"":7},{""cat"":22,""src"":16,""loc"":3}]","5","1120,1106,1109,1103,1117,1103,1115,1104,1104,10015",NA,NA,NA,NA,NA,NA,NA,NA,NA
"14137","flanker_instructions","32","html-keyboard-response","12","1540093","0.0-3.0-6.0","1","2020-1-7 7:28:37","FISH",NA,NA,NA,NA,NA,NA,NA,NA,NA,NA,NA,NA,NA,NA
"619","flanker_test","37","image-keyboard-response","13","1541719","0.0-3.0-7.0-0.0","1","2020-1-7 7:28:37","FISH",NA,NA,NA,NA,NA,"incongruent","left","TRUE",NA,NA,NA,NA,NA,NA
"551","flanker_test","39","image-keyboard-response","14","1543310","0.0-3.0-7.0-0.1","1","2020-1-7 7:28:37","FISH",NA,NA,NA,NA,NA,"incongruent","right","TRUE",NA,NA,NA,NA,NA,NA
"452","flanker_test","39","image-keyboard-response","15","1544291","0.0-3.0-7.0-0.2","1","2020-1-7 7:28:37","FISH",NA,NA,NA,NA,NA,"congruent","right","TRUE",NA,NA,NA,NA,NA,NA
"427","flanker_test","37","image-keyboard-response","16","1545639","0.0-3.0-7.0-0.3","1","2020-1-7 7:28:37","FISH",NA,NA,NA,NA,NA,"congruent","left","TRUE",NA,NA,NA,NA,NA,NA
"46121","sort_trial",NA,"free-sort","17","1592656","0.0-3.0-8.0","1","2020-1-7 7:28:37","FISH",NA,NA,NA,NA,NA,NA,NA,NA,"[{""cat"":5,""src"":7,""x"":61,""y"":124},{""cat"":20,""src"":19,""x"":24,""y"":431},{""cat"":22,""src"":17,""x"":60,""y"":264},{""cat"":22,""src"":9,""x"":34,""y"":484},{""cat"":20,""src"":12,""x"":71,""y"":22},{""cat"":5,""src"":3,""x"":79,""y"":63},{""cat"":20,""src"":4,""x"":58,""y"":202},{""cat"":5,""src"":10,""x"":26,""y"":368},{""cat"":22,""src"":16,""x"":21,""y"":308}]","[{""cat"":""22"",""src"":""17"",""x"":0,""y"":0},{""cat"":""20"",""src"":""12"",""x"":629,""y"":162},{""cat"":""20"",""src"":""12"",""x"":0,""y"":0},{""cat"":""20"",""src"":""19"",""x"":0,""y"":0},{""cat"":""22"",""src"":""9"",""x"":0,""y"":0},{""cat"":""5"",""src"":""3"",""x"":0,""y"":0},{""cat"":""20"",""src"":""4"",""x"":0,""y"":0},{""cat"":""22"",""src"":""16"",""x"":0,""y"":0},{""cat"":""5"",""src"":""7"",""x"":61,""y"":124},{""cat"":""5"",""src"":""7"",""x"":63,""y"":127},{""cat"":""5"",""src"":""7"",""x"":722,""y"":229},{""cat"":""5"",""src"":""10"",""x"":0,""y"":0},{""cat"":""5"",""src"":""7"",""x"":0,""y"":0}]","[{""cat"":22,""src"":17,""loc"":1},{""cat"":20,""src"":12,""loc"":5},{""cat"":20,""src"":19,""loc"":8},{""cat"":22,""src"":9,""loc"":6},{""cat"":5,""src"":3,""loc"":0},{""cat"":20,""src"":4,""loc"":2},{""cat"":22,""src"":16,""loc"":4},{""cat"":5,""src"":10,""loc"":7},{""cat"":5,""src"":7,""loc"":3}]","5","5,22,20,5,22,20,22,5,20,3,17,4,7,16,12,9,10,19,0,1,2,3,4,5,6,7,8,4,0,5,8,6,1,3,7,2",NA
"3124","sort_feedback","32","html-keyboard-response","18","1595785","0.0-3.0-9.0","1","2020-1-7 7:28:37","FISH",NA,NA,NA,NA,NA,NA,NA,NA,NA,NA,NA,NA,NA,NA
"10213","finalInstructions",NA,"html-button-response","19","1606002","0.0-4.0-0.0","1","2020-1-7 7:28:37","FISH","0",NA,NA,NA,NA,NA,NA,NA,NA,NA,NA,NA,NA,NA
"19986","setup2",NA,"animation","20","1625991","0.0-4.0-1.0","1","2020-1-7 7:28:37","FISH",NA,NA,"[{""cat"":24,""src"":4,""loc"":6},{""cat"":4,""src"":8,""loc"":8},{""cat"":17,""src"":19,""loc"":7},{""cat"":4,""src"":4,""loc"":0},{""cat"":17,""src"":16,""loc"":1},{""cat"":24,""src"":15,""loc"":2},{""cat"":17,""src"":12,""loc"":4},{""cat"":4,""src"":13,""loc"":3},{""cat"":24,""src"":7,""loc"":5}]","2","1105,1116,1104,1116,1108,1104,1116,1103,1107,10006",NA,NA,NA,NA,NA,NA,NA,NA,NA
"1884","flanker_instructions","32","html-keyboard-response","21","1627880","0.0-4.0-2.0","1","2020-1-7 7:28:37","FISH",NA,NA,NA,NA,NA,NA,NA,NA,NA,NA,NA,NA,NA,NA
"572","flanker_test","39","image-keyboard-response","22","1629457","0.0-4.0-3.0-0.0","1","2020-1-7 7:28:37","FISH",NA,NA,NA,NA,NA,"incongruent","right","TRUE",NA,NA,NA,NA,NA,NA
"398","flanker_test","39","image-keyboard-response","23","1630915","0.0-4.0-3.0-0.1","1","2020-1-7 7:28:37","FISH",NA,NA,NA,NA,NA,"incongruent","left","FALSE",NA,NA,NA,NA,NA,NA
"424","flanker_test","37","image-keyboard-response","24","1632170","0.0-4.0-3.0-0.2","1","2020-1-7 7:28:37","FISH",NA,NA,NA,NA,NA,"congruent","left","TRUE",NA,NA,NA,NA,NA,NA
"456","flanker_test","39","image-keyboard-response","25","1632935","0.0-4.0-3.0-0.3","1","2020-1-7 7:28:37","FISH",NA,NA,NA,NA,NA,"congruent","right","TRUE",NA,NA,NA,NA,NA,NA
"43274","sort_trial",NA,"free-sort","26","1677320","0.0-4.0-4.0","1","2020-1-7 7:28:37","FISH",NA,NA,NA,NA,NA,NA,NA,NA,"[{""cat"":24,""src"":4,""x"":19,""y"":501},{""cat"":4,""src"":8,""x"":28,""y"":12},{""cat"":17,""src"":19,""x"":51,""y"":240},{""cat"":4,""src"":4,""x"":40,""y"":131},{""cat"":17,""src"":16,""x"":8,""y"":422},{""cat"":24,""src"":15,""x"":25,""y"":209},{""cat"":17,""src"":12,""x"":44,""y"":329},{""cat"":4,""src"":13,""x"":83,""y"":61},{""cat"":24,""src"":7,""x"":69,""y"":366}]","[{""cat"":""17"",""src"":""16"",""x"":0,""y"":0},{""cat"":""4"",""src"":""4"",""x"":0,""y"":0},{""cat"":""24"",""src"":""15"",""x"":0,""y"":0},{""cat"":""24"",""src"":""7"",""x"":0,""y"":0},{""cat"":""17"",""src"":""12"",""x"":0,""y"":0},{""cat"":""4"",""src"":""13"",""x"":0,""y"":0},{""cat"":""4"",""src"":""8"",""x"":0,""y"":0},{""cat"":""24"",""src"":""4"",""x"":0,""y"":0},{""cat"":""17"",""src"":""19"",""x"":0,""y"":0}]","[{""cat"":17,""src"":16,""loc"":1},{""cat"":4,""src"":4,""loc"":0},{""cat"":24,""src"":15,""loc"":2},{""cat"":24,""src"":7,""loc"":5},{""cat"":17,""src"":12,""loc"":4},{""cat"":4,""src"":13,""loc"":3},{""cat"":4,""src"":8,""loc"":7},{""cat"":24,""src"":4,""loc"":6},{""cat"":17,""src"":19,""loc"":8}]","7","4,17,24,4,17,24,24,4,17,4,16,15,13,12,7,4,8,19,0,1,2,3,4,5,6,7,8,1,0,2,5,4,3,7,6,8",NA
"3053","sort_feedback","32","html-keyboard-response","27","1680378","0.0-4.0-5.0","1","2020-1-7 7:28:37","FISH",NA,NA,NA,NA,NA,NA,NA,NA,NA,NA,NA,NA,NA,NA
"19999","setup1",NA,"animation","28","1700382","0.0-4.0-6.0","1","2020-1-7 7:28:37","FISH",NA,NA,"[{""cat"":3,""src"":11,""loc"":4},{""cat"":3,""src"":9,""loc"":5},{""cat"":3,""src"":18,""loc"":3},{""cat"":32,""src"":17,""loc"":7},{""cat"":32,""src"":6,""loc"":6},{""cat"":32,""src"":4,""loc"":8},{""cat"":11,""src"":1,""loc"":0},{""cat"":11,""src"":17,""loc"":1},{""cat"":11,""src"":3,""loc"":2}]","1","1107,1114,1104,1115,1110,1107,1104,1108,1106,10023",NA,NA,NA,NA,NA,NA,NA,NA,NA
"8820","flanker_instructions","32","html-keyboard-response","29","1709207","0.0-4.0-7.0","1","2020-1-7 7:28:37","FISH",NA,NA,NA,NA,NA,NA,NA,NA,NA,NA,NA,NA,NA,NA
"508","flanker_test","37","image-keyboard-response","30","1710723","0.0-4.0-8.0-0.0","1","2020-1-7 7:28:37","FISH",NA,NA,NA,NA,NA,"congruent","left","TRUE",NA,NA,NA,NA,NA,NA
"418","flanker_test","39","image-keyboard-response","31","1712216","0.0-4.0-8.0-0.1","1","2020-1-7 7:28:37","FISH",NA,NA,NA,NA,NA,"congruent","right","TRUE",NA,NA,NA,NA,NA,NA
"412","flanker_test","37","image-keyboard-response","32","1713528","0.0-4.0-8.0-0.2","1","2020-1-7 7:28:37","FISH",NA,NA,NA,NA,NA,"incongruent","left","TRUE",NA,NA,NA,NA,NA,NA
"476","flanker_test","39","image-keyboard-response","33","1715083","0.0-4.0-8.0-0.3","1","2020-1-7 7:28:37","FISH",NA,NA,NA,NA,NA,"incongruent","right","TRUE",NA,NA,NA,NA,NA,NA
"32730","sort_trial",NA,"free-sort","34","1748293","0.0-4.0-9.0","1","2020-1-7 7:28:37","FISH",NA,NA,NA,NA,NA,NA,NA,NA,"[{""cat"":3,""src"":11,""x"":82,""y"":387},{""cat"":3,""src"":9,""x"":16,""y"":502},{""cat"":3,""src"":18,""x"":21,""y"":188},{""cat"":32,""src"":17,""x"":39,""y"":310},{""cat"":32,""src"":6,""x"":35,""y"":440},{""cat"":32,""src"":4,""x"":70,""y"":79},{""cat"":11,""src"":1,""x"":69,""y"":121},{""cat"":11,""src"":17,""x"":57,""y"":1},{""cat"":11,""src"":3,""x"":8,""y"":244}]","[{""cat"":""11"",""src"":""17"",""x"":0,""y"":0},{""cat"":""11"",""src"":""1"",""x"":0,""y"":0},{""cat"":""11"",""src"":""3"",""x"":0,""y"":0},{""cat"":""32"",""src"":""4"",""x"":0,""y"":0},{""cat"":""32"",""src"":""17"",""x"":0,""y"":0},{""cat"":""32"",""src"":""6"",""x"":0,""y"":0},{""cat"":""3"",""src"":""9"",""x"":0,""y"":0},{""cat"":""3"",""src"":""11"",""x"":0,""y"":0},{""cat"":""3"",""src"":""18"",""x"":0,""y"":0}]","[{""cat"":11,""src"":17,""loc"":1},{""cat"":11,""src"":1,""loc"":0},{""cat"":11,""src"":3,""loc"":2},{""cat"":32,""src"":4,""loc"":6},{""cat"":32,""src"":17,""loc"":8},{""cat"":32,""src"":6,""loc"":7},{""cat"":3,""src"":9,""loc"":5},{""cat"":3,""src"":11,""loc"":4},{""cat"":3,""src"":18,""loc"":3}]","6","11,11,11,3,3,3,32,32,32,1,17,3,18,11,9,4,6,17,0,1,2,3,4,5,6,7,8,1,0,2,8,7,6,3,5,4",NA
"4946","sort_feedback","32","html-keyboard-response","35","1753244","0.0-4.0-10.0","1","2020-1-7 7:28:37","FISH",NA,NA,NA,NA,NA,NA,NA,NA,NA,NA,NA,NA,NA,NA
"19998","setup3",NA,"animation","36","1773244","0.0-4.0-11.0","1","2020-1-7 7:28:37","FISH",NA,NA,"[{""cat"":7,""src"":0,""loc"":0},{""cat"":29,""src"":12,""loc"":6},{""cat"":25,""src"":17,""loc"":3},{""cat"":7,""src"":7,""loc"":2},{""cat"":25,""src"":2,""loc"":5},{""cat"":29,""src"":16,""loc"":7},{""cat"":25,""src"":11,""loc"":4},{""cat"":29,""src"":8,""loc"":8},{""cat"":7,""src"":18,""loc"":1}]","3","1109,1111,1112,1103,1116,1107,1114,1107,1113,10006",NA,NA,NA,NA,NA,NA,NA,NA,NA
"1838","flanker_instructions","32","html-keyboard-response","37","1775086","0.0-4.0-12.0","1","2020-1-7 7:28:37","FISH",NA,NA,NA,NA,NA,NA,NA,NA,NA,NA,NA,NA,NA,NA
"494","flanker_test","39","image-keyboard-response","38","1776597","0.0-4.0-13.0-0.0","1","2020-1-7 7:28:37","FISH",NA,NA,NA,NA,NA,"congruent","right","TRUE",NA,NA,NA,NA,NA,NA
"321","flanker_test","37","image-keyboard-response","39","1777826","0.0-4.0-13.0-0.1","1","2020-1-7 7:28:37","FISH",NA,NA,NA,NA,NA,"incongruent","right","FALSE",NA,NA,NA,NA,NA,NA
"521","flanker_test","37","image-keyboard-response","40","1779232","0.0-4.0-13.0-0.2","1","2020-1-7 7:28:37","FISH",NA,NA,NA,NA,NA,"incongruent","left","TRUE",NA,NA,NA,NA,NA,NA
"457","flanker_test","37","image-keyboard-response","41","1780188","0.0-4.0-13.0-0.3","1","2020-1-7 7:28:37","FISH",NA,NA,NA,NA,NA,"congruent","left","TRUE",NA,NA,NA,NA,NA,NA
"30554","sort_trial",NA,"free-sort","42","1811141","0.0-4.0-14.0","1","2020-1-7 7:28:37","FISH",NA,NA,NA,NA,NA,NA,NA,NA,"[{""cat"":7,""src"":0,""x"":83,""y"":147},{""cat"":29,""src"":12,""x"":54,""y"":504},{""cat"":25,""src"":17,""x"":82,""y"":371},{""cat"":7,""src"":7,""x"":68,""y"":82},{""cat"":25,""src"":2,""x"":23,""y"":442},{""cat"":29,""src"":16,""x"":30,""y"":194},{""cat"":25,""src"":11,""x"":66,""y"":254},{""cat"":29,""src"":8,""x"":68,""y"":327},{""cat"":7,""src"":18,""x"":23,""y"":10}]","[{""cat"":""7"",""src"":""18"",""x"":0,""y"":0},{""cat"":""7"",""src"":""0"",""x"":0,""y"":0},{""cat"":""7"",""src"":""7"",""x"":0,""y"":0},{""cat"":""29"",""src"":""16"",""x"":0,""y"":0},{""cat"":""29"",""src"":""12"",""x"":0,""y"":0},{""cat"":""29"",""src"":""8"",""x"":0,""y"":0},{""cat"":""25"",""src"":""2"",""x"":0,""y"":0},{""cat"":""25"",""src"":""17"",""x"":0,""y"":0},{""cat"":""25"",""src"":""11"",""x"":0,""y"":0}]","[{""cat"":7,""src"":18,""loc"":1},{""cat"":7,""src"":0,""loc"":0},{""cat"":7,""src"":7,""loc"":2},{""cat"":29,""src"":16,""loc"":7},{""cat"":29,""src"":12,""loc"":6},{""cat"":29,""src"":8,""loc"":8},{""cat"":25,""src"":2,""loc"":4},{""cat"":25,""src"":17,""loc"":5},{""cat"":25,""src"":11,""loc"":3}]","6","7,7,7,25,25,25,29,29,29,0,18,7,11,2,17,12,16,8,0,1,2,3,4,5,6,7,8,1,0,2,8,6,7,4,3,5",NA
"2018","sort_feedback","32","html-keyboard-response","43","1813164","0.0-4.0-15.0","1","2020-1-7 7:28:37","FISH",NA,NA,NA,NA,NA,NA,NA,NA,NA,NA,NA,NA,NA,NA
"19982","setup4",NA,"animation","44","1833148","0.0-4.0-16.0","1","2020-1-7 7:28:37","FISH",NA,NA,"[{""cat"":14,""src"":10,""loc"":1},{""cat"":14,""src"":17,""loc"":3},{""cat"":14,""src"":4,""loc"":7},{""cat"":20,""src"":5,""loc"":5},{""cat"":20,""src"":2,""loc"":0},{""cat"":20,""src"":12,""loc"":6},{""cat"":22,""src"":11,""loc"":4},{""cat"":22,""src"":9,""loc"":8},{""cat"":22,""src"":12,""loc"":2}]","4","1107,1117,1103,1104,1115,1101,1106,1117,1103,10009",NA,NA,NA,NA,NA,NA,NA,NA,NA
"3470","flanker_instructions","32","html-keyboard-response","45","1836623","0.0-4.0-17.0","1","2020-1-7 7:28:37","FISH",NA,NA,NA,NA,NA,NA,NA,NA,NA,NA,NA,NA,NA,NA
"551","flanker_test","37","image-keyboard-response","46","1838184","0.0-4.0-18.0-0.0","1","2020-1-7 7:28:37","FISH",NA,NA,NA,NA,NA,"congruent","left","TRUE",NA,NA,NA,NA,NA,NA
"484","flanker_test","39","image-keyboard-response","47","1839069","0.0-4.0-18.0-0.1","1","2020-1-7 7:28:37","FISH",NA,NA,NA,NA,NA,"congruent","right","TRUE",NA,NA,NA,NA,NA,NA
"507","flanker_test","39","image-keyboard-response","48","1840226","0.0-4.0-18.0-0.2","1","2020-1-7 7:28:37","FISH",NA,NA,NA,NA,NA,"incongruent","right","TRUE",NA,NA,NA,NA,NA,NA
"579","flanker_test","37","image-keyboard-response","49","1841834","0.0-4.0-18.0-0.3","1","2020-1-7 7:28:37","FISH",NA,NA,NA,NA,NA,"incongruent","left","TRUE",NA,NA,NA,NA,NA,NA
"42024","sort_trial",NA,"free-sort","50","1884959","0.0-4.0-19.0","1","2020-1-7 7:28:37","FISH",NA,NA,NA,NA,NA,NA,NA,NA,"[{""cat"":14,""src"":10,""x"":21,""y"":328},{""cat"":14,""src"":17,""x"":23,""y"":442},{""cat"":14,""src"":4,""x"":51,""y"":14},{""cat"":20,""src"":5,""x"":67,""y"":260},{""cat"":20,""src"":2,""x"":77,""y"":383},{""cat"":20,""src"":12,""x"":80,""y"":202},{""cat"":22,""src"":11,""x"":2,""y"":485},{""cat"":22,""src"":9,""x"":45,""y"":136},{""cat"":22,""src"":12,""x"":1,""y"":60}]","[{""cat"":""20"",""src"":""2"",""x"":0,""y"":0},{""cat"":""20"",""src"":""5"",""x"":0,""y"":0},{""cat"":""20"",""src"":""12"",""x"":0,""y"":0},{""cat"":""14"",""src"":""4"",""x"":0,""y"":0},{""cat"":""22"",""src"":""12"",""x"":0,""y"":0},{""cat"":""22"",""src"":""9"",""x"":0,""y"":0},{""cat"":""14"",""src"":""10"",""x"":0,""y"":0},{""cat"":""14"",""src"":""17"",""x"":0,""y"":0},{""cat"":""22"",""src"":""11"",""x"":0,""y"":0}]","[{""cat"":20,""src"":2,""loc"":0},{""cat"":20,""src"":5,""loc"":5},{""cat"":20,""src"":12,""loc"":6},{""cat"":14,""src"":4,""loc"":7},{""cat"":22,""src"":12,""loc"":2},{""cat"":22,""src"":9,""loc"":3},{""cat"":14,""src"":10,""loc"":1},{""cat"":14,""src"":17,""loc"":4},{""cat"":22,""src"":11,""loc"":8}]","6","20,14,22,22,14,20,20,14,22,2,10,12,9,17,5,12,4,11,0,1,2,3,4,5,6,7,8,0,6,4,5,7,1,2,3,8",NA
"3260","sort_feedback","32","html-keyboard-response","51","1888224","0.0-4.0-20.0","1","2020-1-7 7:28:37","FISH",NA,NA,NA,NA,NA,NA,NA,NA,NA,NA,NA,NA,NA,NA
"19998","setup5",NA,"animation","52","1908225","0.0-4.0-21.0","1","2020-1-7 7:28:37","FISH",NA,NA,"[{""cat"":4,""src"":5,""loc"":8},{""cat"":17,""src"":12,""loc"":2},{""cat"":32,""src"":3,""loc"":5},{""cat"":17,""src"":2,""loc"":6},{""cat"":32,""src"":18,""loc"":1},{""cat"":4,""src"":9,""loc"":3},{""cat"":32,""src"":9,""loc"":7},{""cat"":17,""src"":9,""loc"":4},{""cat"":4,""src"":0,""loc"":0}]","5","1106,1105,1113,1117,1104,1115,1116,1104,1113,10005",NA,NA,NA,NA,NA,NA,NA,NA,NA
"1610","flanker_instructions","32","html-keyboard-response","53","1909840","0.0-4.0-22.0","1","2020-1-7 7:28:37","FISH",NA,NA,NA,NA,NA,NA,NA,NA,NA,NA,NA,NA,NA,NA
"502","flanker_test","39","image-keyboard-response","54","1911356","0.0-4.0-23.0-0.0","1","2020-1-7 7:28:37","FISH",NA,NA,NA,NA,NA,"congruent","right","TRUE",NA,NA,NA,NA,NA,NA
"518","flanker_test","37","image-keyboard-response","55","1912198","0.0-4.0-23.0-0.1","1","2020-1-7 7:28:37","FISH",NA,NA,NA,NA,NA,"incongruent","left","TRUE",NA,NA,NA,NA,NA,NA
"462","flanker_test","39","image-keyboard-response","56","1913329","0.0-4.0-23.0-0.2","1","2020-1-7 7:28:37","FISH",NA,NA,NA,NA,NA,"incongruent","right","TRUE",NA,NA,NA,NA,NA,NA
"381","flanker_test","37","image-keyboard-response","57","1914750","0.0-4.0-23.0-0.3","1","2020-1-7 7:28:37","FISH",NA,NA,NA,NA,NA,"congruent","left","TRUE",NA,NA,NA,NA,NA,NA
"41899","sort_trial",NA,"free-sort","58","1957759","0.0-4.0-24.0","1","2020-1-7 7:28:37","FISH",NA,NA,NA,NA,NA,NA,NA,NA,"[{""cat"":4,""src"":5,""x"":9,""y"":145},{""cat"":17,""src"":12,""x"":37,""y"":250},{""cat"":32,""src"":3,""x"":46,""y"":72},{""cat"":17,""src"":2,""x"":54,""y"":13},{""cat"":32,""src"":18,""x"":19,""y"":484},{""cat"":4,""src"":9,""x"":0,""y"":315},{""cat"":32,""src"":9,""x"":39,""y"":191},{""cat"":17,""src"":9,""x"":34,""y"":364},{""cat"":4,""src"":0,""x"":1,""y"":435}]","[{""cat"":""32"",""src"":""3"",""x"":0,""y"":0},{""cat"":""32"",""src"":""9"",""x"":0,""y"":0},{""cat"":""4"",""src"":""0"",""x"":0,""y"":0},{""cat"":""4"",""src"":""5"",""x"":0,""y"":0},{""cat"":""17"",""src"":""2"",""x"":0,""y"":0},{""cat"":""4"",""src"":""9"",""x"":0,""y"":0},{""cat"":""17"",""src"":""9"",""x"":0,""y"":0},{""cat"":""32"",""src"":""18"",""x"":0,""y"":0},{""cat"":""17"",""src"":""12"",""x"":0,""y"":0}]","[{""cat"":32,""src"":3,""loc"":5},{""cat"":32,""src"":9,""loc"":7},{""cat"":4,""src"":0,""loc"":0},{""cat"":4,""src"":5,""loc"":8},{""cat"":17,""src"":2,""loc"":2},{""cat"":4,""src"":9,""loc"":6},{""cat"":17,""src"":9,""loc"":3},{""cat"":32,""src"":18,""loc"":1},{""cat"":17,""src"":12,""loc"":4}]","5","4,32,17,17,17,32,4,32,4,0,18,2,9,12,3,9,9,5,0,1,2,3,4,5,6,7,8,2,7,4,6,8,0,5,1,3",NA
"2039","sort_feedback","32","html-keyboard-response","59","1959802","0.0-4.0-25.0","1","2020-1-7 7:28:37","FISH",NA,NA,NA,NA,NA,NA,NA,NA,NA,NA,NA,NA,NA,NA
"19989","setup3",NA,"animation","60","1979793","0.0-4.0-26.0","1","2020-1-7 7:28:37","FISH",NA,NA,"[{""cat"":20,""src"":6,""loc"":4},{""cat"":6,""src"":9,""loc"":0},{""cat"":32,""src"":4,""loc"":8},{""cat"":6,""src"":15,""loc"":1},{""cat"":32,""src"":15,""loc"":7},{""cat"":20,""src"":7,""loc"":5},{""cat"":20,""src"":18,""loc"":3},{""cat"":6,""src"":3,""loc"":2},{""cat"":32,""src"":0,""loc"":6}]","3","1119,1103,1111,1118,1103,1112,1103,1112,1103,10004",NA,NA,NA,NA,NA,NA,NA,NA,NA
"2014","flanker_instructions","32","html-keyboard-response","61","1981811","0.0-4.0-27.0","1","2020-1-7 7:28:37","FISH",NA,NA,NA,NA,NA,NA,NA,NA,NA,NA,NA,NA,NA,NA
"668","flanker_test","39","image-keyboard-response","62","1983484","0.0-4.0-28.0-0.0","1","2020-1-7 7:28:37","FISH",NA,NA,NA,NA,NA,"congruent","right","TRUE",NA,NA,NA,NA,NA,NA
"371","flanker_test","37","image-keyboard-response","63","1984936","0.0-4.0-28.0-0.1","1","2020-1-7 7:28:37","FISH",NA,NA,NA,NA,NA,"congruent","left","TRUE",NA,NA,NA,NA,NA,NA
"565","flanker_test","37","image-keyboard-response","64","1986174","0.0-4.0-28.0-0.2","1","2020-1-7 7:28:37","FISH",NA,NA,NA,NA,NA,"incongruent","left","TRUE",NA,NA,NA,NA,NA,NA
"568","flanker_test","39","image-keyboard-response","65","1987679","0.0-4.0-28.0-0.3","1","2020-1-7 7:28:37","FISH",NA,NA,NA,NA,NA,"incongruent","right","TRUE",NA,NA,NA,NA,NA,NA
"44153","sort_trial",NA,"free-sort","66","2032462","0.0-4.0-29.0","1","2020-1-7 7:28:37","FISH",NA,NA,NA,NA,NA,NA,NA,NA,"[{""cat"":20,""src"":6,""x"":27,""y"":384},{""cat"":6,""src"":9,""x"":0,""y"":4},{""cat"":32,""src"":4,""x"":15,""y"":119},{""cat"":6,""src"":15,""x"":57,""y"":504},{""cat"":32,""src"":15,""x"":62,""y"":327},{""cat"":20,""src"":7,""x"":41,""y"":438},{""cat"":20,""src"":18,""x"":45,""y"":181},{""cat"":6,""src"":3,""x"":53,""y"":265},{""cat"":32,""src"":0,""x"":58,""y"":81}]","[{""cat"":""32"",""src"":""0"",""x"":0,""y"":0},{""cat"":""6"",""src"":""3"",""x"":63,""y"":256},{""cat"":""6"",""src"":""3"",""x"":355,""y"":191},{""cat"":""6"",""src"":""3"",""x"":0,""y"":0},{""cat"":""20"",""src"":""7"",""x"":0,""y"":0},{""cat"":""6"",""src"":""9"",""x"":0,""y"":0},{""cat"":""6"",""src"":""15"",""x"":0,""y"":0},{""cat"":""32"",""src"":""4"",""x"":0,""y"":0},{""cat"":""20"",""src"":""18"",""x"":0,""y"":0},{""cat"":""32"",""src"":""15"",""x"":0,""y"":0},{""cat"":""20"",""src"":""6"",""x"":0,""y"":0}]","[{""cat"":32,""src"":0,""loc"":6},{""cat"":6,""src"":3,""loc"":2},{""cat"":20,""src"":7,""loc"":5},{""cat"":6,""src"":9,""loc"":0},{""cat"":6,""src"":15,""loc"":1},{""cat"":32,""src"":4,""loc"":4},{""cat"":20,""src"":18,""loc"":3},{""cat"":32,""src"":15,""loc"":8},{""cat"":20,""src"":6,""loc"":7}]","6","6,6,6,20,32,20,32,20,32,9,15,3,18,4,7,0,6,15,0,1,2,3,4,5,6,7,8,3,4,1,6,5,2,0,8,7",NA
"1879","sort_feedback","32","html-keyboard-response","67","2034346","0.0-4.0-30.0","1","2020-1-7 7:28:37","FISH",NA,NA,NA,NA,NA,NA,NA,NA,NA,NA,NA,NA,NA,NA
"19980","setup5",NA,"animation","68","2054328","0.0-4.0-31.0","1","2020-1-7 7:28:37","FISH",NA,NA,"[{""cat"":16,""src"":11,""loc"":5},{""cat"":8,""src"":4,""loc"":2},{""cat"":13,""src"":7,""loc"":8},{""cat"":16,""src"":10,""loc"":1},{""cat"":8,""src"":3,""loc"":7},{""cat"":13,""src"":10,""loc"":3},{""cat"":16,""src"":1,""loc"":6},{""cat"":13,""src"":16,""loc"":0},{""cat"":8,""src"":7,""loc"":4}]","5","1104,1106,1117,1119,1104,1104,1106,1108,1106,10006",NA,NA,NA,NA,NA,NA,NA,NA,NA
"2056","flanker_instructions","32","html-keyboard-response","69","2056388","0.0-4.0-32.0","1","2020-1-7 7:28:37","FISH",NA,NA,NA,NA,NA,NA,NA,NA,NA,NA,NA,NA,NA,NA
"472","flanker_test","39","image-keyboard-response","70","2057868","0.0-4.0-33.0-0.0","1","2020-1-7 7:28:37","FISH",NA,NA,NA,NA,NA,"congruent","right","TRUE",NA,NA,NA,NA,NA,NA
"557","flanker_test","37","image-keyboard-response","71","2059502","0.0-4.0-33.0-0.1","1","2020-1-7 7:28:37","FISH",NA,NA,NA,NA,NA,"incongruent","left","TRUE",NA,NA,NA,NA,NA,NA
"502","flanker_test","39","image-keyboard-response","72","2060967","0.0-4.0-33.0-0.2","1","2020-1-7 7:28:37","FISH",NA,NA,NA,NA,NA,"incongruent","right","TRUE",NA,NA,NA,NA,NA,NA
"423","flanker_test","37","image-keyboard-response","73","2061904","0.0-4.0-33.0-0.3","1","2020-1-7 7:28:37","FISH",NA,NA,NA,NA,NA,"congruent","left","TRUE",NA,NA,NA,NA,NA,NA
"43291","sort_trial",NA,"free-sort","74","2105789","0.0-4.0-34.0","1","2020-1-7 7:28:37","FISH",NA,NA,NA,NA,NA,NA,NA,NA,"[{""cat"":16,""src"":11,""x"":4,""y"":447},{""cat"":8,""src"":4,""x"":37,""y"":11},{""cat"":13,""src"":7,""x"":15,""y"":373},{""cat"":16,""src"":10,""x"":9,""y"":144},{""cat"":8,""src"":3,""x"":81,""y"":205},{""cat"":13,""src"":10,""x"":11,""y"":501},{""cat"":16,""src"":1,""x"":30,""y"":247},{""cat"":13,""src"":16,""x"":47,""y"":312},{""cat"":8,""src"":7,""x"":16,""y"":68}]","[{""cat"":""8"",""src"":""4"",""x"":0,""y"":0},{""cat"":""16"",""src"":""1"",""x"":0,""y"":0},{""cat"":""8"",""src"":""3"",""x"":0,""y"":0},{""cat"":""16"",""src"":""11"",""x"":0,""y"":0},{""cat"":""16"",""src"":""10"",""x"":0,""y"":0},{""cat"":""13"",""src"":""16"",""x"":0,""y"":0},{""cat"":""13"",""src"":""7"",""x"":0,""y"":0},{""cat"":""8"",""src"":""7"",""x"":0,""y"":0},{""cat"":""13"",""src"":""10"",""x"":0,""y"":0}]","[{""cat"":8,""src"":4,""loc"":2},{""cat"":16,""src"":1,""loc"":6},{""cat"":8,""src"":3,""loc"":7},{""cat"":16,""src"":11,""loc"":5},{""cat"":16,""src"":10,""loc"":1},{""cat"":13,""src"":16,""loc"":3},{""cat"":13,""src"":7,""loc"":4},{""cat"":8,""src"":7,""loc"":0},{""cat"":13,""src"":10,""loc"":8}]","5","8,16,8,13,13,16,16,8,13,7,10,4,16,7,11,1,3,10,0,1,2,3,4,5,6,7,8,7,4,0,5,6,3,1,2,8",NA
"1708","sort_feedback","32","html-keyboard-response","75","2107502","0.0-4.0-35.0","1","2020-1-7 7:28:37","FISH",NA,NA,NA,NA,NA,NA,NA,NA,NA,NA,NA,NA,NA,NA
"19999","setup4",NA,"animation","76","2127503","0.0-4.0-36.0","1","2020-1-7 7:28:37","FISH",NA,NA,"[{""cat"":26,""src"":0,""loc"":1},{""cat"":26,""src"":7,""loc"":8},{""cat"":26,""src"":15,""loc"":4},{""cat"":4,""src"":9,""loc"":2},{""cat"":4,""src"":3,""loc"":7},{""cat"":4,""src"":6,""loc"":3},{""cat"":15,""src"":6,""loc"":5},{""cat"":15,""src"":15,""loc"":6},{""cat"":15,""src"":17,""loc"":0}]","4","1117,1115,1112,1116,1104,1104,1103,1104,1107,10017",NA,NA,NA,NA,NA,NA,NA,NA,NA
"3779","flanker_instructions","32","html-keyboard-response","77","2131286","0.0-4.0-37.0","1","2020-1-7 7:28:37","FISH",NA,NA,NA,NA,NA,NA,NA,NA,NA,NA,NA,NA,NA,NA
"536","flanker_test","37","image-keyboard-response","78","2132827","0.0-4.0-38.0-0.0","1","2020-1-7 7:28:37","FISH",NA,NA,NA,NA,NA,"incongruent","left","TRUE",NA,NA,NA,NA,NA,NA
"385","flanker_test","39","image-keyboard-response","79","2134030","0.0-4.0-38.0-0.1","1","2020-1-7 7:28:37","FISH",NA,NA,NA,NA,NA,"congruent","right","TRUE",NA,NA,NA,NA,NA,NA
"393","flanker_test","37","image-keyboard-response","80","2134732","0.0-4.0-38.0-0.2","1","2020-1-7 7:28:37","FISH",NA,NA,NA,NA,NA,"congruent","left","TRUE",NA,NA,NA,NA,NA,NA
"363","flanker_test","39","image-keyboard-response","81","2136010","0.0-4.0-38.0-0.3","1","2020-1-7 7:28:37","FISH",NA,NA,NA,NA,NA,"incongruent","right","TRUE",NA,NA,NA,NA,NA,NA
"40282","sort_trial",NA,"free-sort","82","2176931","0.0-4.0-39.0","1","2020-1-7 7:28:37","FISH",NA,NA,NA,NA,NA,NA,NA,NA,"[{""cat"":26,""src"":0,""x"":33,""y"":120},{""cat"":26,""src"":7,""x"":67,""y"":425},{""cat"":26,""src"":15,""x"":0,""y"":87},{""cat"":4,""src"":9,""x"":13,""y"":184},{""cat"":4,""src"":3,""x"":73,""y"":260},{""cat"":4,""src"":6,""x"":3,""y"":501},{""cat"":15,""src"":6,""x"":21,""y"":14},{""cat"":15,""src"":15,""x"":76,""y"":321},{""cat"":15,""src"":17,""x"":26,""y"":378}]","[{""cat"":""26"",""src"":""0"",""x"":401,""y"":78},{""cat"":""26"",""src"":""0"",""x"":0,""y"":0},{""cat"":""15"",""src"":""17"",""x"":0,""y"":0},{""cat"":""15"",""src"":""6"",""x"":0,""y"":0},{""cat"":""4"",""src"":""6"",""x"":0,""y"":0},{""cat"":""4"",""src"":""3"",""x"":0,""y"":0},{""cat"":""15"",""src"":""15"",""x"":0,""y"":0},{""cat"":""26"",""src"":""7"",""x"":0,""y"":0},{""cat"":""4"",""src"":""9"",""x"":0,""y"":0},{""cat"":""26"",""src"":""15"",""x"":0,""y"":0}]","[{""cat"":26,""src"":0,""loc"":1},{""cat"":15,""src"":17,""loc"":0},{""cat"":15,""src"":6,""loc"":2},{""cat"":4,""src"":6,""loc"":3},{""cat"":4,""src"":3,""loc"":7},{""cat"":15,""src"":15,""loc"":6},{""cat"":26,""src"":7,""loc"":8},{""cat"":4,""src"":9,""loc"":5},{""cat"":26,""src"":15,""loc"":4}]","7","15,26,15,4,26,4,15,4,26,17,0,6,6,15,9,15,3,7,0,1,2,3,4,5,6,7,8,1,0,2,3,8,7,5,4,6",NA
"1647","sort_feedback","32","html-keyboard-response","83","2178582","0.0-4.0-40.0","1","2020-1-7 7:28:37","FISH",NA,NA,NA,NA,NA,NA,NA,NA,NA,NA,NA,NA,NA,NA
"19983","setup2",NA,"animation","84","2198566","0.0-4.0-41.0","1","2020-1-7 7:28:37","FISH",NA,NA,"[{""cat"":19,""src"":0,""loc"":0},{""cat"":22,""src"":13,""loc"":2},{""cat"":14,""src"":8,""loc"":1},{""cat"":22,""src"":12,""loc"":8},{""cat"":19,""src"":2,""loc"":6},{""cat"":14,""src"":14,""loc"":7},{""cat"":14,""src"":12,""loc"":5},{""cat"":19,""src"":18,""loc"":4},{""cat"":22,""src"":0,""loc"":3}]","2","1105,1114,1103,1104,1103,1115,1103,1106,1116,10014",NA,NA,NA,NA,NA,NA,NA,NA,NA
"1658","flanker_instructions","32","html-keyboard-response","85","2200229","0.0-4.0-42.0","1","2020-1-7 7:28:37","FISH",NA,NA,NA,NA,NA,NA,NA,NA,NA,NA,NA,NA,NA,NA
"486","flanker_test","39","image-keyboard-response","86","2201734","0.0-4.0-43.0-0.0","1","2020-1-7 7:28:37","FISH",NA,NA,NA,NA,NA,"incongruent","left","FALSE",NA,NA,NA,NA,NA,NA
"472","flanker_test","39","image-keyboard-response","87","2202568","0.0-4.0-43.0-0.1","1","2020-1-7 7:28:37","FISH",NA,NA,NA,NA,NA,"congruent","right","TRUE",NA,NA,NA,NA,NA,NA
"505","flanker_test","39","image-keyboard-response","88","2204190","0.0-4.0-43.0-0.2","1","2020-1-7 7:28:37","FISH",NA,NA,NA,NA,NA,"incongruent","right","TRUE",NA,NA,NA,NA,NA,NA
"468","flanker_test","37","image-keyboard-response","89","2205220","0.0-4.0-43.0-0.3","1","2020-1-7 7:28:37","FISH",NA,NA,NA,NA,NA,"congruent","left","TRUE",NA,NA,NA,NA,NA,NA
"37812","sort_trial",NA,"free-sort","90","2243766","0.0-4.0-44.0","1","2020-1-7 7:28:37","FISH",NA,NA,NA,NA,NA,NA,NA,NA,"[{""cat"":19,""src"":0,""x"":12,""y"":10},{""cat"":22,""src"":13,""x"":16,""y"":381},{""cat"":14,""src"":8,""x"":17,""y"":267},{""cat"":22,""src"":12,""x"":57,""y"":494},{""cat"":19,""src"":2,""x"":63,""y"":438},{""cat"":14,""src"":14,""x"":44,""y"":311},{""cat"":14,""src"":12,""x"":56,""y"":191},{""cat"":19,""src"":18,""x"":45,""y"":72},{""cat"":22,""src"":0,""x"":2,""y"":148}]","[{""cat"":""19"",""src"":""0"",""x"":0,""y"":0},{""cat"":""22"",""src"":""13"",""x"":0,""y"":0},{""cat"":""19"",""src"":""2"",""x"":0,""y"":0},{""cat"":""22"",""src"":""0"",""x"":0,""y"":0},{""cat"":""14"",""src"":""12"",""x"":0,""y"":0},{""cat"":""22"",""src"":""12"",""x"":0,""y"":0},{""cat"":""19"",""src"":""18"",""x"":0,""y"":0},{""cat"":""14"",""src"":""8"",""x"":0,""y"":0},{""cat"":""14"",""src"":""14"",""x"":0,""y"":0}]","[{""cat"":19,""src"":0,""loc"":0},{""cat"":22,""src"":13,""loc"":2},{""cat"":19,""src"":2,""loc"":6},{""cat"":22,""src"":0,""loc"":3},{""cat"":14,""src"":12,""loc"":5},{""cat"":22,""src"":12,""loc"":8},{""cat"":19,""src"":18,""loc"":1},{""cat"":14,""src"":8,""loc"":7},{""cat"":14,""src"":14,""loc"":4}]","6","19,19,22,22,14,14,19,14,22,0,18,13,0,14,12,2,8,12,0,1,2,3,4,5,6,7,8,0,6,1,3,8,4,2,7,5",NA
"5551","sort_feedback","32","html-keyboard-response","91","2249321","0.0-4.0-45.0","1","2020-1-7 7:28:37","FISH",NA,NA,NA,NA,NA,NA,NA,NA,NA,NA,NA,NA,NA,NA
"19996","setup1",NA,"animation","92","2269319","0.0-4.0-46.0","1","2020-1-7 7:28:37","FISH",NA,NA,"[{""cat"":18,""src"":1,""loc"":4},{""cat"":18,""src"":19,""loc"":5},{""cat"":18,""src"":2,""loc"":3},{""cat"":5,""src"":6,""loc"":1},{""cat"":5,""src"":13,""loc"":2},{""cat"":5,""src"":5,""loc"":0},{""cat"":19,""src"":9,""loc"":6},{""cat"":19,""src"":8,""loc"":7},{""cat"":19,""src"":11,""loc"":8}]","1","1119,1117,1103,1116,1111,1106,1112,1107,1103,10002",NA,NA,NA,NA,NA,NA,NA,NA,NA
"1217","flanker_instructions","32","html-keyboard-response","93","2270541","0.0-4.0-47.0","1","2020-1-7 7:28:37","FISH",NA,NA,NA,NA,NA,NA,NA,NA,NA,NA,NA,NA,NA,NA
NA,"flanker_test",NA,"image-keyboard-response","94","2272479","0.0-4.0-48.0-0.0","1","2020-1-7 7:28:37","FISH",NA,NA,NA,NA,NA,"incongruent","right","FALSE",NA,NA,NA,NA,NA,NA
"407","flanker_test","37","image-keyboard-response","95","2273260","0.0-4.0-48.0-0.1","1","2020-1-7 7:28:37","FISH",NA,NA,NA,NA,NA,"congruent","left","TRUE",NA,NA,NA,NA,NA,NA
"639","flanker_test","37","image-keyboard-response","96","2274293","0.0-4.0-48.0-0.2","1","2020-1-7 7:28:37","FISH",NA,NA,NA,NA,NA,"incongruent","left","TRUE",NA,NA,NA,NA,NA,NA
"481","flanker_test","39","image-keyboard-response","97","2275741","0.0-4.0-48.0-0.3","1","2020-1-7 7:28:37","FISH",NA,NA,NA,NA,NA,"congruent","right","TRUE",NA,NA,NA,NA,NA,NA
"33805","sort_trial",NA,"free-sort","98","2309857","0.0-4.0-49.0","1","2020-1-7 7:28:37","FISH",NA,NA,NA,NA,NA,NA,NA,NA,"[{""cat"":18,""src"":1,""x"":54,""y"":120},{""cat"":18,""src"":19,""x"":46,""y"":327},{""cat"":18,""src"":2,""x"":64,""y"":203},{""cat"":5,""src"":6,""x"":31,""y"":483},{""cat"":5,""src"":13,""x"":30,""y"":74},{""cat"":5,""src"":5,""x"":64,""y"":430},{""cat"":19,""src"":9,""x"":16,""y"":374},{""cat"":19,""src"":8,""x"":1,""y"":261},{""cat"":19,""src"":11,""x"":34,""y"":8}]","[{""cat"":""5"",""src"":""6"",""x"":0,""y"":0},{""cat"":""5"",""src"":""5"",""x"":0,""y"":0},{""cat"":""5"",""src"":""13"",""x"":0,""y"":0},{""cat"":""18"",""src"":""19"",""x"":0,""y"":0},{""cat"":""18"",""src"":""2"",""x"":0,""y"":0},{""cat"":""18"",""src"":""1"",""x"":0,""y"":0},{""cat"":""19"",""src"":""8"",""x"":0,""y"":0},{""cat"":""19"",""src"":""9"",""x"":0,""y"":0},{""cat"":""19"",""src"":""11"",""x"":0,""y"":0}]","[{""cat"":5,""src"":6,""loc"":1},{""cat"":5,""src"":5,""loc"":0},{""cat"":5,""src"":13,""loc"":2},{""cat"":18,""src"":19,""loc"":5},{""cat"":18,""src"":2,""loc"":3},{""cat"":18,""src"":1,""loc"":4},{""cat"":19,""src"":8,""loc"":7},{""cat"":19,""src"":9,""loc"":6},{""cat"":19,""src"":11,""loc"":8}]","9","5,5,5,18,18,18,19,19,19,5,6,13,2,1,19,9,8,11,0,1,2,3,4,5,6,7,8,1,0,2,4,5,3,7,6,8",NA
"2010","sort_feedback","32","html-keyboard-response","99","2311874","0.0-4.0-50.0","1","2020-1-7 7:28:37","FISH",NA,NA,NA,NA,NA,NA,NA,NA,NA,NA,NA,NA,NA,NA
"19969","setup4",NA,"animation","100","2331846","0.0-4.0-51.0","1","2020-1-7 7:28:37","FISH",NA,NA,"[{""cat"":33,""src"":2,""loc"":1},{""cat"":33,""src"":15,""loc"":5},{""cat"":33,""src"":0,""loc"":6},{""cat"":4,""src"":12,""loc"":2},{""cat"":4,""src"":13,""loc"":3},{""cat"":4,""src"":6,""loc"":7},{""cat"":9,""src"":12,""loc"":4},{""cat"":9,""src"":6,""loc"":0},{""cat"":9,""src"":16,""loc"":8}]","4","1108,1103,1110,1103,1118,1105,1108,1104,1109,10001",NA,NA,NA,NA,NA,NA,NA,NA,NA
"4424","flanker_instructions","32","html-keyboard-response","101","2336274","0.0-4.0-52.0","1","2020-1-7 7:28:37","FISH",NA,NA,NA,NA,NA,NA,NA,NA,NA,NA,NA,NA,NA,NA
"571","flanker_test","39","image-keyboard-response","102","2337851","0.0-4.0-53.0-0.0","1","2020-1-7 7:28:37","FISH",NA,NA,NA,NA,NA,"congruent","right","TRUE",NA,NA,NA,NA,NA,NA
"578","flanker_test","39","image-keyboard-response","103","2338883","0.0-4.0-53.0-0.1","1","2020-1-7 7:28:37","FISH",NA,NA,NA,NA,NA,"incongruent","right","TRUE",NA,NA,NA,NA,NA,NA
"418","flanker_test","37","image-keyboard-response","104","2340099","0.0-4.0-53.0-0.2","1","2020-1-7 7:28:37","FISH",NA,NA,NA,NA,NA,"congruent","left","TRUE",NA,NA,NA,NA,NA,NA
"532","flanker_test","37","image-keyboard-response","105","2341243","0.0-4.0-53.0-0.3","1","2020-1-7 7:28:37","FISH",NA,NA,NA,NA,NA,"incongruent","left","TRUE",NA,NA,NA,NA,NA,NA
"32147","sort_trial",NA,"free-sort","106","2373822","0.0-4.0-54.0","1","2020-1-7 7:28:37","FISH",NA,NA,NA,NA,NA,NA,NA,NA,"[{""cat"":33,""src"":2,""x"":46,""y"":245},{""cat"":33,""src"":15,""x"":73,""y"":123},{""cat"":33,""src"":0,""x"":47,""y"":326},{""cat"":4,""src"":12,""x"":65,""y"":447},{""cat"":4,""src"":13,""x"":5,""y"":5},{""cat"":4,""src"":6,""x"":41,""y"":485},{""cat"":9,""src"":12,""x"":0,""y"":76},{""cat"":9,""src"":6,""x"":77,""y"":205},{""cat"":9,""src"":16,""x"":71,""y"":362}]","[{""cat"":""9"",""src"":""6"",""x"":0,""y"":0},{""cat"":""4"",""src"":""12"",""x"":0,""y"":0},{""cat"":""33"",""src"":""2"",""x"":0,""y"":0},{""cat"":""33"",""src"":""15"",""x"":0,""y"":0},{""cat"":""9"",""src"":""12"",""x"":0,""y"":0},{""cat"":""4"",""src"":""13"",""x"":0,""y"":0},{""cat"":""4"",""src"":""6"",""x"":0,""y"":0},{""cat"":""9"",""src"":""16"",""x"":0,""y"":0},{""cat"":""33"",""src"":""0"",""x"":0,""y"":0}]","[{""cat"":9,""src"":6,""loc"":0},{""cat"":4,""src"":12,""loc"":2},{""cat"":33,""src"":2,""loc"":1},{""cat"":33,""src"":15,""loc"":4},{""cat"":9,""src"":12,""loc"":5},{""cat"":4,""src"":13,""loc"":3},{""cat"":4,""src"":6,""loc"":8},{""cat"":9,""src"":16,""loc"":6},{""cat"":33,""src"":0,""loc"":7}]","4","9,33,4,4,33,9,9,33,4,6,2,12,13,15,12,16,0,6,0,1,2,3,4,5,6,7,8,0,2,1,5,3,4,7,8,6",NA
"1853","sort_feedback","32","html-keyboard-response","107","2375680","0.0-4.0-55.0","1","2020-1-7 7:28:37","FISH",NA,NA,NA,NA,NA,NA,NA,NA,NA,NA,NA,NA,NA,NA
"19985","setup5",NA,"animation","108","2395667","0.0-4.0-56.0","1","2020-1-7 7:28:37","FISH",NA,NA,"[{""cat"":10,""src"":4,""loc"":1},{""cat"":23,""src"":10,""loc"":8},{""cat"":27,""src"":8,""loc"":3},{""cat"":27,""src"":10,""loc"":6},{""cat"":23,""src"":4,""loc"":2},{""cat"":10,""src"":11,""loc"":5},{""cat"":23,""src"":0,""loc"":4},{""cat"":27,""src"":15,""loc"":0},{""cat"":10,""src"":9,""loc"":7}]","5","1109,1112,1115,1111,1103,1115,1103,1107,1107,10003",NA,NA,NA,NA,NA,NA,NA,NA,NA
"1510","flanker_instructions","32","html-keyboard-response","109","2397181","0.0-4.0-57.0","1","2020-1-7 7:28:37","FISH",NA,NA,NA,NA,NA,NA,NA,NA,NA,NA,NA,NA,NA,NA
"547","flanker_test","39","image-keyboard-response","110","2398736","0.0-4.0-58.0-0.0","1","2020-1-7 7:28:37","FISH",NA,NA,NA,NA,NA,"incongruent","right","TRUE",NA,NA,NA,NA,NA,NA
"421","flanker_test","37","image-keyboard-response","111","2400362","0.0-4.0-58.0-0.1","1","2020-1-7 7:28:37","FISH",NA,NA,NA,NA,NA,"congruent","left","TRUE",NA,NA,NA,NA,NA,NA
"547","flanker_test","37","image-keyboard-response","112","2401380","0.0-4.0-58.0-0.2","1","2020-1-7 7:28:37","FISH",NA,NA,NA,NA,NA,"incongruent","left","TRUE",NA,NA,NA,NA,NA,NA
"357","flanker_test","39","image-keyboard-response","113","2402280","0.0-4.0-58.0-0.3","1","2020-1-7 7:28:37","FISH",NA,NA,NA,NA,NA,"congruent","right","TRUE",NA,NA,NA,NA,NA,NA
"30656","sort_trial",NA,"free-sort","114","2433897","0.0-4.0-59.0","1","2020-1-7 7:28:37","FISH",NA,NA,NA,NA,NA,NA,NA,NA,"[{""cat"":10,""src"":4,""x"":22,""y"":24},{""cat"":23,""src"":10,""x"":78,""y"":201},{""cat"":27,""src"":8,""x"":43,""y"":381},{""cat"":27,""src"":10,""x"":49,""y"":439},{""cat"":23,""src"":4,""x"":72,""y"":300},{""cat"":10,""src"":11,""x"":65,""y"":258},{""cat"":23,""src"":0,""x"":11,""y"":486},{""cat"":27,""src"":15,""x"":32,""y"":83},{""cat"":10,""src"":9,""x"":66,""y"":127}]","[{""cat"":""10"",""src"":""4"",""x"":0,""y"":0},{""cat"":""27"",""src"":""15"",""x"":0,""y"":0},{""cat"":""23"",""src"":""4"",""x"":0,""y"":0},{""cat"":""27"",""src"":""10"",""x"":0,""y"":0},{""cat"":""10"",""src"":""9"",""x"":0,""y"":0},{""cat"":""23"",""src"":""10"",""x"":0,""y"":0},{""cat"":""10"",""src"":""11"",""x"":0,""y"":0},{""cat"":""27"",""src"":""8"",""x"":700,""y"":253},{""cat"":""27"",""src"":""8"",""x"":0,""y"":0},{""cat"":""23"",""src"":""0"",""x"":0,""y"":0}]","[{""cat"":10,""src"":4,""loc"":1},{""cat"":27,""src"":15,""loc"":0},{""cat"":23,""src"":4,""loc"":6},{""cat"":27,""src"":10,""loc"":2},{""cat"":10,""src"":9,""loc"":7},{""cat"":23,""src"":10,""loc"":8},{""cat"":10,""src"":11,""loc"":5},{""cat"":27,""src"":8,""loc"":3},{""cat"":23,""src"":0,""loc"":4}]","7","27,10,27,27,23,10,23,10,23,15,4,10,8,0,11,4,9,10,0,1,2,3,4,5,6,7,8,1,0,3,7,8,6,2,4,5",NA
"1896","sort_feedback","32","html-keyboard-response","115","2435798","0.0-4.0-60.0","1","2020-1-7 7:28:37","FISH",NA,NA,NA,NA,NA,NA,NA,NA,NA,NA,NA,NA,NA,NA
"20002","setup3",NA,"animation","116","2455801","0.0-4.0-61.0","1","2020-1-7 7:28:37","FISH",NA,NA,"[{""cat"":33,""src"":18,""loc"":1},{""cat"":12,""src"":17,""loc"":7},{""cat"":10,""src"":15,""loc"":5},{""cat"":12,""src"":2,""loc"":8},{""cat"":33,""src"":1,""loc"":0},{""cat"":10,""src"":9,""loc"":4},{""cat"":10,""src"":19,""loc"":3},{""cat"":12,""src"":14,""loc"":6},{""cat"":33,""src"":5,""loc"":2}]","3","1119,1103,1116,1106,1115,1103,1108,1111,1118,10003",NA,NA,NA,NA,NA,NA,NA,NA,NA
"1434","flanker_instructions","32","html-keyboard-response","117","2457241","0.0-4.0-62.0","1","2020-1-7 7:28:37","FISH",NA,NA,NA,NA,NA,NA,NA,NA,NA,NA,NA,NA,NA,NA
"550","flanker_test","39","image-keyboard-response","118","2458796","0.0-4.0-63.0-0.0","1","2020-1-7 7:28:37","FISH",NA,NA,NA,NA,NA,"incongruent","right","TRUE",NA,NA,NA,NA,NA,NA
"477","flanker_test","39","image-keyboard-response","119","2460423","0.0-4.0-63.0-0.1","1","2020-1-7 7:28:37","FISH",NA,NA,NA,NA,NA,"congruent","right","TRUE",NA,NA,NA,NA,NA,NA
"434","flanker_test","37","image-keyboard-response","120","2461508","0.0-4.0-63.0-0.2","1","2020-1-7 7:28:37","FISH",NA,NA,NA,NA,NA,"congruent","left","TRUE",NA,NA,NA,NA,NA,NA
"438","flanker_test","37","image-keyboard-response","121","2462452","0.0-4.0-63.0-0.3","1","2020-1-7 7:28:37","FISH",NA,NA,NA,NA,NA,"incongruent","left","TRUE",NA,NA,NA,NA,NA,NA
"34192","sort_trial",NA,"free-sort","122","2497102","0.0-4.0-64.0","1","2020-1-7 7:28:37","FISH",NA,NA,NA,NA,NA,NA,NA,NA,"[{""cat"":33,""src"":18,""x"":13,""y"":315},{""cat"":12,""src"":17,""x"":33,""y"":260},{""cat"":10,""src"":15,""x"":34,""y"":6},{""cat"":12,""src"":2,""x"":80,""y"":428},{""cat"":33,""src"":1,""x"":72,""y"":507},{""cat"":10,""src"":9,""x"":21,""y"":376},{""cat"":10,""src"":19,""x"":10,""y"":68},{""cat"":12,""src"":14,""x"":79,""y"":200},{""cat"":33,""src"":5,""x"":43,""y"":133}]","[{""cat"":""33"",""src"":""18"",""x"":0,""y"":0},{""cat"":""33"",""src"":""1"",""x"":0,""y"":0},{""cat"":""33"",""src"":""5"",""x"":0,""y"":0},{""cat"":""10"",""src"":""15"",""x"":0,""y"":0},{""cat"":""12"",""src"":""14"",""x"":0,""y"":0},{""cat"":""12"",""src"":""2"",""x"":0,""y"":0},{""cat"":""10"",""src"":""9"",""x"":0,""y"":0},{""cat"":""10"",""src"":""19"",""x"":0,""y"":0},{""cat"":""12"",""src"":""17"",""x"":0,""y"":0}]","[{""cat"":33,""src"":18,""loc"":1},{""cat"":33,""src"":1,""loc"":0},{""cat"":33,""src"":5,""loc"":2},{""cat"":10,""src"":15,""loc"":5},{""cat"":12,""src"":14,""loc"":6},{""cat"":12,""src"":2,""loc"":8},{""cat"":10,""src"":9,""loc"":7},{""cat"":10,""src"":19,""loc"":4},{""cat"":12,""src"":17,""loc"":3}]","6","33,33,33,12,10,10,12,10,12,1,18,5,17,19,15,14,9,2,0,1,2,3,4,5,6,7,8,1,0,2,8,7,3,4,6,5",NA
"1639","sort_feedback","32","html-keyboard-response","123","2498744","0.0-4.0-65.0","1","2020-1-7 7:28:37","FISH",NA,NA,NA,NA,NA,NA,NA,NA,NA,NA,NA,NA,NA,NA
"20005","setup1",NA,"animation","124","2518752","0.0-4.0-66.0","1","2020-1-7 7:28:37","FISH",NA,NA,"[{""cat"":26,""src"":15,""loc"":3},{""cat"":26,""src"":4,""loc"":5},{""cat"":26,""src"":7,""loc"":4},{""cat"":27,""src"":9,""loc"":6},{""cat"":27,""src"":17,""loc"":7},{""cat"":27,""src"":10,""loc"":8},{""cat"":8,""src"":12,""loc"":0},{""cat"":8,""src"":13,""loc"":2},{""cat"":8,""src"":0,""loc"":1}]","1","1119,1109,1109,1103,1115,1104,1110,1104,1116,10016",NA,NA,NA,NA,NA,NA,NA,NA,NA
"533","flanker_instructions","32","html-keyboard-response","125","2519289","0.0-4.0-67.0","1","2020-1-7 7:28:37","FISH",NA,NA,NA,NA,NA,NA,NA,NA,NA,NA,NA,NA,NA,NA
"512","flanker_test","39","image-keyboard-response","126","2520807","0.0-4.0-68.0-0.0","1","2020-1-7 7:28:37","FISH",NA,NA,NA,NA,NA,"congruent","right","TRUE",NA,NA,NA,NA,NA,NA
"463","flanker_test","39","image-keyboard-response","127","2522346","0.0-4.0-68.0-0.1","1","2020-1-7 7:28:37","FISH",NA,NA,NA,NA,NA,"incongruent","right","TRUE",NA,NA,NA,NA,NA,NA
"422","flanker_test","37","image-keyboard-response","128","2523851","0.0-4.0-68.0-0.2","1","2020-1-7 7:28:37","FISH",NA,NA,NA,NA,NA,"incongruent","left","TRUE",NA,NA,NA,NA,NA,NA
"370","flanker_test","37","image-keyboard-response","129","2525437","0.0-4.0-68.0-0.3","1","2020-1-7 7:28:37","FISH",NA,NA,NA,NA,NA,"congruent","left","TRUE",NA,NA,NA,NA,NA,NA
"43277","sort_trial",NA,"free-sort","130","2569177","0.0-4.0-69.0","1","2020-1-7 7:28:37","FISH",NA,NA,NA,NA,NA,NA,NA,NA,"[{""cat"":26,""src"":15,""x"":64,""y"":309},{""cat"":26,""src"":4,""x"":83,""y"":63},{""cat"":26,""src"":7,""x"":62,""y"":250},{""cat"":27,""src"":9,""x"":39,""y"":12},{""cat"":27,""src"":17,""x"":14,""y"":204},{""cat"":27,""src"":10,""x"":8,""y"":484},{""cat"":8,""src"":12,""x"":40,""y"":128},{""cat"":8,""src"":13,""x"":27,""y"":444},{""cat"":8,""src"":0,""x"":41,""y"":365}]","[{""cat"":""8"",""src"":""0"",""x"":0,""y"":0},{""cat"":""8"",""src"":""12"",""x"":0,""y"":0},{""cat"":""8"",""src"":""13"",""x"":0,""y"":0},{""cat"":""26"",""src"":""4"",""x"":0,""y"":0},{""cat"":""26"",""src"":""15"",""x"":0,""y"":0},{""cat"":""26"",""src"":""7"",""x"":0,""y"":0},{""cat"":""27"",""src"":""10"",""x"":0,""y"":0},{""cat"":""27"",""src"":""17"",""x"":0,""y"":0},{""cat"":""27"",""src"":""9"",""x"":0,""y"":0}]","[{""cat"":8,""src"":0,""loc"":1},{""cat"":8,""src"":12,""loc"":0},{""cat"":8,""src"":13,""loc"":2},{""cat"":26,""src"":4,""loc"":5},{""cat"":26,""src"":15,""loc"":3},{""cat"":26,""src"":7,""loc"":4},{""cat"":27,""src"":10,""loc"":6},{""cat"":27,""src"":17,""loc"":7},{""cat"":27,""src"":9,""loc"":8}]","7","8,8,8,26,26,26,27,27,27,12,0,13,15,7,4,10,17,9,0,1,2,3,4,5,6,7,8,1,0,2,4,5,3,6,7,8",NA
"2864","sort_feedback","32","html-keyboard-response","131","2572045","0.0-4.0-70.0","1","2020-1-7 7:28:37","FISH",NA,NA,NA,NA,NA,NA,NA,NA,NA,NA,NA,NA,NA,NA
"20007","setup2",NA,"animation","132","2592054","0.0-4.0-71.0","1","2020-1-7 7:28:37","FISH",NA,NA,"[{""cat"":29,""src"":15,""loc"":8},{""cat"":32,""src"":2,""loc"":7},{""cat"":14,""src"":8,""loc"":6},{""cat"":32,""src"":12,""loc"":3},{""cat"":29,""src"":14,""loc"":4},{""cat"":14,""src"":5,""loc"":5},{""cat"":32,""src"":18,""loc"":1},{""cat"":14,""src"":12,""loc"":2},{""cat"":29,""src"":2,""loc"":0}]","2","1119,1106,1117,1106,1104,1115,1107,1104,1117,10012",NA,NA,NA,NA,NA,NA,NA,NA,NA
"1329","flanker_instructions","32","html-keyboard-response","133","2593387","0.0-4.0-72.0","1","2020-1-7 7:28:37","FISH",NA,NA,NA,NA,NA,NA,NA,NA,NA,NA,NA,NA,NA,NA
"553","flanker_test","37","image-keyboard-response","134","2594945","0.0-4.0-73.0-0.0","1","2020-1-7 7:28:37","FISH",NA,NA,NA,NA,NA,"incongruent","left","TRUE",NA,NA,NA,NA,NA,NA
"456","flanker_test","39","image-keyboard-response","135","2596452","0.0-4.0-73.0-0.1","1","2020-1-7 7:28:37","FISH",NA,NA,NA,NA,NA,"incongruent","right","TRUE",NA,NA,NA,NA,NA,NA
"423","flanker_test","37","image-keyboard-response","136","2597693","0.0-4.0-73.0-0.2","1","2020-1-7 7:28:37","FISH",NA,NA,NA,NA,NA,"congruent","left","TRUE",NA,NA,NA,NA,NA,NA
"450","flanker_test","39","image-keyboard-response","137","2599014","0.0-4.0-73.0-0.3","1","2020-1-7 7:28:37","FISH",NA,NA,NA,NA,NA,"congruent","right","TRUE",NA,NA,NA,NA,NA,NA
"37685","sort_trial",NA,"free-sort","138","2637073","0.0-4.0-74.0","1","2020-1-7 7:28:37","FISH",NA,NA,NA,NA,NA,NA,NA,NA,"[{""cat"":29,""src"":15,""x"":60,""y"":322},{""cat"":32,""src"":2,""x"":68,""y"":5},{""cat"":14,""src"":8,""x"":43,""y"":491},{""cat"":32,""src"":12,""x"":81,""y"":429},{""cat"":29,""src"":14,""x"":79,""y"":368},{""cat"":14,""src"":5,""x"":31,""y"":121},{""cat"":32,""src"":18,""x"":35,""y"":202},{""cat"":14,""src"":12,""x"":28,""y"":265},{""cat"":29,""src"":2,""x"":25,""y"":66}]","[{""cat"":""32"",""src"":""18"",""x"":0,""y"":0},{""cat"":""29"",""src"":""2"",""x"":0,""y"":0},{""cat"":""14"",""src"":""12"",""x"":0,""y"":0},{""cat"":""32"",""src"":""2"",""x"":0,""y"":0},{""cat"":""29"",""src"":""15"",""x"":0,""y"":0},{""cat"":""14"",""src"":""8"",""x"":0,""y"":0},{""cat"":""14"",""src"":""5"",""x"":0,""y"":0},{""cat"":""32"",""src"":""12"",""x"":0,""y"":0},{""cat"":""29"",""src"":""14"",""x"":0,""y"":0}]","[{""cat"":32,""src"":18,""loc"":1},{""cat"":29,""src"":2,""loc"":0},{""cat"":14,""src"":12,""loc"":2},{""cat"":32,""src"":2,""loc"":7},{""cat"":29,""src"":15,""loc"":8},{""cat"":14,""src"":8,""loc"":3},{""cat"":14,""src"":5,""loc"":5},{""cat"":32,""src"":12,""loc"":6},{""cat"":29,""src"":14,""loc"":4}]","7","29,32,14,14,29,14,32,32,29,2,18,12,8,14,5,12,2,15,0,1,2,3,4,5,6,7,8,1,0,2,5,8,6,7,3,4",NA
"53792","sort_feedback","32","html-keyboard-response","139","2690869","0.0-4.0-75.0","1","2020-1-7 7:28:37","FISH",NA,NA,NA,NA,NA,NA,NA,NA,NA,NA,NA,NA,NA,NA
"20015","setup5",NA,"animation","140","2710887","0.0-4.0-76.0","1","2020-1-7 7:28:37","FISH",NA,NA,"[{""cat"":17,""src"":5,""loc"":8},{""cat"":32,""src"":6,""loc"":0},{""cat"":28,""src"":9,""loc"":3},{""cat"":28,""src"":14,""loc"":2},{""cat"":17,""src"":7,""loc"":5},{""cat"":32,""src"":7,""loc"":6},{""cat"":32,""src"":8,""loc"":4},{""cat"":17,""src"":13,""loc"":1},{""cat"":28,""src"":5,""loc"":7}]","5","1109,1114,1113,1103,1117,1116,1118,1103,1115,10007",NA,NA,NA,NA,NA,NA,NA,NA,NA
"1114","flanker_instructions","32","html-keyboard-response","141","2712006","0.0-4.0-77.0","1","2020-1-7 7:28:37","FISH",NA,NA,NA,NA,NA,NA,NA,NA,NA,NA,NA,NA,NA,NA
"634","flanker_test","37","image-keyboard-response","142","2713658","0.0-4.0-78.0-0.0","1","2020-1-7 7:28:37","FISH",NA,NA,NA,NA,NA,"incongruent","left","TRUE",NA,NA,NA,NA,NA,NA
"520","flanker_test","39","image-keyboard-response","143","2714578","0.0-4.0-78.0-0.1","1","2020-1-7 7:28:37","FISH",NA,NA,NA,NA,NA,"incongruent","right","TRUE",NA,NA,NA,NA,NA,NA
"363","flanker_test","39","image-keyboard-response","144","2716084","0.0-4.0-78.0-0.2","1","2020-1-7 7:28:37","FISH",NA,NA,NA,NA,NA,"congruent","right","TRUE",NA,NA,NA,NA,NA,NA
"487","flanker_test","37","image-keyboard-response","145","2717118","0.0-4.0-78.0-0.3","1","2020-1-7 7:28:37","FISH",NA,NA,NA,NA,NA,"congruent","left","TRUE",NA,NA,NA,NA,NA,NA
"47417","sort_trial",NA,"free-sort","146","2765163","0.0-4.0-79.0","1","2020-1-7 7:28:37","FISH",NA,NA,NA,NA,NA,NA,NA,NA,"[{""cat"":17,""src"":5,""x"":44,""y"":249},{""cat"":32,""src"":6,""x"":39,""y"":77},{""cat"":28,""src"":9,""x"":46,""y"":14},{""cat"":28,""src"":14,""x"":60,""y"":498},{""cat"":17,""src"":7,""x"":17,""y"":447},{""cat"":32,""src"":7,""x"":7,""y"":147},{""cat"":32,""src"":8,""x"":67,""y"":369},{""cat"":17,""src"":13,""x"":73,""y"":305},{""cat"":28,""src"":5,""x"":16,""y"":193}]","[{""cat"":""28"",""src"":""14"",""x"":0,""y"":0},{""cat"":""28"",""src"":""5"",""x"":0,""y"":0},{""cat"":""32"",""src"":""7"",""x"":0,""y"":0},{""cat"":""17"",""src"":""5"",""x"":0,""y"":0},{""cat"":""32"",""src"":""6"",""x"":0,""y"":0},{""cat"":""17"",""src"":""7"",""x"":0,""y"":0},{""cat"":""17"",""src"":""13"",""x"":0,""y"":0},{""cat"":""32"",""src"":""8"",""x"":0,""y"":0},{""cat"":""28"",""src"":""9"",""x"":0,""y"":0}]","[{""cat"":28,""src"":14,""loc"":2},{""cat"":28,""src"":5,""loc"":7},{""cat"":32,""src"":7,""loc"":6},{""cat"":17,""src"":5,""loc"":8},{""cat"":32,""src"":6,""loc"":0},{""cat"":17,""src"":7,""loc"":5},{""cat"":17,""src"":13,""loc"":4},{""cat"":32,""src"":8,""loc"":3},{""cat"":28,""src"":9,""loc"":1}]","6","32,28,28,32,17,17,32,28,17,6,9,14,8,13,7,7,5,5,0,1,2,3,4,5,6,7,8,4,8,0,7,6,5,2,1,3",NA
"2130","sort_feedback","32","html-keyboard-response","147","2767298","0.0-4.0-80.0","1","2020-1-7 7:28:37","FISH",NA,NA,NA,NA,NA,NA,NA,NA,NA,NA,NA,NA,NA,NA
"19969","setup3",NA,"animation","148","2787268","0.0-4.0-81.0","1","2020-1-7 7:28:37","FISH",NA,NA,"[{""cat"":10,""src"":2,""loc"":5},{""cat"":16,""src"":14,""loc"":2},{""cat"":17,""src"":17,""loc"":6},{""cat"":10,""src"":5,""loc"":4},{""cat"":16,""src"":3,""loc"":1},{""cat"":17,""src"":3,""loc"":8},{""cat"":10,""src"":6,""loc"":3},{""cat"":17,""src"":13,""loc"":7},{""cat"":16,""src"":4,""loc"":0}]","3","1104,1108,1105,1104,1114,1106,1110,1108,1108,10001",NA,NA,NA,NA,NA,NA,NA,NA,NA
"5022","flanker_instructions","32","html-keyboard-response","149","2792293","0.0-4.0-82.0","1","2020-1-7 7:28:37","FISH",NA,NA,NA,NA,NA,NA,NA,NA,NA,NA,NA,NA,NA,NA
NA,"flanker_test",NA,"image-keyboard-response","150","2794203","0.0-4.0-83.0-0.0","1","2020-1-7 7:28:37","FISH",NA,NA,NA,NA,NA,"congruent","right","FALSE",NA,NA,NA,NA,NA,NA
"438","flanker_test","37","image-keyboard-response","151","2795224","0.0-4.0-83.0-0.1","1","2020-1-7 7:28:37","FISH",NA,NA,NA,NA,NA,"congruent","left","TRUE",NA,NA,NA,NA,NA,NA
"601","flanker_test","37","image-keyboard-response","152","2796234","0.0-4.0-83.0-0.2","1","2020-1-7 7:28:37","FISH",NA,NA,NA,NA,NA,"incongruent","left","TRUE",NA,NA,NA,NA,NA,NA
"434","flanker_test","39","image-keyboard-response","153","2797251","0.0-4.0-83.0-0.3","1","2020-1-7 7:28:37","FISH",NA,NA,NA,NA,NA,"incongruent","right","TRUE",NA,NA,NA,NA,NA,NA
"94739","sort_trial",NA,"free-sort","154","2893069","0.0-4.0-84.0","1","2020-1-7 7:28:37","FISH",NA,NA,NA,NA,NA,NA,NA,NA,"[{""cat"":10,""src"":2,""x"":57,""y"":85},{""cat"":16,""src"":14,""x"":5,""y"":506},{""cat"":17,""src"":17,""x"":51,""y"":137},{""cat"":10,""src"":5,""x"":47,""y"":0},{""cat"":16,""src"":3,""x"":13,""y"":366},{""cat"":17,""src"":3,""x"":77,""y"":425},{""cat"":10,""src"":6,""x"":4,""y"":305},{""cat"":17,""src"":13,""x"":55,""y"":183},{""cat"":16,""src"":4,""x"":39,""y"":252}]","[{""cat"":""10"",""src"":""5"",""x"":0,""y"":0},{""cat"":""10"",""src"":""2"",""x"":0,""y"":0},{""cat"":""10"",""src"":""6"",""x"":0,""y"":0},{""cat"":""16"",""src"":""3"",""x"":0,""y"":0},{""cat"":""16"",""src"":""4"",""x"":0,""y"":0},{""cat"":""17"",""src"":""17"",""x"":0,""y"":0},{""cat"":""17"",""src"":""13"",""x"":0,""y"":0},{""cat"":""17"",""src"":""3"",""x"":0,""y"":0},{""cat"":""16"",""src"":""14"",""x"":0,""y"":0}]","[{""cat"":10,""src"":5,""loc"":4},{""cat"":10,""src"":2,""loc"":5},{""cat"":10,""src"":6,""loc"":3},{""cat"":16,""src"":3,""loc"":1},{""cat"":16,""src"":4,""loc"":0},{""cat"":17,""src"":17,""loc"":6},{""cat"":17,""src"":13,""loc"":7},{""cat"":17,""src"":3,""loc"":8},{""cat"":16,""src"":14,""loc"":2}]","9","16,16,16,10,10,10,17,17,17,4,3,14,6,5,2,17,13,3,0,1,2,3,4,5,6,7,8,4,3,8,2,0,1,5,6,7",NA
"1911","sort_feedback","32","html-keyboard-response","155","2894985","0.0-4.0-85.0","1","2020-1-7 7:28:37","FISH",NA,NA,NA,NA,NA,NA,NA,NA,NA,NA,NA,NA,NA,NA
"19988","setup1",NA,"animation","156","2914974","0.0-4.0-86.0","1","2020-1-7 7:28:37","FISH",NA,NA,"[{""cat"":21,""src"":12,""loc"":4},{""cat"":21,""src"":7,""loc"":5},{""cat"":21,""src"":16,""loc"":3},{""cat"":15,""src"":11,""loc"":0},{""cat"":15,""src"":5,""loc"":2},{""cat"":15,""src"":9,""loc"":1},{""cat"":18,""src"":3,""loc"":8},{""cat"":18,""src"":8,""loc"":6},{""cat"":18,""src"":14,""loc"":7}]","1","1106,1107,1110,1108,1104,1110,1113,1108,1110,10012",NA,NA,NA,NA,NA,NA,NA,NA,NA
"3213","flanker_instructions","32","html-keyboard-response","157","2918191","0.0-4.0-87.0","1","2020-1-7 7:28:37","FISH",NA,NA,NA,NA,NA,NA,NA,NA,NA,NA,NA,NA,NA,NA
"674","flanker_test","37","image-keyboard-response","158","2919883","0.0-4.0-88.0-0.0","1","2020-1-7 7:28:37","FISH",NA,NA,NA,NA,NA,"incongruent","left","TRUE",NA,NA,NA,NA,NA,NA
"596","flanker_test","39","image-keyboard-response","159","2921230","0.0-4.0-88.0-0.1","1","2020-1-7 7:28:37","FISH",NA,NA,NA,NA,NA,"incongruent","right","TRUE",NA,NA,NA,NA,NA,NA
"433","flanker_test","37","image-keyboard-response","160","2922716","0.0-4.0-88.0-0.2","1","2020-1-7 7:28:37","FISH",NA,NA,NA,NA,NA,"congruent","left","TRUE",NA,NA,NA,NA,NA,NA
"533","flanker_test","39","image-keyboard-response","161","2923643","0.0-4.0-88.0-0.3","1","2020-1-7 7:28:37","FISH",NA,NA,NA,NA,NA,"congruent","right","TRUE",NA,NA,NA,NA,NA,NA
"42400","sort_trial",NA,"free-sort","162","2967073","0.0-4.0-89.0","1","2020-1-7 7:28:37","FISH",NA,NA,NA,NA,NA,NA,NA,NA,"[{""cat"":21,""src"":12,""x"":81,""y"":18},{""cat"":21,""src"":7,""x"":79,""y"":482},{""cat"":21,""src"":16,""x"":3,""y"":313},{""cat"":15,""src"":11,""x"":74,""y"":361},{""cat"":15,""src"":5,""x"":53,""y"":142},{""cat"":15,""src"":9,""x"":80,""y"":201},{""cat"":18,""src"":3,""x"":26,""y"":428},{""cat"":18,""src"":8,""x"":48,""y"":252},{""cat"":18,""src"":14,""x"":11,""y"":62}]","[{""cat"":""15"",""src"":""9"",""x"":0,""y"":0},{""cat"":""15"",""src"":""11"",""x"":0,""y"":0},{""cat"":""15"",""src"":""5"",""x"":0,""y"":0},{""cat"":""21"",""src"":""7"",""x"":0,""y"":0},{""cat"":""21"",""src"":""16"",""x"":0,""y"":0},{""cat"":""21"",""src"":""12"",""x"":0,""y"":0},{""cat"":""18"",""src"":""8"",""x"":0,""y"":0},{""cat"":""18"",""src"":""3"",""x"":0,""y"":0},{""cat"":""18"",""src"":""14"",""x"":0,""y"":0}]","[{""cat"":15,""src"":9,""loc"":1},{""cat"":15,""src"":11,""loc"":0},{""cat"":15,""src"":5,""loc"":2},{""cat"":21,""src"":7,""loc"":5},{""cat"":21,""src"":16,""loc"":3},{""cat"":21,""src"":12,""loc"":4},{""cat"":18,""src"":8,""loc"":6},{""cat"":18,""src"":3,""loc"":7},{""cat"":18,""src"":14,""loc"":8}]","7","15,15,15,21,21,21,18,18,18,11,9,5,16,12,7,8,3,14,0,1,2,3,4,5,6,7,8,1,0,2,4,5,3,6,7,8",NA
"1603","sort_feedback","32","html-keyboard-response","163","2968681","0.0-4.0-90.0","1","2020-1-7 7:28:37","FISH",NA,NA,NA,NA,NA,NA,NA,NA,NA,NA,NA,NA,NA,NA
"19988","setup2",NA,"animation","164","2988670","0.0-4.0-91.0","1","2020-1-7 7:28:37","FISH",NA,NA,"[{""cat"":11,""src"":4,""loc"":6},{""cat"":0,""src"":2,""loc"":7},{""cat"":20,""src"":17,""loc"":8},{""cat"":0,""src"":15,""loc"":1},{""cat"":11,""src"":10,""loc"":0},{""cat"":20,""src"":13,""loc"":2},{""cat"":0,""src"":0,""loc"":5},{""cat"":20,""src"":3,""loc"":3},{""cat"":11,""src"":6,""loc"":4}]","2","1105,1116,1103,1111,1104,1115,1104,1104,1109,10017",NA,NA,NA,NA,NA,NA,NA,NA,NA
"1475","flanker_instructions","32","html-keyboard-response","165","2990150","0.0-4.0-92.0","1","2020-1-7 7:28:37","FISH",NA,NA,NA,NA,NA,NA,NA,NA,NA,NA,NA,NA,NA,NA
"509","flanker_test","39","image-keyboard-response","166","2991676","0.0-4.0-93.0-0.0","1","2020-1-7 7:28:37","FISH",NA,NA,NA,NA,NA,"congruent","right","TRUE",NA,NA,NA,NA,NA,NA
"498","flanker_test","37","image-keyboard-response","167","2992642","0.0-4.0-93.0-0.1","1","2020-1-7 7:28:37","FISH",NA,NA,NA,NA,NA,"incongruent","left","TRUE",NA,NA,NA,NA,NA,NA
"467","flanker_test","37","image-keyboard-response","168","2994130","0.0-4.0-93.0-0.2","1","2020-1-7 7:28:37","FISH",NA,NA,NA,NA,NA,"congruent","left","TRUE",NA,NA,NA,NA,NA,NA
"491","flanker_test","39","image-keyboard-response","169","2995811","0.0-4.0-93.0-0.3","1","2020-1-7 7:28:37","FISH",NA,NA,NA,NA,NA,"incongruent","right","TRUE",NA,NA,NA,NA,NA,NA
"56626","sort_trial",NA,"free-sort","170","3052794","0.0-4.0-94.0","1","2020-1-7 7:28:37","FISH",NA,NA,NA,NA,NA,NA,NA,NA,"[{""cat"":11,""src"":4,""x"":63,""y"":421},{""cat"":0,""src"":2,""x"":82,""y"":21},{""cat"":20,""src"":17,""x"":71,""y"":61},{""cat"":0,""src"":15,""x"":54,""y"":376},{""cat"":11,""src"":10,""x"":44,""y"":499},{""cat"":20,""src"":13,""x"":11,""y"":199},{""cat"":0,""src"":0,""x"":41,""y"":309},{""cat"":20,""src"":3,""x"":14,""y"":263},{""cat"":11,""src"":6,""x"":47,""y"":123}]","[{""cat"":""0"",""src"":""15"",""x"":0,""y"":0},{""cat"":""11"",""src"":""10"",""x"":0,""y"":0},{""cat"":""20"",""src"":""13"",""x"":0,""y"":0},{""cat"":""11"",""src"":""4"",""x"":0,""y"":0},{""cat"":""11"",""src"":""6"",""x"":0,""y"":0},{""cat"":""0"",""src"":""0"",""x"":0,""y"":0},{""cat"":""20"",""src"":""3"",""x"":0,""y"":0},{""cat"":""20"",""src"":""17"",""x"":0,""y"":0},{""cat"":""0"",""src"":""2"",""x"":0,""y"":0}]","[{""cat"":0,""src"":15,""loc"":1},{""cat"":11,""src"":10,""loc"":0},{""cat"":20,""src"":13,""loc"":2},{""cat"":11,""src"":4,""loc"":6},{""cat"":11,""src"":6,""loc"":8},{""cat"":0,""src"":0,""loc"":7},{""cat"":20,""src"":3,""loc"":3},{""cat"":20,""src"":17,""loc"":5},{""cat"":0,""src"":2,""loc"":4}]","5","11,0,20,20,0,20,11,0,11,10,15,13,3,2,17,4,0,6,0,1,2,3,4,5,6,7,8,1,0,2,6,8,7,3,5,4",NA
"1759","sort_feedback","32","html-keyboard-response","171","3054557","0.0-4.0-95.0","1","2020-1-7 7:28:37","FISH",NA,NA,NA,NA,NA,NA,NA,NA,NA,NA,NA,NA,NA,NA
"20008","setup4",NA,"animation","172","3074567","0.0-4.0-96.0","1","2020-1-7 7:28:37","FISH",NA,NA,"[{""cat"":5,""src"":2,""loc"":1},{""cat"":5,""src"":5,""loc"":7},{""cat"":5,""src"":4,""loc"":5},{""cat"":26,""src"":8,""loc"":3},{""cat"":26,""src"":2,""loc"":2},{""cat"":26,""src"":15,""loc"":8},{""cat"":6,""src"":9,""loc"":4},{""cat"":6,""src"":5,""loc"":0},{""cat"":6,""src"":11,""loc"":6}]","4","1105,1115,1117,1105,1103,1111,1103,1120,1116,10013",NA,NA,NA,NA,NA,NA,NA,NA,NA
"1847","flanker_instructions","32","html-keyboard-response","173","3076419","0.0-4.0-97.0","1","2020-1-7 7:28:37","FISH",NA,NA,NA,NA,NA,NA,NA,NA,NA,NA,NA,NA,NA,NA
"612","flanker_test","37","image-keyboard-response","174","3078047","0.0-4.0-98.0-0.0","1","2020-1-7 7:28:37","FISH",NA,NA,NA,NA,NA,"congruent","left","TRUE",NA,NA,NA,NA,NA,NA
"475","flanker_test","39","image-keyboard-response","175","3079430","0.0-4.0-98.0-0.1","1","2020-1-7 7:28:37","FISH",NA,NA,NA,NA,NA,"congruent","right","TRUE",NA,NA,NA,NA,NA,NA
"372","flanker_test","37","image-keyboard-response","176","3080938","0.0-4.0-98.0-0.2","1","2020-1-7 7:28:37","FISH",NA,NA,NA,NA,NA,"incongruent","right","FALSE",NA,NA,NA,NA,NA,NA
"506","flanker_test","37","image-keyboard-response","177","3081810","0.0-4.0-98.0-0.3","1","2020-1-7 7:28:37","FISH",NA,NA,NA,NA,NA,"incongruent","left","TRUE",NA,NA,NA,NA,NA,NA
"53104","sort_trial",NA,"free-sort","178","3135527","0.0-4.0-99.0","1","2020-1-7 7:28:37","FISH",NA,NA,NA,NA,NA,NA,NA,NA,"[{""cat"":5,""src"":2,""x"":49,""y"":64},{""cat"":5,""src"":5,""x"":32,""y"":140},{""cat"":5,""src"":4,""x"":79,""y"":432},{""cat"":26,""src"":8,""x"":19,""y"":381},{""cat"":26,""src"":2,""x"":7,""y"":190},{""cat"":26,""src"":15,""x"":15,""y"":247},{""cat"":6,""src"":9,""x"":82,""y"":482},{""cat"":6,""src"":5,""x"":30,""y"":9},{""cat"":6,""src"":11,""x"":24,""y"":326}]","[{""cat"":""5"",""src"":""2"",""x"":0,""y"":0},{""cat"":""6"",""src"":""5"",""x"":0,""y"":0},{""cat"":""26"",""src"":""2"",""x"":0,""y"":0},{""cat"":""5"",""src"":""5"",""x"":0,""y"":0},{""cat"":""26"",""src"":""15"",""x"":0,""y"":0},{""cat"":""6"",""src"":""9"",""x"":0,""y"":0},{""cat"":""26"",""src"":""8"",""x"":0,""y"":0},{""cat"":""6"",""src"":""11"",""x"":0,""y"":0},{""cat"":""5"",""src"":""4"",""x"":0,""y"":0}]","[{""cat"":5,""src"":2,""loc"":1},{""cat"":6,""src"":5,""loc"":0},{""cat"":26,""src"":2,""loc"":2},{""cat"":5,""src"":5,""loc"":7},{""cat"":26,""src"":15,""loc"":8},{""cat"":6,""src"":9,""loc"":4},{""cat"":26,""src"":8,""loc"":3},{""cat"":6,""src"":11,""loc"":6},{""cat"":5,""src"":4,""loc"":5}]","9","6,5,26,26,6,5,6,5,26,5,2,2,8,9,4,11,5,15,0,1,2,3,4,5,6,7,8,1,0,2,6,5,8,7,3,4",NA
"1423","sort_feedback","32","html-keyboard-response","179","3136955","0.0-4.0-100.0","1","2020-1-7 7:28:37","FISH",NA,NA,NA,NA,NA,NA,NA,NA,NA,NA,NA,NA,NA,NA
NA,"breakStart",NA,"html-keyboard-response","180","3166961","0.0-5.0-0.0","1","2020-1-7 7:28:37","FISH",NA,NA,NA,NA,NA,NA,NA,NA,NA,NA,NA,NA,NA,NA
"2476","breakEnd",NA,"html-button-response","181","3169442","0.0-5.0-1.0","1","2020-1-7 7:28:37","FISH","0",NA,NA,NA,NA,NA,NA,NA,NA,NA,NA,NA,NA,NA
"19977","setup3",NA,"animation","182","3189421","0.0-6.0-0.0","1","2020-1-7 7:28:37","FISH",NA,NA,"[{""cat"":25,""src"":11,""loc"":8},{""cat"":27,""src"":12,""loc"":4},{""cat"":16,""src"":13,""loc"":1},{""cat"":25,""src"":9,""loc"":6},{""cat"":27,""src"":11,""loc"":5},{""cat"":16,""src"":6,""loc"":0},{""cat"":27,""src"":6,""loc"":3},{""cat"":16,""src"":4,""loc"":2},{""cat"":25,""src"":7,""loc"":7}]","3","1117,1105,1110,1102,1108,1103,1106,1104,1112,10008",NA,NA,NA,NA,NA,NA,NA,NA,NA
"1071","flanker_instructions","32","html-keyboard-response","183","3190496","0.0-6.0-1.0","1","2020-1-7 7:28:37","FISH",NA,NA,NA,NA,NA,NA,NA,NA,NA,NA,NA,NA,NA,NA
"685","flanker_test","39","image-keyboard-response","184","3192197","0.0-6.0-2.0-0.0","1","2020-1-7 7:28:37","FISH",NA,NA,NA,NA,NA,"incongruent","right","TRUE",NA,NA,NA,NA,NA,NA
"412","flanker_test","37","image-keyboard-response","185","3193521","0.0-6.0-2.0-0.1","1","2020-1-7 7:28:37","FISH",NA,NA,NA,NA,NA,"incongruent","left","TRUE",NA,NA,NA,NA,NA,NA
"468","flanker_test","39","image-keyboard-response","186","3194776","0.0-6.0-2.0-0.2","1","2020-1-7 7:28:37","FISH",NA,NA,NA,NA,NA,"congruent","right","TRUE",NA,NA,NA,NA,NA,NA
"411","flanker_test","37","image-keyboard-response","187","3195519","0.0-6.0-2.0-0.3","1","2020-1-7 7:28:37","FISH",NA,NA,NA,NA,NA,"congruent","left","TRUE",NA,NA,NA,NA,NA,NA
"38384","sort_trial",NA,"free-sort","188","3234736","0.0-6.0-3.0","1","2020-1-7 7:28:37","FISH",NA,NA,NA,NA,NA,NA,NA,NA,"[{""cat"":25,""src"":11,""x"":22,""y"":148},{""cat"":27,""src"":12,""x"":72,""y"":246},{""cat"":16,""src"":13,""x"":60,""y"":203},{""cat"":25,""src"":9,""x"":78,""y"":79},{""cat"":27,""src"":11,""x"":51,""y"":439},{""cat"":16,""src"":6,""x"":28,""y"":7},{""cat"":27,""src"":6,""x"":60,""y"":359},{""cat"":16,""src"":4,""x"":77,""y"":326},{""cat"":25,""src"":7,""x"":14,""y"":499}]","[{""cat"":""16"",""src"":""13"",""x"":0,""y"":0},{""cat"":""16"",""src"":""4"",""x"":0,""y"":0},{""cat"":""16"",""src"":""6"",""x"":0,""y"":0},{""cat"":""25"",""src"":""9"",""x"":0,""y"":0},{""cat"":""27"",""src"":""11"",""x"":0,""y"":0},{""cat"":""27"",""src"":""6"",""x"":0,""y"":0},{""cat"":""27"",""src"":""12"",""x"":0,""y"":0},{""cat"":""25"",""src"":""11"",""x"":0,""y"":0},{""cat"":""25"",""src"":""7"",""x"":0,""y"":0}]","[{""cat"":16,""src"":13,""loc"":1},{""cat"":16,""src"":4,""loc"":2},{""cat"":16,""src"":6,""loc"":0},{""cat"":25,""src"":9,""loc"":6},{""cat"":27,""src"":11,""loc"":5},{""cat"":27,""src"":6,""loc"":3},{""cat"":27,""src"":12,""loc"":4},{""cat"":25,""src"":11,""loc"":8},{""cat"":25,""src"":7,""loc"":7}]","9","16,16,16,27,27,27,25,25,25,6,13,4,6,12,11,9,7,11,0,1,2,3,4,5,6,7,8,2,0,1,5,6,4,3,8,7",NA
"108177","sort_feedback","32","html-keyboard-response","189","3342920","0.0-6.0-4.0","1","2020-1-7 7:28:37","FISH",NA,NA,NA,NA,NA,NA,NA,NA,NA,NA,NA,NA,NA,NA
"19963","setup4",NA,"animation","190","3362886","0.0-6.0-5.0","1","2020-1-7 7:28:37","FISH",NA,NA,"[{""cat"":8,""src"":1,""loc"":6},{""cat"":8,""src"":17,""loc"":2},{""cat"":8,""src"":12,""loc"":3},{""cat"":7,""src"":14,""loc"":1},{""cat"":7,""src"":1,""loc"":7},{""cat"":7,""src"":10,""loc"":5},{""cat"":16,""src"":15,""loc"":8},{""cat"":16,""src"":11,""loc"":0},{""cat"":16,""src"":4,""loc"":4}]","4","1111,1102,1106,1105,1109,1103,1104,1114,1103,10006",NA,NA,NA,NA,NA,NA,NA,NA,NA
"3246","flanker_instructions","32","html-keyboard-response","191","3366136","0.0-6.0-6.0","1","2020-1-7 7:28:37","FISH",NA,NA,NA,NA,NA,NA,NA,NA,NA,NA,NA,NA,NA,NA
"594","flanker_test","39","image-keyboard-response","192","3367736","0.0-6.0-7.0-0.0","1","2020-1-7 7:28:37","FISH",NA,NA,NA,NA,NA,"congruent","right","TRUE",NA,NA,NA,NA,NA,NA
"499","flanker_test","37","image-keyboard-response","193","3368697","0.0-6.0-7.0-0.1","1","2020-1-7 7:28:37","FISH",NA,NA,NA,NA,NA,"congruent","left","TRUE",NA,NA,NA,NA,NA,NA
"530","flanker_test","39","image-keyboard-response","194","3370229","0.0-6.0-7.0-0.2","1","2020-1-7 7:28:37","FISH",NA,NA,NA,NA,NA,"incongruent","right","TRUE",NA,NA,NA,NA,NA,NA
"587","flanker_test","37","image-keyboard-response","195","3371765","0.0-6.0-7.0-0.3","1","2020-1-7 7:28:37","FISH",NA,NA,NA,NA,NA,"incongruent","left","TRUE",NA,NA,NA,NA,NA,NA
"53922","sort_trial",NA,"free-sort","196","3426859","0.0-6.0-8.0","1","2020-1-7 7:28:37","FISH",NA,NA,NA,NA,NA,NA,NA,NA,"[{""cat"":8,""src"":1,""x"":33,""y"":136},{""cat"":8,""src"":17,""x"":64,""y"":319},{""cat"":8,""src"":12,""x"":39,""y"":431},{""cat"":7,""src"":14,""x"":28,""y"":372},{""cat"":7,""src"":1,""x"":28,""y"":182},{""cat"":7,""src"":10,""x"":70,""y"":26},{""cat"":16,""src"":15,""x"":27,""y"":87},{""cat"":16,""src"":11,""x"":19,""y"":506},{""cat"":16,""src"":4,""x"":1,""y"":260}]","[{""cat"":""7"",""src"":""10"",""x"":0,""y"":0},{""cat"":""16"",""src"":""11"",""x"":0,""y"":0},{""cat"":""8"",""src"":""1"",""x"":0,""y"":0},{""cat"":""7"",""src"":""1"",""x"":0,""y"":0},{""cat"":""16"",""src"":""15"",""x"":0,""y"":0},{""cat"":""7"",""src"":""14"",""x"":0,""y"":0},{""cat"":""8"",""src"":""12"",""x"":0,""y"":0},{""cat"":""8"",""src"":""17"",""x"":0,""y"":0},{""cat"":""16"",""src"":""4"",""x"":0,""y"":0}]","[{""cat"":7,""src"":10,""loc"":5},{""cat"":16,""src"":11,""loc"":0},{""cat"":8,""src"":1,""loc"":6},{""cat"":7,""src"":1,""loc"":7},{""cat"":16,""src"":15,""loc"":8},{""cat"":7,""src"":14,""loc"":1},{""cat"":8,""src"":12,""loc"":2},{""cat"":8,""src"":17,""loc"":3},{""cat"":16,""src"":4,""loc"":4}]","7","16,7,8,8,16,7,8,7,16,11,14,12,17,4,10,1,1,15,0,1,2,3,4,5,6,7,8,1,5,6,7,8,0,2,3,4",NA
"1758","sort_feedback","32","html-keyboard-response","197","3428622","0.0-6.0-9.0","1","2020-1-7 7:28:37","FISH",NA,NA,NA,NA,NA,NA,NA,NA,NA,NA,NA,NA,NA,NA
"19968","setup1",NA,"animation","198","3448591","0.0-6.0-10.0","1","2020-1-7 7:28:37","FISH",NA,NA,"[{""cat"":3,""src"":17,""loc"":0},{""cat"":3,""src"":3,""loc"":1},{""cat"":3,""src"":19,""loc"":2},{""cat"":20,""src"":0,""loc"":6},{""cat"":20,""src"":4,""loc"":8},{""cat"":20,""src"":6,""loc"":7},{""cat"":24,""src"":19,""loc"":4},{""cat"":24,""src"":2,""loc"":5},{""cat"":24,""src"":3,""loc"":3}]","1","1109,1104,1108,1103,1104,1113,1104,1115,1104,10004",NA,NA,NA,NA,NA,NA,NA,NA,NA
"1376","flanker_instructions","32","html-keyboard-response","199","3449972","0.0-6.0-11.0","1","2020-1-7 7:28:37","FISH",NA,NA,NA,NA,NA,NA,NA,NA,NA,NA,NA,NA,NA,NA
NA,"flanker_test",NA,"image-keyboard-response","200","3451898","0.0-6.0-12.0-0.0","1","2020-1-7 7:28:37","FISH",NA,NA,NA,NA,NA,"incongruent","left","FALSE",NA,NA,NA,NA,NA,NA
"546","flanker_test","39","image-keyboard-response","201","3453362","0.0-6.0-12.0-0.1","1","2020-1-7 7:28:37","FISH",NA,NA,NA,NA,NA,"incongruent","right","TRUE",NA,NA,NA,NA,NA,NA
"584","flanker_test","39","image-keyboard-response","202","3454417","0.0-6.0-12.0-0.2","1","2020-1-7 7:28:37","FISH",NA,NA,NA,NA,NA,"congruent","right","TRUE",NA,NA,NA,NA,NA,NA
"463","flanker_test","37","image-keyboard-response","203","3455842","0.0-6.0-12.0-0.3","1","2020-1-7 7:28:37","FISH",NA,NA,NA,NA,NA,"congruent","left","TRUE",NA,NA,NA,NA,NA,NA
"29807","sort_trial",NA,"free-sort","204","3486240","0.0-6.0-13.0","1","2020-1-7 7:28:37","FISH",NA,NA,NA,NA,NA,NA,NA,NA,"[{""cat"":3,""src"":17,""x"":0,""y"":74},{""cat"":3,""src"":3,""x"":78,""y"":196},{""cat"":3,""src"":19,""x"":73,""y"":359},{""cat"":20,""src"":0,""x"":36,""y"":257},{""cat"":20,""src"":4,""x"":83,""y"":24},{""cat"":20,""src"":6,""x"":44,""y"":130},{""cat"":24,""src"":19,""x"":2,""y"":317},{""cat"":24,""src"":2,""x"":25,""y"":430},{""cat"":24,""src"":3,""x"":22,""y"":483}]","[{""cat"":""3"",""src"":""19"",""x"":0,""y"":0},{""cat"":""3"",""src"":""17"",""x"":0,""y"":0},{""cat"":""3"",""src"":""3"",""x"":0,""y"":0},{""cat"":""20"",""src"":""0"",""x"":0,""y"":0},{""cat"":""20"",""src"":""6"",""x"":0,""y"":0},{""cat"":""20"",""src"":""4"",""x"":0,""y"":0},{""cat"":""24"",""src"":""2"",""x"":0,""y"":0},{""cat"":""24"",""src"":""19"",""x"":0,""y"":0},{""cat"":""24"",""src"":""3"",""x"":0,""y"":0}]","[{""cat"":3,""src"":19,""loc"":2},{""cat"":3,""src"":17,""loc"":0},{""cat"":3,""src"":3,""loc"":1},{""cat"":20,""src"":0,""loc"":6},{""cat"":20,""src"":6,""loc"":7},{""cat"":20,""src"":4,""loc"":8},{""cat"":24,""src"":2,""loc"":5},{""cat"":24,""src"":19,""loc"":4},{""cat"":24,""src"":3,""loc"":3}]","9","3,3,3,24,24,24,20,20,20,17,3,19,3,19,2,0,6,4,0,1,2,3,4,5,6,7,8,1,2,0,8,7,6,3,4,5",NA
"1423","sort_feedback","32","html-keyboard-response","205","3487668","0.0-6.0-14.0","1","2020-1-7 7:28:37","FISH",NA,NA,NA,NA,NA,NA,NA,NA,NA,NA,NA,NA,NA,NA
"19984","setup5",NA,"animation","206","3507653","0.0-6.0-15.0","1","2020-1-7 7:28:37","FISH",NA,NA,"[{""cat"":18,""src"":3,""loc"":0},{""cat"":11,""src"":3,""loc"":3},{""cat"":2,""src"":14,""loc"":8},{""cat"":11,""src"":5,""loc"":2},{""cat"":18,""src"":12,""loc"":7},{""cat"":2,""src"":9,""loc"":4},{""cat"":11,""src"":14,""loc"":6},{""cat"":2,""src"":8,""loc"":1},{""cat"":18,""src"":5,""loc"":5}]","5","1107,1106,1103,1107,1103,1116,1119,1115,1103,10005",NA,NA,NA,NA,NA,NA,NA,NA,NA
"1091","flanker_instructions","32","html-keyboard-response","207","3508749","0.0-6.0-16.0","1","2020-1-7 7:28:37","FISH",NA,NA,NA,NA,NA,NA,NA,NA,NA,NA,NA,NA,NA,NA
"434","flanker_test","37","image-keyboard-response","208","3510188","0.0-6.0-17.0-0.0","1","2020-1-7 7:28:37","FISH",NA,NA,NA,NA,NA,"congruent","left","TRUE",NA,NA,NA,NA,NA,NA
"525","flanker_test","39","image-keyboard-response","209","3511142","0.0-6.0-17.0-0.1","1","2020-1-7 7:28:37","FISH",NA,NA,NA,NA,NA,"incongruent","right","TRUE",NA,NA,NA,NA,NA,NA
"400","flanker_test","39","image-keyboard-response","210","3512391","0.0-6.0-17.0-0.2","1","2020-1-7 7:28:37","FISH",NA,NA,NA,NA,NA,"congruent","right","TRUE",NA,NA,NA,NA,NA,NA
"330","flanker_test","37","image-keyboard-response","211","3513865","0.0-6.0-17.0-0.3","1","2020-1-7 7:28:37","FISH",NA,NA,NA,NA,NA,"incongruent","left","TRUE",NA,NA,NA,NA,NA,NA
"37334","sort_trial",NA,"free-sort","212","3551515","0.0-6.0-18.0","1","2020-1-7 7:28:37","FISH",NA,NA,NA,NA,NA,NA,NA,NA,"[{""cat"":18,""src"":3,""x"":18,""y"":80},{""cat"":11,""src"":3,""x"":22,""y"":132},{""cat"":2,""src"":14,""x"":73,""y"":18},{""cat"":11,""src"":5,""x"":7,""y"":244},{""cat"":18,""src"":12,""x"":65,""y"":427},{""cat"":2,""src"":9,""x"":23,""y"":310},{""cat"":11,""src"":14,""x"":46,""y"":488},{""cat"":2,""src"":8,""x"":9,""y"":388},{""cat"":18,""src"":5,""x"":57,""y"":180}]","[{""cat"":""11"",""src"":""3"",""x"":0,""y"":0},{""cat"":""18"",""src"":""5"",""x"":0,""y"":0},{""cat"":""2"",""src"":""9"",""x"":0,""y"":0},{""cat"":""11"",""src"":""5"",""x"":0,""y"":0},{""cat"":""11"",""src"":""14"",""x"":0,""y"":0},{""cat"":""18"",""src"":""3"",""x"":0,""y"":0},{""cat"":""18"",""src"":""12"",""x"":0,""y"":0},{""cat"":""2"",""src"":""8"",""x"":0,""y"":0},{""cat"":""2"",""src"":""14"",""x"":0,""y"":0}]","[{""cat"":11,""src"":3,""loc"":3},{""cat"":18,""src"":5,""loc"":5},{""cat"":2,""src"":9,""loc"":4},{""cat"":11,""src"":5,""loc"":2},{""cat"":11,""src"":14,""loc"":6},{""cat"":18,""src"":3,""loc"":7},{""cat"":18,""src"":12,""loc"":0},{""cat"":2,""src"":8,""loc"":1},{""cat"":2,""src"":14,""loc"":8}]","7","18,2,11,11,2,18,11,18,2,12,8,5,3,9,5,14,3,14,0,1,2,3,4,5,6,7,8,6,7,3,0,2,1,4,5,8",NA
"1897","sort_feedback","32","html-keyboard-response","213","3553416","0.0-6.0-19.0","1","2020-1-7 7:28:37","FISH",NA,NA,NA,NA,NA,NA,NA,NA,NA,NA,NA,NA,NA,NA
"19998","setup2",NA,"animation","214","3573416","0.0-6.0-20.0","1","2020-1-7 7:28:37","FISH",NA,NA,"[{""cat"":18,""src"":12,""loc"":5},{""cat"":12,""src"":9,""loc"":3},{""cat"":31,""src"":6,""loc"":4},{""cat"":31,""src"":11,""loc"":1},{""cat"":18,""src"":7,""loc"":0},{""cat"":12,""src"":8,""loc"":2},{""cat"":12,""src"":12,""loc"":7},{""cat"":31,""src"":1,""loc"":6},{""cat"":18,""src"":9,""loc"":8}]","2","1108,1105,1103,1108,1105,1115,1103,1115,1119,10017",NA,NA,NA,NA,NA,NA,NA,NA,NA
"13221","flanker_instructions","32","html-keyboard-response","215","3586642","0.0-6.0-21.0","1","2020-1-7 7:28:37","FISH",NA,NA,NA,NA,NA,NA,NA,NA,NA,NA,NA,NA,NA,NA
"500","flanker_test","39","image-keyboard-response","216","3588147","0.0-6.0-22.0-0.0","1","2020-1-7 7:28:37","FISH",NA,NA,NA,NA,NA,"congruent","right","TRUE",NA,NA,NA,NA,NA,NA
"443","flanker_test","37","image-keyboard-response","217","3589021","0.0-6.0-22.0-0.1","1","2020-1-7 7:28:37","FISH",NA,NA,NA,NA,NA,"incongruent","left","TRUE",NA,NA,NA,NA,NA,NA
"444","flanker_test","39","image-keyboard-response","218","3590329","0.0-6.0-22.0-0.2","1","2020-1-7 7:28:37","FISH",NA,NA,NA,NA,NA,"incongruent","right","TRUE",NA,NA,NA,NA,NA,NA
"399","flanker_test","37","image-keyboard-response","219","3591335","0.0-6.0-22.0-0.3","1","2020-1-7 7:28:37","FISH",NA,NA,NA,NA,NA,"congruent","left","TRUE",NA,NA,NA,NA,NA,NA
"53427","sort_trial",NA,"free-sort","220","3645527","0.0-6.0-23.0","1","2020-1-7 7:28:37","FISH",NA,NA,NA,NA,NA,NA,NA,NA,"[{""cat"":18,""src"":12,""x"":2,""y"":180},{""cat"":12,""src"":9,""x"":21,""y"":11},{""cat"":31,""src"":6,""x"":31,""y"":318},{""cat"":31,""src"":11,""x"":46,""y"":441},{""cat"":18,""src"":7,""x"":62,""y"":254},{""cat"":12,""src"":8,""x"":29,""y"":143},{""cat"":12,""src"":12,""x"":60,""y"":495},{""cat"":31,""src"":1,""x"":34,""y"":369},{""cat"":18,""src"":9,""x"":12,""y"":86}]","[{""cat"":""31"",""src"":""11"",""x"":0,""y"":0},{""cat"":""31"",""src"":""1"",""x"":0,""y"":0},{""cat"":""12"",""src"":""8"",""x"":0,""y"":0},{""cat"":""12"",""src"":""9"",""x"":0,""y"":0},{""cat"":""18"",""src"":""9"",""x"":0,""y"":0},{""cat"":""18"",""src"":""7"",""x"":0,""y"":0},{""cat"":""18"",""src"":""12"",""x"":0,""y"":0},{""cat"":""31"",""src"":""6"",""x"":0,""y"":0},{""cat"":""12"",""src"":""12"",""x"":0,""y"":0}]","[{""cat"":31,""src"":11,""loc"":1},{""cat"":31,""src"":1,""loc"":6},{""cat"":12,""src"":8,""loc"":2},{""cat"":12,""src"":9,""loc"":0},{""cat"":18,""src"":9,""loc"":8},{""cat"":18,""src"":7,""loc"":7},{""cat"":18,""src"":12,""loc"":5},{""cat"":31,""src"":6,""loc"":4},{""cat"":12,""src"":12,""loc"":3}]","6","12,31,12,12,31,18,31,18,18,9,11,8,12,6,12,1,7,9,0,1,2,3,4,5,6,7,8,3,0,2,8,7,6,1,5,4",NA
"1838","sort_feedback","32","html-keyboard-response","221","3647374","0.0-6.0-24.0","1","2020-1-7 7:28:37","FISH",NA,NA,NA,NA,NA,NA,NA,NA,NA,NA,NA,NA,NA,NA
"20008","setup1",NA,"animation","222","3667383","0.0-6.0-25.0","1","2020-1-7 7:28:37","FISH",NA,NA,"[{""cat"":3,""src"":18,""loc"":0},{""cat"":3,""src"":10,""loc"":2},{""cat"":3,""src"":5,""loc"":1},{""cat"":13,""src"":12,""loc"":8},{""cat"":13,""src"":10,""loc"":6},{""cat"":13,""src"":9,""loc"":7},{""cat"":16,""src"":6,""loc"":5},{""cat"":16,""src"":8,""loc"":3},{""cat"":16,""src"":18,""loc"":4}]","1","1111,1110,1108,1114,1113,1105,1114,1105,1114,10014",NA,NA,NA,NA,NA,NA,NA,NA,NA
"804","flanker_instructions","32","html-keyboard-response","223","3668191","0.0-6.0-26.0","1","2020-1-7 7:28:37","FISH",NA,NA,NA,NA,NA,NA,NA,NA,NA,NA,NA,NA,NA,NA
"459","flanker_test","39","image-keyboard-response","224","3669667","0.0-6.0-27.0-0.0","1","2020-1-7 7:28:37","FISH",NA,NA,NA,NA,NA,"congruent","right","TRUE",NA,NA,NA,NA,NA,NA
"470","flanker_test","39","image-keyboard-response","225","3670789","0.0-6.0-27.0-0.1","1","2020-1-7 7:28:37","FISH",NA,NA,NA,NA,NA,"incongruent","right","TRUE",NA,NA,NA,NA,NA,NA
"486","flanker_test","37","image-keyboard-response","226","3672249","0.0-6.0-27.0-0.2","1","2020-1-7 7:28:37","FISH",NA,NA,NA,NA,NA,"incongruent","left","TRUE",NA,NA,NA,NA,NA,NA
"448","flanker_test","37","image-keyboard-response","227","3673551","0.0-6.0-27.0-0.3","1","2020-1-7 7:28:37","FISH",NA,NA,NA,NA,NA,"congruent","left","TRUE",NA,NA,NA,NA,NA,NA
"31161","sort_trial",NA,"free-sort","228","3705754","0.0-6.0-28.0","1","2020-1-7 7:28:37","FISH",NA,NA,NA,NA,NA,NA,NA,NA,"[{""cat"":3,""src"":18,""x"":11,""y"":79},{""cat"":3,""src"":10,""x"":54,""y"":377},{""cat"":3,""src"":5,""x"":27,""y"":146},{""cat"":13,""src"":12,""x"":19,""y"":304},{""cat"":13,""src"":10,""x"":38,""y"":25},{""cat"":13,""src"":9,""x"":18,""y"":445},{""cat"":16,""src"":6,""x"":70,""y"":498},{""cat"":16,""src"":8,""x"":26,""y"":264},{""cat"":16,""src"":18,""x"":23,""y"":187}]","[{""cat"":""16"",""src"":""6"",""x"":0,""y"":0},{""cat"":""16"",""src"":""8"",""x"":0,""y"":0},{""cat"":""16"",""src"":""18"",""x"":0,""y"":0},{""cat"":""13"",""src"":""10"",""x"":0,""y"":0},{""cat"":""13"",""src"":""12"",""x"":0,""y"":0},{""cat"":""13"",""src"":""9"",""x"":0,""y"":0},{""cat"":""3"",""src"":""18"",""x"":0,""y"":0},{""cat"":""3"",""src"":""5"",""x"":0,""y"":0},{""cat"":""3"",""src"":""10"",""x"":0,""y"":0}]","[{""cat"":16,""src"":6,""loc"":5},{""cat"":16,""src"":8,""loc"":3},{""cat"":16,""src"":18,""loc"":4},{""cat"":13,""src"":10,""loc"":6},{""cat"":13,""src"":12,""loc"":8},{""cat"":13,""src"":9,""loc"":7},{""cat"":3,""src"":18,""loc"":0},{""cat"":3,""src"":5,""loc"":1},{""cat"":3,""src"":10,""loc"":2}]","9","3,3,3,16,16,16,13,13,13,18,5,10,8,18,6,10,9,12,0,1,2,3,4,5,6,7,8,6,7,8,1,2,0,3,5,4",NA
"1199","sort_feedback","32","html-keyboard-response","229","3706958","0.0-6.0-29.0","1","2020-1-7 7:28:37","FISH",NA,NA,NA,NA,NA,NA,NA,NA,NA,NA,NA,NA,NA,NA
"19975","setup5",NA,"animation","230","3726936","0.0-6.0-30.0","1","2020-1-7 7:28:37","FISH",NA,NA,"[{""cat"":22,""src"":5,""loc"":1},{""cat"":21,""src"":0,""loc"":3},{""cat"":7,""src"":19,""loc"":8},{""cat"":21,""src"":13,""loc"":2},{""cat"":7,""src"":3,""loc"":5},{""cat"":22,""src"":13,""loc"":7},{""cat"":21,""src"":18,""loc"":6},{""cat"":22,""src"":11,""loc"":4},{""cat"":7,""src"":8,""loc"":0}]","5","1107,1105,1107,1104,1104,1111,1103,1118,1108,10008",NA,NA,NA,NA,NA,NA,NA,NA,NA
"1503","flanker_instructions","32","html-keyboard-response","231","3728444","0.0-6.0-31.0","1","2020-1-7 7:28:37","FISH",NA,NA,NA,NA,NA,NA,NA,NA,NA,NA,NA,NA,NA,NA
"560","flanker_test","39","image-keyboard-response","232","3730009","0.0-6.0-32.0-0.0","1","2020-1-7 7:28:37","FISH",NA,NA,NA,NA,NA,"incongruent","right","TRUE",NA,NA,NA,NA,NA,NA
"474","flanker_test","37","image-keyboard-response","233","3731188","0.0-6.0-32.0-0.1","1","2020-1-7 7:28:37","FISH",NA,NA,NA,NA,NA,"incongruent","left","TRUE",NA,NA,NA,NA,NA,NA
"448","flanker_test","37","image-keyboard-response","234","3732691","0.0-6.0-32.0-0.2","1","2020-1-7 7:28:37","FISH",NA,NA,NA,NA,NA,"congruent","left","TRUE",NA,NA,NA,NA,NA,NA
"619","flanker_test","39","image-keyboard-response","235","3733880","0.0-6.0-32.0-0.3","1","2020-1-7 7:28:37","FISH",NA,NA,NA,NA,NA,"congruent","right","TRUE",NA,NA,NA,NA,NA,NA
"33967","sort_trial",NA,"free-sort","236","3768462","0.0-6.0-33.0","1","2020-1-7 7:28:37","FISH",NA,NA,NA,NA,NA,NA,NA,NA,"[{""cat"":22,""src"":5,""x"":39,""y"":255},{""cat"":21,""src"":0,""x"":47,""y"":18},{""cat"":7,""src"":19,""x"":70,""y"":320},{""cat"":21,""src"":13,""x"":28,""y"":506},{""cat"":7,""src"":3,""x"":48,""y"":70},{""cat"":22,""src"":13,""x"":67,""y"":119},{""cat"":21,""src"":18,""x"":81,""y"":359},{""cat"":22,""src"":11,""x"":81,""y"":434},{""cat"":7,""src"":8,""x"":35,""y"":189}]","[{""cat"":""7"",""src"":""8"",""x"":0,""y"":0},{""cat"":""22"",""src"":""5"",""x"":0,""y"":0},{""cat"":""21"",""src"":""13"",""x"":0,""y"":0},{""cat"":""21"",""src"":""18"",""x"":0,""y"":0},{""cat"":""22"",""src"":""13"",""x"":0,""y"":0},{""cat"":""7"",""src"":""3"",""x"":0,""y"":0},{""cat"":""7"",""src"":""19"",""x"":0,""y"":0},{""cat"":""21"",""src"":""0"",""x"":0,""y"":0},{""cat"":""22"",""src"":""11"",""x"":0,""y"":0}]","[{""cat"":7,""src"":8,""loc"":0},{""cat"":22,""src"":5,""loc"":1},{""cat"":21,""src"":13,""loc"":2},{""cat"":21,""src"":18,""loc"":6},{""cat"":22,""src"":13,""loc"":7},{""cat"":7,""src"":3,""loc"":5},{""cat"":7,""src"":19,""loc"":4},{""cat"":21,""src"":0,""loc"":8},{""cat"":22,""src"":11,""loc"":3}]","6","7,22,21,22,7,7,21,22,21,8,5,13,11,19,3,18,13,0,0,1,2,3,4,5,6,7,8,0,1,2,8,6,5,3,4,7",NA
"1731","sort_feedback","32","html-keyboard-response","237","3770198","0.0-6.0-34.0","1","2020-1-7 7:28:37","FISH",NA,NA,NA,NA,NA,NA,NA,NA,NA,NA,NA,NA,NA,NA
"19960","setup3",NA,"animation","238","3790160","0.0-6.0-35.0","1","2020-1-7 7:28:37","FISH",NA,NA,"[{""cat"":25,""src"":4,""loc"":3},{""cat"":7,""src"":7,""loc"":0},{""cat"":14,""src"":17,""loc"":6},{""cat"":25,""src"":8,""loc"":5},{""cat"":14,""src"":14,""loc"":7},{""cat"":7,""src"":13,""loc"":2},{""cat"":25,""src"":17,""loc"":4},{""cat"":14,""src"":2,""loc"":8},{""cat"":7,""src"":16,""loc"":1}]","3","1105,1116,1104,1103,1114,1103,1103,1102,1109,10001",NA,NA,NA,NA,NA,NA,NA,NA,NA
"1164","flanker_instructions","32","html-keyboard-response","239","3791327","0.0-6.0-36.0","1","2020-1-7 7:28:37","FISH",NA,NA,NA,NA,NA,NA,NA,NA,NA,NA,NA,NA,NA,NA
"619","flanker_test","39","image-keyboard-response","240","3792961","0.0-6.0-37.0-0.0","1","2020-1-7 7:28:37","FISH",NA,NA,NA,NA,NA,"incongruent","right","TRUE",NA,NA,NA,NA,NA,NA
"553","flanker_test","37","image-keyboard-response","241","3794271","0.0-6.0-37.0-0.1","1","2020-1-7 7:28:37","FISH",NA,NA,NA,NA,NA,"incongruent","left","TRUE",NA,NA,NA,NA,NA,NA
"448","flanker_test","39","image-keyboard-response","242","3795850","0.0-6.0-37.0-0.2","1","2020-1-7 7:28:37","FISH",NA,NA,NA,NA,NA,"congruent","right","TRUE",NA,NA,NA,NA,NA,NA
"393","flanker_test","37","image-keyboard-response","243","3796792","0.0-6.0-37.0-0.3","1","2020-1-7 7:28:37","FISH",NA,NA,NA,NA,NA,"congruent","left","TRUE",NA,NA,NA,NA,NA,NA
"30606","sort_trial",NA,"free-sort","244","3828059","0.0-6.0-38.0","1","2020-1-7 7:28:37","FISH",NA,NA,NA,NA,NA,NA,NA,NA,"[{""cat"":25,""src"":4,""x"":34,""y"":26},{""cat"":7,""src"":7,""x"":24,""y"":502},{""cat"":14,""src"":17,""x"":55,""y"":76},{""cat"":25,""src"":8,""x"":4,""y"":427},{""cat"":14,""src"":14,""x"":66,""y"":147},{""cat"":7,""src"":13,""x"":31,""y"":251},{""cat"":25,""src"":17,""x"":26,""y"":202},{""cat"":14,""src"":2,""x"":70,""y"":387},{""cat"":7,""src"":16,""x"":3,""y"":326}]","[{""cat"":""7"",""src"":""16"",""x"":0,""y"":0},{""cat"":""7"",""src"":""7"",""x"":0,""y"":0},{""cat"":""7"",""src"":""13"",""x"":0,""y"":0},{""cat"":""25"",""src"":""8"",""x"":0,""y"":0},{""cat"":""25"",""src"":""4"",""x"":0,""y"":0},{""cat"":""25"",""src"":""17"",""x"":0,""y"":0},{""cat"":""14"",""src"":""17"",""x"":0,""y"":0},{""cat"":""14"",""src"":""14"",""x"":0,""y"":0},{""cat"":""14"",""src"":""2"",""x"":0,""y"":0}]","[{""cat"":7,""src"":16,""loc"":1},{""cat"":7,""src"":7,""loc"":0},{""cat"":7,""src"":13,""loc"":2},{""cat"":25,""src"":8,""loc"":5},{""cat"":25,""src"":4,""loc"":3},{""cat"":25,""src"":17,""loc"":4},{""cat"":14,""src"":17,""loc"":6},{""cat"":14,""src"":14,""loc"":7},{""cat"":14,""src"":2,""loc"":8}]","9","7,7,7,25,25,25,14,14,14,7,16,13,4,17,8,17,14,2,0,1,2,3,4,5,6,7,8,1,0,2,4,5,3,6,7,8",NA
"1290","sort_feedback","32","html-keyboard-response","245","3829356","0.0-6.0-39.0","1","2020-1-7 7:28:37","FISH",NA,NA,NA,NA,NA,NA,NA,NA,NA,NA,NA,NA,NA,NA
"19970","setup4",NA,"animation","246","3849327","0.0-6.0-40.0","1","2020-1-7 7:28:37","FISH",NA,NA,"[{""cat"":11,""src"":12,""loc"":0},{""cat"":11,""src"":6,""loc"":6},{""cat"":11,""src"":1,""loc"":5},{""cat"":13,""src"":3,""loc"":3},{""cat"":13,""src"":7,""loc"":1},{""cat"":13,""src"":4,""loc"":8},{""cat"":33,""src"":7,""loc"":2},{""cat"":33,""src"":17,""loc"":7},{""cat"":33,""src"":9,""loc"":4}]","4","1113,1103,1108,1112,1103,1116,1102,1103,1104,10006",NA,NA,NA,NA,NA,NA,NA,NA,NA
"1759","flanker_instructions","32","html-keyboard-response","247","3851091","0.0-6.0-41.0","1","2020-1-7 7:28:37","FISH",NA,NA,NA,NA,NA,NA,NA,NA,NA,NA,NA,NA,NA,NA
"519","flanker_test","39","image-keyboard-response","248","3852621","0.0-6.0-42.0-0.0","1","2020-1-7 7:28:37","FISH",NA,NA,NA,NA,NA,"congruent","right","TRUE",NA,NA,NA,NA,NA,NA
"578","flanker_test","37","image-keyboard-response","249","3853606","0.0-6.0-42.0-0.1","1","2020-1-7 7:28:37","FISH",NA,NA,NA,NA,NA,"incongruent","right","FALSE",NA,NA,NA,NA,NA,NA
"408","flanker_test","37","image-keyboard-response","250","3854950","0.0-6.0-42.0-0.2","1","2020-1-7 7:28:37","FISH",NA,NA,NA,NA,NA,"congruent","left","TRUE",NA,NA,NA,NA,NA,NA
"560","flanker_test","37","image-keyboard-response","251","3856166","0.0-6.0-42.0-0.3","1","2020-1-7 7:28:37","FISH",NA,NA,NA,NA,NA,"incongruent","left","TRUE",NA,NA,NA,NA,NA,NA
"69363","sort_trial",NA,"free-sort","252","3925966","0.0-6.0-43.0","1","2020-1-7 7:28:37","FISH",NA,NA,NA,NA,NA,NA,NA,NA,"[{""cat"":11,""src"":12,""x"":58,""y"":378},{""cat"":11,""src"":6,""x"":21,""y"":482},{""cat"":11,""src"":1,""x"":30,""y"":206},{""cat"":13,""src"":3,""x"":67,""y"":316},{""cat"":13,""src"":7,""x"":10,""y"":131},{""cat"":13,""src"":4,""x"":60,""y"":245},{""cat"":33,""src"":7,""x"":59,""y"":64},{""cat"":33,""src"":17,""x"":74,""y"":424},{""cat"":33,""src"":9,""x"":24,""y"":5}]","[{""cat"":""11"",""src"":""12"",""x"":0,""y"":0},{""cat"":""11"",""src"":""6"",""x"":0,""y"":0},{""cat"":""11"",""src"":""1"",""x"":0,""y"":0},{""cat"":""33"",""src"":""7"",""x"":0,""y"":0},{""cat"":""33"",""src"":""9"",""x"":0,""y"":0},{""cat"":""13"",""src"":""7"",""x"":0,""y"":0},{""cat"":""13"",""src"":""3"",""x"":0,""y"":0},{""cat"":""13"",""src"":""4"",""x"":0,""y"":0},{""cat"":""33"",""src"":""17"",""x"":0,""y"":0}]","[{""cat"":11,""src"":12,""loc"":0},{""cat"":11,""src"":6,""loc"":6},{""cat"":11,""src"":1,""loc"":5},{""cat"":33,""src"":7,""loc"":4},{""cat"":33,""src"":9,""loc"":2},{""cat"":13,""src"":7,""loc"":1},{""cat"":13,""src"":3,""loc"":3},{""cat"":13,""src"":4,""loc"":8},{""cat"":33,""src"":17,""loc"":7}]","7","11,13,33,13,33,11,11,33,13,12,7,9,3,7,1,6,17,4,0,1,2,3,4,5,6,7,8,0,5,4,6,3,2,1,8,7",NA
"1282","sort_feedback","32","html-keyboard-response","253","3927254","0.0-6.0-44.0","1","2020-1-7 7:28:37","FISH",NA,NA,NA,NA,NA,NA,NA,NA,NA,NA,NA,NA,NA,NA
"19972","setup2",NA,"animation","254","3947230","0.0-6.0-45.0","1","2020-1-7 7:28:37","FISH",NA,NA,"[{""cat"":2,""src"":12,""loc"":6},{""cat"":10,""src"":8,""loc"":8},{""cat"":28,""src"":14,""loc"":7},{""cat"":28,""src"":9,""loc"":4},{""cat"":2,""src"":10,""loc"":3},{""cat"":10,""src"":19,""loc"":5},{""cat"":10,""src"":9,""loc"":1},{""cat"":28,""src"":2,""loc"":2},{""cat"":2,""src"":13,""loc"":0}]","2","1112,1104,1106,1109,1117,1102,1104,1112,1105,10001",NA,NA,NA,NA,NA,NA,NA,NA,NA
"1067","flanker_instructions","32","html-keyboard-response","255","3948302","0.0-6.0-46.0","1","2020-1-7 7:28:37","FISH",NA,NA,NA,NA,NA,NA,NA,NA,NA,NA,NA,NA,NA,NA
"581","flanker_test","37","image-keyboard-response","256","3949896","0.0-6.0-47.0-0.0","1","2020-1-7 7:28:37","FISH",NA,NA,NA,NA,NA,"incongruent","left","TRUE",NA,NA,NA,NA,NA,NA
"476","flanker_test","39","image-keyboard-response","257","3951415","0.0-6.0-47.0-0.1","1","2020-1-7 7:28:37","FISH",NA,NA,NA,NA,NA,"congruent","right","TRUE",NA,NA,NA,NA,NA,NA
"558","flanker_test","37","image-keyboard-response","258","3952468","0.0-6.0-47.0-0.2","1","2020-1-7 7:28:37","FISH",NA,NA,NA,NA,NA,"congruent","left","TRUE",NA,NA,NA,NA,NA,NA
"541","flanker_test","39","image-keyboard-response","259","3954167","0.0-6.0-47.0-0.3","1","2020-1-7 7:28:37","FISH",NA,NA,NA,NA,NA,"incongruent","right","TRUE",NA,NA,NA,NA,NA,NA
"50973","sort_trial",NA,"free-sort","260","4005564","0.0-6.0-48.0","1","2020-1-7 7:28:37","FISH",NA,NA,NA,NA,NA,NA,NA,NA,"[{""cat"":2,""src"":12,""x"":3,""y"":438},{""cat"":10,""src"":8,""x"":5,""y"":14},{""cat"":28,""src"":14,""x"":51,""y"":367},{""cat"":28,""src"":9,""x"":5,""y"":306},{""cat"":2,""src"":10,""x"":22,""y"":197},{""cat"":10,""src"":19,""x"":21,""y"":507},{""cat"":10,""src"":9,""x"":6,""y"":255},{""cat"":28,""src"":2,""x"":47,""y"":135},{""cat"":2,""src"":13,""x"":43,""y"":89}]","[{""cat"":""2"",""src"":""13"",""x"":0,""y"":0},{""cat"":""28"",""src"":""2"",""x"":0,""y"":0},{""cat"":""2"",""src"":""12"",""x"":0,""y"":0},{""cat"":""2"",""src"":""10"",""x"":0,""y"":0},{""cat"":""10"",""src"":""19"",""x"":0,""y"":0},{""cat"":""10"",""src"":""8"",""x"":0,""y"":0},{""cat"":""28"",""src"":""9"",""x"":0,""y"":0},{""cat"":""28"",""src"":""14"",""x"":0,""y"":0},{""cat"":""10"",""src"":""9"",""x"":441,""y"":78},{""cat"":""10"",""src"":""9"",""x"":0,""y"":0}]","[{""cat"":2,""src"":13,""loc"":0},{""cat"":28,""src"":2,""loc"":2},{""cat"":2,""src"":12,""loc"":6},{""cat"":2,""src"":10,""loc"":3},{""cat"":10,""src"":19,""loc"":5},{""cat"":10,""src"":8,""loc"":8},{""cat"":28,""src"":9,""loc"":7},{""cat"":28,""src"":14,""loc"":4},{""cat"":10,""src"":9,""loc"":1}]","7","2,10,28,2,28,10,2,28,10,13,9,2,10,14,19,12,9,8,0,1,2,3,4,5,6,7,8,0,8,1,3,7,4,2,6,5",NA
"1014","sort_feedback","32","html-keyboard-response","261","4006584","0.0-6.0-49.0","1","2020-1-7 7:28:37","FISH",NA,NA,NA,NA,NA,NA,NA,NA,NA,NA,NA,NA,NA,NA
"6840","demographics",NA,"html-button-response","262","4013429","0.0-7.0-0.0","1","2020-1-7 7:28:37","FISH","0",NA,NA,NA,NA,NA,NA,NA,NA,NA,NA,NA,NA,NA
"12980","workerID",NA,"survey-text","263","4026413","0.0-7.0-1.0","1","2020-1-7 7:28:37","FISH",NA,NA,NA,NA,NA,NA,NA,NA,NA,NA,NA,NA,NA,"{""Q0"":""A1EP3XESXAG0EP""}"
"16770","attn_check",NA,"survey-multi-choice","264","4043199","0.0-7.0-2.0","1","2020-1-7 7:28:37","FISH",NA,NA,NA,NA,NA,NA,NA,NA,NA,NA,NA,NA,NA,"{""Q0"":""FISH""}"
"10365","age",NA,"survey-text","265","4053571","0.0-7.0-3.0","1","2020-1-7 7:28:37","FISH",NA,NA,NA,NA,NA,NA,NA,NA,NA,NA,NA,NA,NA,"{""Q0"":""33""}"
"6451","gender",NA,"survey-multi-choice","266","4060030","0.0-7.0-4.0","1","2020-1-7 7:28:37","FISH",NA,NA,NA,NA,NA,NA,NA,NA,NA,NA,NA,NA,NA,"{""Q0"":""Female""}"
"1964","ethnic",NA,"survey-multi-choice","267","4062000","0.0-7.0-5.0","1","2020-1-7 7:28:37","FISH",NA,NA,NA,NA,NA,NA,NA,NA,NA,NA,NA,NA,NA,"{""Q0"":""Hispanic or Latino""}"
"3303","race",NA,"survey-multi-select","268","4065315","0.0-7.0-6.0","1","2020-1-7 7:28:37","FISH",NA,NA,NA,NA,NA,NA,NA,NA,NA,NA,NA,NA,NA,"{""Q0"":[""White""]}"
"2241","english",NA,"survey-multi-choice","269","4067563","0.0-7.0-7.0","1","2020-1-7 7:28:37","FISH",NA,NA,NA,NA,NA,NA,NA,NA,NA,NA,NA,NA,NA,"{""Q0"":""Yes""}"
"55712","understand",NA,"survey-multi-choice","270","4123281","0.0-7.0-8.0","1","2020-1-7 7:28:37","FISH",NA,NA,NA,NA,NA,NA,NA,NA,NA,NA,NA,NA,NA,"{""Q0"":""No""}"
"137384","strategies",NA,"survey-text","271","4260669","0.0-7.0-9.0","1","2020-1-7 7:28:37","FISH",NA,NA,NA,NA,NA,NA,NA,NA,NA,NA,NA,NA,NA,"{""Q0"":""I tried to use things in each room to remind me of where the words should go like if most words were one room was mainly clothing I would remember clothing room.""}"
"17264","comments",NA,"survey-text","272","4277936","0.0-7.0-10.0","1","2020-1-7 7:28:37","FISH",NA,NA,NA,NA,NA,NA,NA,NA,NA,NA,NA,NA,NA,"{""Q0"":""Fun tasks. Thank you!""}"
"2516","study_end",NA,"html-button-response","273","4280456","0.0-8.0","1","2020-1-7 7:28:37","FISH","0",NA,NA,NA,NA,NA,NA,NA,NA,NA,NA,NA,NA,NA
