"rt","stimulus","key_press","trial_type","trial_index","time_elapsed","internal_node_id","session","startTime","attn_word","button_pressed","view_history","animation_sequence","condition","time_sequence","stim_type","direction","correct","init_locations","moves","final_locations","sort_correct","finalLocations","responses"
"4176","welcome","13","html-keyboard-response","0","4178","0.0-0.0","1","2020-1-6 11:45:1","ELEPHANT",NA,NA,NA,NA,NA,NA,NA,NA,NA,NA,NA,NA,NA,NA
"9597","consent",NA,"html-button-response","1","13777","0.0-1.0","1","2020-1-6 11:45:1","ELEPHANT","0",NA,NA,NA,NA,NA,NA,NA,NA,NA,NA,NA,NA,NA
"73483","instructions",NA,"instructions","2","87261","0.0-2.0","1","2020-1-6 11:45:1","ELEPHANT",NA,"[{""page_index"":0,""viewing_time"":8560},{""page_index"":1,""viewing_time"":6058},{""page_index"":2,""viewing_time"":18212},{""page_index"":3,""viewing_time"":16192},{""page_index"":4,""viewing_time"":7128},{""page_index"":5,""viewing_time"":14444},{""page_index"":6,""viewing_time"":2888}]",NA,NA,NA,NA,NA,NA,NA,NA,NA,NA,NA,NA
"19914","setup5",NA,"animation","3","107176","0.0-3.0-0.0","1","2020-1-6 11:45:1","ELEPHANT",NA,NA,"[{""cat"":29,""src"":10,""loc"":6},{""cat"":18,""src"":17,""loc"":3},{""cat"":17,""src"":1,""loc"":0},{""cat"":17,""src"":10,""loc"":4},{""cat"":29,""src"":6,""loc"":2},{""cat"":18,""src"":2,""loc"":7},{""cat"":18,""src"":5,""loc"":1},{""cat"":17,""src"":8,""loc"":8},{""cat"":29,""src"":0,""loc"":5}]","5","1102,1101,1101,1101,1101,1101,1102,1102,1101,10002",NA,NA,NA,NA,NA,NA,NA,NA,NA
"16873","flanker_instructions","13","html-keyboard-response","4","124051","0.0-3.0-1.0","1","2020-1-6 11:45:1","ELEPHANT",NA,NA,NA,NA,NA,NA,NA,NA,NA,NA,NA,NA,NA,NA
NA,"flanker_test",NA,"image-keyboard-response","5","125953","0.0-3.0-2.0-0.0","1","2020-1-6 11:45:1","ELEPHANT",NA,NA,NA,NA,NA,"congruent","right","FALSE",NA,NA,NA,NA,NA,NA
"596","flanker_test","37","image-keyboard-response","6","127347","0.0-3.0-2.0-0.1","1","2020-1-6 11:45:1","ELEPHANT",NA,NA,NA,NA,NA,"incongruent","left","TRUE",NA,NA,NA,NA,NA,NA
"429","flanker_test","37","image-keyboard-response","7","128403","0.0-3.0-2.0-0.2","1","2020-1-6 11:45:1","ELEPHANT",NA,NA,NA,NA,NA,"congruent","left","TRUE",NA,NA,NA,NA,NA,NA
"686","flanker_test","39","image-keyboard-response","8","130251","0.0-3.0-2.0-0.3","1","2020-1-6 11:45:1","ELEPHANT",NA,NA,NA,NA,NA,"incongruent","right","TRUE",NA,NA,NA,NA,NA,NA
"46994","sort_trial",NA,"free-sort","9","178417","0.0-3.0-3.0","1","2020-1-6 11:45:1","ELEPHANT",NA,NA,NA,NA,NA,NA,NA,NA,"[{""cat"":29,""src"":10,""x"":8,""y"":13},{""cat"":18,""src"":17,""x"":33,""y"":138},{""cat"":17,""src"":1,""x"":62,""y"":491},{""cat"":17,""src"":10,""x"":38,""y"":76},{""cat"":29,""src"":6,""x"":46,""y"":185},{""cat"":18,""src"":2,""x"":22,""y"":428},{""cat"":18,""src"":5,""x"":79,""y"":380},{""cat"":17,""src"":8,""x"":48,""y"":253},{""cat"":29,""src"":0,""x"":23,""y"":300}]","[{""cat"":""29"",""src"":""10"",""x"":0,""y"":0},{""cat"":""17"",""src"":""8"",""x"":0,""y"":0},{""cat"":""17"",""src"":""1"",""x"":0,""y"":0},{""cat"":""17"",""src"":""10"",""x"":0,""y"":0},{""cat"":""29"",""src"":""6"",""x"":0,""y"":0},{""cat"":""29"",""src"":""0"",""x"":0,""y"":0},{""cat"":""18"",""src"":""17"",""x"":0,""y"":0},{""cat"":""18"",""src"":""5"",""x"":0,""y"":0},{""cat"":""18"",""src"":""2"",""x"":22,""y"":428},{""cat"":""18"",""src"":""2"",""x"":0,""y"":0}]","[{""cat"":29,""src"":10,""loc"":4},{""cat"":17,""src"":8,""loc"":8},{""cat"":17,""src"":1,""loc"":0},{""cat"":17,""src"":10,""loc"":1},{""cat"":29,""src"":6,""loc"":5},{""cat"":29,""src"":0,""loc"":3},{""cat"":18,""src"":17,""loc"":7},{""cat"":18,""src"":5,""loc"":6},{""cat"":18,""src"":2,""loc"":2}]","2","17,17,18,29,29,29,18,18,17,1,10,2,0,10,6,5,17,8,0,1,2,3,4,5,6,7,8,2,3,8,5,0,4,7,6,1",NA
"9016","sort_feedback","13","html-keyboard-response","10","187435","0.0-3.0-4.0","1","2020-1-6 11:45:1","ELEPHANT",NA,NA,NA,NA,NA,NA,NA,NA,NA,NA,NA,NA,NA,NA
"19914","setup5",NA,"animation","11","207350","0.0-3.0-5.0","1","2020-1-6 11:45:1","ELEPHANT",NA,NA,"[{""cat"":20,""src"":11,""loc"":3},{""cat"":21,""src"":11,""loc"":1},{""cat"":1,""src"":2,""loc"":6},{""cat"":20,""src"":4,""loc"":2},{""cat"":1,""src"":13,""loc"":4},{""cat"":21,""src"":16,""loc"":8},{""cat"":1,""src"":6,""loc"":0},{""cat"":20,""src"":16,""loc"":7},{""cat"":21,""src"":3,""loc"":5}]","5","1103,1101,1101,1101,1102,1101,1102,1101,1101,10001",NA,NA,NA,NA,NA,NA,NA,NA,NA
"5476","flanker_instructions","13","html-keyboard-response","12","212826","0.0-3.0-6.0","1","2020-1-6 11:45:1","ELEPHANT",NA,NA,NA,NA,NA,NA,NA,NA,NA,NA,NA,NA,NA,NA
NA,"flanker_test",NA,"image-keyboard-response","13","214729","0.0-3.0-7.0-0.0","1","2020-1-6 11:45:1","ELEPHANT",NA,NA,NA,NA,NA,"congruent","right","FALSE",NA,NA,NA,NA,NA,NA
"748","flanker_test","39","image-keyboard-response","14","215898","0.0-3.0-7.0-0.1","1","2020-1-6 11:45:1","ELEPHANT",NA,NA,NA,NA,NA,"incongruent","right","TRUE",NA,NA,NA,NA,NA,NA
"544","flanker_test","37","image-keyboard-response","15","217522","0.0-3.0-7.0-0.2","1","2020-1-6 11:45:1","ELEPHANT",NA,NA,NA,NA,NA,"congruent","left","TRUE",NA,NA,NA,NA,NA,NA
"699","flanker_test","37","image-keyboard-response","16","218594","0.0-3.0-7.0-0.3","1","2020-1-6 11:45:1","ELEPHANT",NA,NA,NA,NA,NA,"incongruent","left","TRUE",NA,NA,NA,NA,NA,NA
"37620","sort_trial",NA,"free-sort","17","256726","0.0-3.0-8.0","1","2020-1-6 11:45:1","ELEPHANT",NA,NA,NA,NA,NA,NA,NA,NA,"[{""cat"":20,""src"":11,""x"":4,""y"":123},{""cat"":21,""src"":11,""x"":42,""y"":260},{""cat"":1,""src"":2,""x"":32,""y"":304},{""cat"":20,""src"":4,""x"":71,""y"":201},{""cat"":1,""src"":13,""x"":81,""y"":373},{""cat"":21,""src"":16,""x"":3,""y"":490},{""cat"":1,""src"":6,""x"":52,""y"":428},{""cat"":20,""src"":16,""x"":74,""y"":76},{""cat"":21,""src"":3,""x"":38,""y"":22}]","[{""cat"":""1"",""src"":""13"",""x"":0,""y"":0},{""cat"":""1"",""src"":""2"",""x"":0,""y"":0},{""cat"":""20"",""src"":""4"",""x"":0,""y"":0},{""cat"":""20"",""src"":""16"",""x"":0,""y"":0},{""cat"":""20"",""src"":""11"",""x"":0,""y"":0},{""cat"":""21"",""src"":""3"",""x"":0,""y"":0},{""cat"":""1"",""src"":""6"",""x"":0,""y"":0},{""cat"":""21"",""src"":""11"",""x"":0,""y"":0},{""cat"":""21"",""src"":""16"",""x"":0,""y"":0}]","[{""cat"":1,""src"":13,""loc"":4},{""cat"":1,""src"":2,""loc"":7},{""cat"":20,""src"":4,""loc"":2},{""cat"":20,""src"":16,""loc"":6},{""cat"":20,""src"":11,""loc"":3},{""cat"":21,""src"":3,""loc"":5},{""cat"":1,""src"":6,""loc"":0},{""cat"":21,""src"":11,""loc"":1},{""cat"":21,""src"":16,""loc"":8}]","7","1,21,20,20,1,21,20,1,21,6,11,4,11,13,3,16,2,16,0,1,2,3,4,5,6,7,8,6,7,2,4,0,5,3,1,8",NA
"5787","sort_feedback","32","html-keyboard-response","18","262514","0.0-3.0-9.0","1","2020-1-6 11:45:1","ELEPHANT",NA,NA,NA,NA,NA,NA,NA,NA,NA,NA,NA,NA,NA,NA
"6199","finalInstructions",NA,"html-button-response","19","268715","0.0-4.0-0.0","1","2020-1-6 11:45:1","ELEPHANT","0",NA,NA,NA,NA,NA,NA,NA,NA,NA,NA,NA,NA,NA
"19913","setup3",NA,"animation","20","288629","0.0-4.0-1.0","1","2020-1-6 11:45:1","ELEPHANT",NA,NA,"[{""cat"":31,""src"":16,""loc"":5},{""cat"":23,""src"":9,""loc"":7},{""cat"":2,""src"":4,""loc"":2},{""cat"":2,""src"":17,""loc"":0},{""cat"":31,""src"":0,""loc"":4},{""cat"":23,""src"":7,""loc"":8},{""cat"":23,""src"":17,""loc"":6},{""cat"":2,""src"":8,""loc"":1},{""cat"":31,""src"":3,""loc"":3}]","3","1103,1101,1101,1101,1102,1101,1101,1101,1102,10000",NA,NA,NA,NA,NA,NA,NA,NA,NA
"4478","flanker_instructions","13","html-keyboard-response","21","293107","0.0-4.0-2.0","1","2020-1-6 11:45:1","ELEPHANT",NA,NA,NA,NA,NA,NA,NA,NA,NA,NA,NA,NA,NA,NA
NA,"flanker_test",NA,"image-keyboard-response","22","295010","0.0-4.0-3.0-0.0","1","2020-1-6 11:45:1","ELEPHANT",NA,NA,NA,NA,NA,"congruent","right","FALSE",NA,NA,NA,NA,NA,NA
"848","flanker_test","39","image-keyboard-response","23","297011","0.0-4.0-3.0-0.1","1","2020-1-6 11:45:1","ELEPHANT",NA,NA,NA,NA,NA,"incongruent","right","TRUE",NA,NA,NA,NA,NA,NA
"544","flanker_test","37","image-keyboard-response","24","298075","0.0-4.0-3.0-0.2","1","2020-1-6 11:45:1","ELEPHANT",NA,NA,NA,NA,NA,"incongruent","left","TRUE",NA,NA,NA,NA,NA,NA
"474","flanker_test","37","image-keyboard-response","25","299290","0.0-4.0-3.0-0.3","1","2020-1-6 11:45:1","ELEPHANT",NA,NA,NA,NA,NA,"congruent","left","TRUE",NA,NA,NA,NA,NA,NA
"26951","sort_trial",NA,"free-sort","26","327405","0.0-4.0-4.0","1","2020-1-6 11:45:1","ELEPHANT",NA,NA,NA,NA,NA,NA,NA,NA,"[{""cat"":31,""src"":16,""x"":56,""y"":446},{""cat"":23,""src"":9,""x"":58,""y"":11},{""cat"":2,""src"":4,""x"":69,""y"":62},{""cat"":2,""src"":17,""x"":68,""y"":195},{""cat"":31,""src"":0,""x"":73,""y"":304},{""cat"":23,""src"":7,""x"":32,""y"":505},{""cat"":23,""src"":17,""x"":45,""y"":257},{""cat"":2,""src"":8,""x"":34,""y"":385},{""cat"":31,""src"":3,""x"":19,""y"":142}]","[{""cat"":""31"",""src"":""0"",""x"":0,""y"":0},{""cat"":""31"",""src"":""16"",""x"":0,""y"":0},{""cat"":""31"",""src"":""3"",""x"":0,""y"":0},{""cat"":""23"",""src"":""7"",""x"":0,""y"":0},{""cat"":""2"",""src"":""4"",""x"":0,""y"":0},{""cat"":""2"",""src"":""17"",""x"":0,""y"":0},{""cat"":""2"",""src"":""8"",""x"":0,""y"":0},{""cat"":""23"",""src"":""9"",""x"":0,""y"":0},{""cat"":""23"",""src"":""17"",""x"":0,""y"":0}]","[{""cat"":31,""src"":0,""loc"":4},{""cat"":31,""src"":16,""loc"":5},{""cat"":31,""src"":3,""loc"":3},{""cat"":23,""src"":7,""loc"":8},{""cat"":2,""src"":4,""loc"":2},{""cat"":2,""src"":17,""loc"":0},{""cat"":2,""src"":8,""loc"":1},{""cat"":23,""src"":9,""loc"":6},{""cat"":23,""src"":17,""loc"":7}]","7","2,2,2,31,31,31,23,23,23,17,8,4,3,0,16,9,17,7,0,1,2,3,4,5,6,7,8,5,6,4,2,0,1,7,8,3",NA
"3445","sort_feedback","32","html-keyboard-response","27","330851","0.0-4.0-5.0","1","2020-1-6 11:45:1","ELEPHANT",NA,NA,NA,NA,NA,NA,NA,NA,NA,NA,NA,NA,NA,NA
"19915","setup2",NA,"animation","28","350768","0.0-4.0-6.0","1","2020-1-6 11:45:1","ELEPHANT",NA,NA,"[{""cat"":0,""src"":11,""loc"":2},{""cat"":21,""src"":5,""loc"":0},{""cat"":22,""src"":9,""loc"":1},{""cat"":21,""src"":17,""loc"":6},{""cat"":22,""src"":11,""loc"":8},{""cat"":0,""src"":7,""loc"":7},{""cat"":0,""src"":4,""loc"":3},{""cat"":22,""src"":6,""loc"":5},{""cat"":21,""src"":9,""loc"":4}]","2","1102,1102,1101,1101,1101,1101,1103,1101,1101,10002",NA,NA,NA,NA,NA,NA,NA,NA,NA
"2529","flanker_instructions","16","html-keyboard-response","29","353298","0.0-4.0-7.0","1","2020-1-6 11:45:1","ELEPHANT",NA,NA,NA,NA,NA,NA,NA,NA,NA,NA,NA,NA,NA,NA
"670","flanker_test","37","image-keyboard-response","30","354970","0.0-4.0-8.0-0.0","1","2020-1-6 11:45:1","ELEPHANT",NA,NA,NA,NA,NA,"incongruent","left","TRUE",NA,NA,NA,NA,NA,NA
"529","flanker_test","39","image-keyboard-response","31","356291","0.0-4.0-8.0-0.1","1","2020-1-6 11:45:1","ELEPHANT",NA,NA,NA,NA,NA,"congruent","right","TRUE",NA,NA,NA,NA,NA,NA
"644","flanker_test","39","image-keyboard-response","32","357882","0.0-4.0-8.0-0.2","1","2020-1-6 11:45:1","ELEPHANT",NA,NA,NA,NA,NA,"incongruent","right","TRUE",NA,NA,NA,NA,NA,NA
"567","flanker_test","37","image-keyboard-response","33","359410","0.0-4.0-8.0-0.3","1","2020-1-6 11:45:1","ELEPHANT",NA,NA,NA,NA,NA,"congruent","left","TRUE",NA,NA,NA,NA,NA,NA
"36875","sort_trial",NA,"free-sort","34","397190","0.0-4.0-9.0","1","2020-1-6 11:45:1","ELEPHANT",NA,NA,NA,NA,NA,NA,NA,NA,"[{""cat"":0,""src"":11,""x"":18,""y"":199},{""cat"":21,""src"":5,""x"":6,""y"":76},{""cat"":22,""src"":9,""x"":69,""y"":485},{""cat"":21,""src"":17,""x"":18,""y"":429},{""cat"":22,""src"":11,""x"":33,""y"":252},{""cat"":0,""src"":7,""x"":6,""y"":130},{""cat"":0,""src"":4,""x"":40,""y"":25},{""cat"":22,""src"":6,""x"":83,""y"":309},{""cat"":21,""src"":9,""x"":63,""y"":384}]","[{""cat"":""22"",""src"":""9"",""x"":0,""y"":0},{""cat"":""21"",""src"":""9"",""x"":0,""y"":0},{""cat"":""21"",""src"":""5"",""x"":0,""y"":0},{""cat"":""22"",""src"":""6"",""x"":0,""y"":0},{""cat"":""21"",""src"":""17"",""x"":0,""y"":0},{""cat"":""22"",""src"":""11"",""x"":0,""y"":0},{""cat"":""0"",""src"":""11"",""x"":0,""y"":0},{""cat"":""0"",""src"":""7"",""x"":0,""y"":0},{""cat"":""0"",""src"":""4"",""x"":0,""y"":0}]","[{""cat"":22,""src"":9,""loc"":1},{""cat"":21,""src"":9,""loc"":4},{""cat"":21,""src"":5,""loc"":0},{""cat"":22,""src"":6,""loc"":5},{""cat"":21,""src"":17,""loc"":6},{""cat"":22,""src"":11,""loc"":7},{""cat"":0,""src"":11,""loc"":8},{""cat"":0,""src"":7,""loc"":3},{""cat"":0,""src"":4,""loc"":2}]","5","21,22,0,0,21,22,21,22,0,5,9,4,7,9,6,17,11,11,0,1,2,3,4,5,6,7,8,2,0,8,7,1,3,4,5,6",NA
"2659","sort_feedback","32","html-keyboard-response","35","399850","0.0-4.0-10.0","1","2020-1-6 11:45:1","ELEPHANT",NA,NA,NA,NA,NA,NA,NA,NA,NA,NA,NA,NA,NA,NA
"19914","setup4",NA,"animation","36","419765","0.0-4.0-11.0","1","2020-1-6 11:45:1","ELEPHANT",NA,NA,"[{""cat"":6,""src"":1,""loc"":6},{""cat"":6,""src"":12,""loc"":2},{""cat"":6,""src"":2,""loc"":4},{""cat"":0,""src"":11,""loc"":5},{""cat"":0,""src"":0,""loc"":1},{""cat"":0,""src"":4,""loc"":7},{""cat"":8,""src"":1,""loc"":0},{""cat"":8,""src"":9,""loc"":3},{""cat"":8,""src"":15,""loc"":8}]","4","1101,1102,1100,1101,1101,1101,1102,1102,1102,10002",NA,NA,NA,NA,NA,NA,NA,NA,NA
"2390","flanker_instructions","16","html-keyboard-response","37","422155","0.0-4.0-12.0","1","2020-1-6 11:45:1","ELEPHANT",NA,NA,NA,NA,NA,NA,NA,NA,NA,NA,NA,NA,NA,NA
"646","flanker_test","39","image-keyboard-response","38","423803","0.0-4.0-13.0-0.0","1","2020-1-6 11:45:1","ELEPHANT",NA,NA,NA,NA,NA,"congruent","right","TRUE",NA,NA,NA,NA,NA,NA
"477","flanker_test","37","image-keyboard-response","39","424907","0.0-4.0-13.0-0.1","1","2020-1-6 11:45:1","ELEPHANT",NA,NA,NA,NA,NA,"incongruent","left","TRUE",NA,NA,NA,NA,NA,NA
"467","flanker_test","37","image-keyboard-response","40","426083","0.0-4.0-13.0-0.2","1","2020-1-6 11:45:1","ELEPHANT",NA,NA,NA,NA,NA,"congruent","left","TRUE",NA,NA,NA,NA,NA,NA
"885","flanker_test","39","image-keyboard-response","41","428099","0.0-4.0-13.0-0.3","1","2020-1-6 11:45:1","ELEPHANT",NA,NA,NA,NA,NA,"incongruent","right","TRUE",NA,NA,NA,NA,NA,NA
"29169","sort_trial",NA,"free-sort","42","457848","0.0-4.0-14.0","1","2020-1-6 11:45:1","ELEPHANT",NA,NA,NA,NA,NA,NA,NA,NA,"[{""cat"":6,""src"":1,""x"":1,""y"":442},{""cat"":6,""src"":12,""x"":9,""y"":257},{""cat"":6,""src"":2,""x"":15,""y"":314},{""cat"":0,""src"":11,""x"":69,""y"":368},{""cat"":0,""src"":0,""x"":41,""y"":145},{""cat"":0,""src"":4,""x"":55,""y"":74},{""cat"":8,""src"":1,""x"":55,""y"":181},{""cat"":8,""src"":9,""x"":64,""y"":486},{""cat"":8,""src"":15,""x"":15,""y"":27}]","[{""cat"":""8"",""src"":""9"",""x"":0,""y"":0},{""cat"":""6"",""src"":""12"",""x"":0,""y"":0},{""cat"":""8"",""src"":""15"",""x"":0,""y"":0},{""cat"":""6"",""src"":""1"",""x"":1,""y"":442},{""cat"":""6"",""src"":""2"",""x"":0,""y"":0},{""cat"":""6"",""src"":""1"",""x"":0,""y"":0},{""cat"":""0"",""src"":""11"",""x"":0,""y"":0},{""cat"":""8"",""src"":""1"",""x"":0,""y"":0},{""cat"":""0"",""src"":""0"",""x"":0,""y"":0},{""cat"":""0"",""src"":""4"",""x"":0,""y"":0}]","[{""cat"":8,""src"":9,""loc"":4},{""cat"":6,""src"":12,""loc"":2},{""cat"":8,""src"":15,""loc"":1},{""cat"":6,""src"":2,""loc"":3},{""cat"":6,""src"":1,""loc"":8},{""cat"":0,""src"":11,""loc"":7},{""cat"":8,""src"":1,""loc"":0},{""cat"":0,""src"":0,""loc"":5},{""cat"":0,""src"":4,""loc"":6}]","2","8,8,6,6,8,0,0,0,6,1,15,12,2,9,0,4,11,1,0,1,2,3,4,5,6,7,8,6,2,1,3,0,7,8,5,4",NA
"4955","sort_feedback","32","html-keyboard-response","43","462803","0.0-4.0-15.0","1","2020-1-6 11:45:1","ELEPHANT",NA,NA,NA,NA,NA,NA,NA,NA,NA,NA,NA,NA,NA,NA
"19915","setup5",NA,"animation","44","482719","0.0-4.0-16.0","1","2020-1-6 11:45:1","ELEPHANT",NA,NA,"[{""cat"":32,""src"":2,""loc"":4},{""cat"":24,""src"":2,""loc"":8},{""cat"":31,""src"":11,""loc"":0},{""cat"":24,""src"":12,""loc"":5},{""cat"":31,""src"":6,""loc"":7},{""cat"":32,""src"":15,""loc"":2},{""cat"":32,""src"":9,""loc"":6},{""cat"":31,""src"":15,""loc"":3},{""cat"":24,""src"":3,""loc"":1}]","5","1102,1101,1102,1102,1102,1101,1102,1101,1101,10001",NA,NA,NA,NA,NA,NA,NA,NA,NA
"3811","flanker_instructions","16","html-keyboard-response","45","486531","0.0-4.0-17.0","1","2020-1-6 11:45:1","ELEPHANT",NA,NA,NA,NA,NA,NA,NA,NA,NA,NA,NA,NA,NA,NA
NA,"flanker_test",NA,"image-keyboard-response","46","488434","0.0-4.0-18.0-0.0","1","2020-1-6 11:45:1","ELEPHANT",NA,NA,NA,NA,NA,"incongruent","left","FALSE",NA,NA,NA,NA,NA,NA
"498","flanker_test","39","image-keyboard-response","47","489588","0.0-4.0-18.0-0.1","1","2020-1-6 11:45:1","ELEPHANT",NA,NA,NA,NA,NA,"congruent","right","TRUE",NA,NA,NA,NA,NA,NA
"390","flanker_test","39","image-keyboard-response","48","490339","0.0-4.0-18.0-0.2","1","2020-1-6 11:45:1","ELEPHANT",NA,NA,NA,NA,NA,"incongruent","right","TRUE",NA,NA,NA,NA,NA,NA
"546","flanker_test","37","image-keyboard-response","49","491636","0.0-4.0-18.0-0.3","1","2020-1-6 11:45:1","ELEPHANT",NA,NA,NA,NA,NA,"congruent","left","TRUE",NA,NA,NA,NA,NA,NA
"31193","sort_trial",NA,"free-sort","50","523686","0.0-4.0-19.0","1","2020-1-6 11:45:1","ELEPHANT",NA,NA,NA,NA,NA,NA,NA,NA,"[{""cat"":32,""src"":2,""x"":4,""y"":497},{""cat"":24,""src"":2,""x"":41,""y"":387},{""cat"":31,""src"":11,""x"":23,""y"":67},{""cat"":24,""src"":12,""x"":41,""y"":241},{""cat"":31,""src"":6,""x"":73,""y"":318},{""cat"":32,""src"":15,""x"":37,""y"":199},{""cat"":32,""src"":9,""x"":18,""y"":148},{""cat"":31,""src"":15,""x"":45,""y"":446},{""cat"":24,""src"":3,""x"":51,""y"":26}]","[{""cat"":""32"",""src"":""2"",""x"":0,""y"":0},{""cat"":""24"",""src"":""12"",""x"":0,""y"":0},{""cat"":""31"",""src"":""15"",""x"":0,""y"":0},{""cat"":""24"",""src"":""2"",""x"":0,""y"":0},{""cat"":""32"",""src"":""9"",""x"":0,""y"":0},{""cat"":""31"",""src"":""6"",""x"":0,""y"":0},{""cat"":""24"",""src"":""3"",""x"":0,""y"":0},{""cat"":""31"",""src"":""11"",""x"":0,""y"":0},{""cat"":""32"",""src"":""15"",""x"":0,""y"":0}]","[{""cat"":32,""src"":2,""loc"":4},{""cat"":24,""src"":12,""loc"":5},{""cat"":31,""src"":15,""loc"":3},{""cat"":24,""src"":2,""loc"":8},{""cat"":32,""src"":9,""loc"":6},{""cat"":31,""src"":6,""loc"":7},{""cat"":24,""src"":3,""loc"":1},{""cat"":31,""src"":11,""loc"":0},{""cat"":32,""src"":15,""loc"":2}]","9","31,24,32,31,32,24,32,31,24,11,3,15,15,2,12,9,6,2,0,1,2,3,4,5,6,7,8,7,6,8,2,0,1,4,5,3",NA
"3293","sort_feedback","32","html-keyboard-response","51","526979","0.0-4.0-20.0","1","2020-1-6 11:45:1","ELEPHANT",NA,NA,NA,NA,NA,NA,NA,NA,NA,NA,NA,NA,NA,NA
"19914","setup1",NA,"animation","52","546894","0.0-4.0-21.0","1","2020-1-6 11:45:1","ELEPHANT",NA,NA,"[{""cat"":32,""src"":10,""loc"":8},{""cat"":32,""src"":16,""loc"":7},{""cat"":32,""src"":15,""loc"":6},{""cat"":33,""src"":17,""loc"":1},{""cat"":33,""src"":2,""loc"":0},{""cat"":33,""src"":10,""loc"":2},{""cat"":0,""src"":11,""loc"":4},{""cat"":0,""src"":2,""loc"":5},{""cat"":0,""src"":5,""loc"":3}]","1","1101,1101,1102,1101,1102,1102,1102,1101,1101,10001",NA,NA,NA,NA,NA,NA,NA,NA,NA
"2076","flanker_instructions","16","html-keyboard-response","53","548972","0.0-4.0-22.0","1","2020-1-6 11:45:1","ELEPHANT",NA,NA,NA,NA,NA,NA,NA,NA,NA,NA,NA,NA,NA,NA
NA,"flanker_test",NA,"image-keyboard-response","54","550874","0.0-4.0-23.0-0.0","1","2020-1-6 11:45:1","ELEPHANT",NA,NA,NA,NA,NA,"incongruent","right","FALSE",NA,NA,NA,NA,NA,NA
"589","flanker_test","39","image-keyboard-response","55","552572","0.0-4.0-23.0-0.1","1","2020-1-6 11:45:1","ELEPHANT",NA,NA,NA,NA,NA,"congruent","right","TRUE",NA,NA,NA,NA,NA,NA
"482","flanker_test","37","image-keyboard-response","56","553916","0.0-4.0-23.0-0.2","1","2020-1-6 11:45:1","ELEPHANT",NA,NA,NA,NA,NA,"incongruent","left","TRUE",NA,NA,NA,NA,NA,NA
"431","flanker_test","37","image-keyboard-response","57","555331","0.0-4.0-23.0-0.3","1","2020-1-6 11:45:1","ELEPHANT",NA,NA,NA,NA,NA,"congruent","left","TRUE",NA,NA,NA,NA,NA,NA
"34641","sort_trial",NA,"free-sort","58","590900","0.0-4.0-24.0","1","2020-1-6 11:45:1","ELEPHANT",NA,NA,NA,NA,NA,NA,NA,NA,"[{""cat"":32,""src"":10,""x"":0,""y"":255},{""cat"":32,""src"":16,""x"":65,""y"":128},{""cat"":32,""src"":15,""x"":65,""y"":437},{""cat"":33,""src"":17,""x"":46,""y"":179},{""cat"":33,""src"":2,""x"":73,""y"":377},{""cat"":33,""src"":10,""x"":37,""y"":75},{""cat"":0,""src"":11,""x"":69,""y"":495},{""cat"":0,""src"":2,""x"":6,""y"":324},{""cat"":0,""src"":5,""x"":22,""y"":27}]","[{""cat"":""33"",""src"":""10"",""x"":0,""y"":0},{""cat"":""0"",""src"":""11"",""x"":796,""y"":120},{""cat"":""32"",""src"":""15"",""x"":0,""y"":0},{""cat"":""32"",""src"":""10"",""x"":0,""y"":0},{""cat"":""32"",""src"":""16"",""x"":0,""y"":0},{""cat"":""0"",""src"":""11"",""x"":0,""y"":0},{""cat"":""33"",""src"":""17"",""x"":0,""y"":0},{""cat"":""0"",""src"":""5"",""x"":0,""y"":0},{""cat"":""0"",""src"":""2"",""x"":0,""y"":0},{""cat"":""33"",""src"":""2"",""x"":0,""y"":0}]","[{""cat"":33,""src"":10,""loc"":1},{""cat"":32,""src"":15,""loc"":8},{""cat"":32,""src"":10,""loc"":7},{""cat"":32,""src"":16,""loc"":6},{""cat"":0,""src"":11,""loc"":5},{""cat"":33,""src"":17,""loc"":4},{""cat"":0,""src"":5,""loc"":3},{""cat"":0,""src"":2,""loc"":2},{""cat"":33,""src"":2,""loc"":0}]","2","33,33,0,0,33,0,32,32,32,2,10,2,5,17,11,16,10,15,0,1,2,3,4,5,6,7,8,8,0,7,6,5,4,3,2,1",NA
"2207","sort_feedback","32","html-keyboard-response","59","593108","0.0-4.0-25.0","1","2020-1-6 11:45:1","ELEPHANT",NA,NA,NA,NA,NA,NA,NA,NA,NA,NA,NA,NA,NA,NA
"19913","setup5",NA,"animation","60","613021","0.0-4.0-26.0","1","2020-1-6 11:45:1","ELEPHANT",NA,NA,"[{""cat"":25,""src"":10,""loc"":2},{""cat"":10,""src"":14,""loc"":3},{""cat"":20,""src"":8,""loc"":8},{""cat"":20,""src"":14,""loc"":4},{""cat"":25,""src"":13,""loc"":7},{""cat"":10,""src"":16,""loc"":0},{""cat"":10,""src"":11,""loc"":6},{""cat"":20,""src"":5,""loc"":1},{""cat"":25,""src"":14,""loc"":5}]","5","1102,1101,1101,1102,1101,1101,1100,1102,1102,10001",NA,NA,NA,NA,NA,NA,NA,NA,NA
"4125","flanker_instructions","16","html-keyboard-response","61","617148","0.0-4.0-27.0","1","2020-1-6 11:45:1","ELEPHANT",NA,NA,NA,NA,NA,NA,NA,NA,NA,NA,NA,NA,NA,NA
NA,"flanker_test",NA,"image-keyboard-response","62","619051","0.0-4.0-28.0-0.0","1","2020-1-6 11:45:1","ELEPHANT",NA,NA,NA,NA,NA,"congruent","left","FALSE",NA,NA,NA,NA,NA,NA
"571","flanker_test","39","image-keyboard-response","63","620748","0.0-4.0-28.0-0.1","1","2020-1-6 11:45:1","ELEPHANT",NA,NA,NA,NA,NA,"incongruent","right","TRUE",NA,NA,NA,NA,NA,NA
"538","flanker_test","37","image-keyboard-response","64","622436","0.0-4.0-28.0-0.2","1","2020-1-6 11:45:1","ELEPHANT",NA,NA,NA,NA,NA,"incongruent","left","TRUE",NA,NA,NA,NA,NA,NA
"488","flanker_test","37","image-keyboard-response","65","623587","0.0-4.0-28.0-0.3","1","2020-1-6 11:45:1","ELEPHANT",NA,NA,NA,NA,NA,"congruent","right","FALSE",NA,NA,NA,NA,NA,NA
"30921","sort_trial",NA,"free-sort","66","655382","0.0-4.0-29.0","1","2020-1-6 11:45:1","ELEPHANT",NA,NA,NA,NA,NA,NA,NA,NA,"[{""cat"":25,""src"":10,""x"":68,""y"":66},{""cat"":10,""src"":14,""x"":47,""y"":130},{""cat"":20,""src"":8,""x"":51,""y"":317},{""cat"":20,""src"":14,""x"":0,""y"":258},{""cat"":25,""src"":13,""x"":59,""y"":208},{""cat"":10,""src"":16,""x"":20,""y"":432},{""cat"":10,""src"":11,""x"":9,""y"":15},{""cat"":20,""src"":5,""x"":81,""y"":372},{""cat"":25,""src"":14,""x"":40,""y"":504}]","[{""cat"":""10"",""src"":""16"",""x"":0,""y"":0},{""cat"":""20"",""src"":""5"",""x"":0,""y"":0},{""cat"":""25"",""src"":""10"",""x"":0,""y"":0},{""cat"":""25"",""src"":""14"",""x"":0,""y"":0},{""cat"":""20"",""src"":""14"",""x"":0,""y"":0},{""cat"":""10"",""src"":""14"",""x"":0,""y"":0},{""cat"":""10"",""src"":""11"",""x"":0,""y"":0},{""cat"":""25"",""src"":""13"",""x"":0,""y"":0},{""cat"":""20"",""src"":""8"",""x"":0,""y"":0}]","[{""cat"":10,""src"":16,""loc"":0},{""cat"":20,""src"":5,""loc"":1},{""cat"":25,""src"":10,""loc"":2},{""cat"":25,""src"":14,""loc"":5},{""cat"":20,""src"":14,""loc"":4},{""cat"":10,""src"":14,""loc"":3},{""cat"":10,""src"":11,""loc"":6},{""cat"":25,""src"":13,""loc"":7},{""cat"":20,""src"":8,""loc"":8}]","9","10,20,25,10,20,25,10,25,20,16,5,10,14,14,14,11,13,8,0,1,2,3,4,5,6,7,8,0,1,2,5,4,3,6,7,8",NA
"2573","sort_feedback","32","html-keyboard-response","67","657956","0.0-4.0-30.0","1","2020-1-6 11:45:1","ELEPHANT",NA,NA,NA,NA,NA,NA,NA,NA,NA,NA,NA,NA,NA,NA
"19913","setup2",NA,"animation","68","677870","0.0-4.0-31.0","1","2020-1-6 11:45:1","ELEPHANT",NA,NA,"[{""cat"":14,""src"":13,""loc"":2},{""cat"":17,""src"":16,""loc"":1},{""cat"":18,""src"":9,""loc"":0},{""cat"":18,""src"":16,""loc"":6},{""cat"":17,""src"":18,""loc"":7},{""cat"":14,""src"":14,""loc"":8},{""cat"":17,""src"":3,""loc"":3},{""cat"":18,""src"":15,""loc"":4},{""cat"":14,""src"":10,""loc"":5}]","2","1101,1101,1102,1101,1101,1102,1101,1102,1101,10001",NA,NA,NA,NA,NA,NA,NA,NA,NA
"2702","flanker_instructions","16","html-keyboard-response","69","680572","0.0-4.0-32.0","1","2020-1-6 11:45:1","ELEPHANT",NA,NA,NA,NA,NA,NA,NA,NA,NA,NA,NA,NA,NA,NA
"613","flanker_test","39","image-keyboard-response","70","682187","0.0-4.0-33.0-0.0","1","2020-1-6 11:45:1","ELEPHANT",NA,NA,NA,NA,NA,"congruent","right","TRUE",NA,NA,NA,NA,NA,NA
"564","flanker_test","37","image-keyboard-response","71","683723","0.0-4.0-33.0-0.1","1","2020-1-6 11:45:1","ELEPHANT",NA,NA,NA,NA,NA,"incongruent","left","TRUE",NA,NA,NA,NA,NA,NA
"429","flanker_test","37","image-keyboard-response","72","685211","0.0-4.0-33.0-0.2","1","2020-1-6 11:45:1","ELEPHANT",NA,NA,NA,NA,NA,"congruent","left","TRUE",NA,NA,NA,NA,NA,NA
"586","flanker_test","39","image-keyboard-response","73","686419","0.0-4.0-33.0-0.3","1","2020-1-6 11:45:1","ELEPHANT",NA,NA,NA,NA,NA,"incongruent","right","TRUE",NA,NA,NA,NA,NA,NA
"50659","sort_trial",NA,"free-sort","74","738073","0.0-4.0-34.0","1","2020-1-6 11:45:1","ELEPHANT",NA,NA,NA,NA,NA,NA,NA,NA,"[{""cat"":14,""src"":13,""x"":8,""y"":437},{""cat"":17,""src"":16,""x"":64,""y"":184},{""cat"":18,""src"":9,""x"":71,""y"":241},{""cat"":18,""src"":16,""x"":80,""y"":80},{""cat"":17,""src"":18,""x"":36,""y"":127},{""cat"":14,""src"":14,""x"":37,""y"":312},{""cat"":17,""src"":3,""x"":64,""y"":359},{""cat"":18,""src"":15,""x"":57,""y"":23},{""cat"":14,""src"":10,""x"":8,""y"":500}]","[{""cat"":""17"",""src"":""16"",""x"":0,""y"":0},{""cat"":""14"",""src"":""13"",""x"":134,""y"":368},{""cat"":""14"",""src"":""13"",""x"":0,""y"":0},{""cat"":""18"",""src"":""9"",""x"":0,""y"":0},{""cat"":""17"",""src"":""18"",""x"":0,""y"":0},{""cat"":""18"",""src"":""16"",""x"":0,""y"":0},{""cat"":""14"",""src"":""14"",""x"":0,""y"":0},{""cat"":""14"",""src"":""10"",""x"":0,""y"":0},{""cat"":""18"",""src"":""15"",""x"":0,""y"":0},{""cat"":""17"",""src"":""3"",""x"":0,""y"":0}]","[{""cat"":17,""src"":16,""loc"":1},{""cat"":14,""src"":13,""loc"":2},{""cat"":18,""src"":9,""loc"":0},{""cat"":17,""src"":18,""loc"":7},{""cat"":18,""src"":16,""loc"":6},{""cat"":14,""src"":14,""loc"":8},{""cat"":14,""src"":10,""loc"":5},{""cat"":18,""src"":15,""loc"":4},{""cat"":17,""src"":3,""loc"":3}]","9","18,17,14,17,18,14,18,17,14,9,16,13,3,15,10,16,18,14,0,1,2,3,4,5,6,7,8,2,0,1,8,7,6,4,3,5",NA
"3065","sort_feedback","32","html-keyboard-response","75","741139","0.0-4.0-35.0","1","2020-1-6 11:45:1","ELEPHANT",NA,NA,NA,NA,NA,NA,NA,NA,NA,NA,NA,NA,NA,NA
"19914","setup4",NA,"animation","76","761053","0.0-4.0-36.0","1","2020-1-6 11:45:1","ELEPHANT",NA,NA,"[{""cat"":8,""src"":10,""loc"":3},{""cat"":8,""src"":8,""loc"":0},{""cat"":8,""src"":9,""loc"":8},{""cat"":20,""src"":4,""loc"":7},{""cat"":20,""src"":0,""loc"":1},{""cat"":20,""src"":14,""loc"":4},{""cat"":11,""src"":4,""loc"":6},{""cat"":11,""src"":16,""loc"":2},{""cat"":11,""src"":1,""loc"":5}]","4","1102,1101,1101,1102,1101,1102,1101,1102,1101,10001",NA,NA,NA,NA,NA,NA,NA,NA,NA
"4725","flanker_instructions","13","html-keyboard-response","77","765779","0.0-4.0-37.0","1","2020-1-6 11:45:1","ELEPHANT",NA,NA,NA,NA,NA,NA,NA,NA,NA,NA,NA,NA,NA,NA
"678","flanker_test","37","image-keyboard-response","78","767459","0.0-4.0-38.0-0.0","1","2020-1-6 11:45:1","ELEPHANT",NA,NA,NA,NA,NA,"incongruent","left","TRUE",NA,NA,NA,NA,NA,NA
"730","flanker_test","39","image-keyboard-response","79","768883","0.0-4.0-38.0-0.1","1","2020-1-6 11:45:1","ELEPHANT",NA,NA,NA,NA,NA,"incongruent","right","TRUE",NA,NA,NA,NA,NA,NA
"542","flanker_test","37","image-keyboard-response","80","769939","0.0-4.0-38.0-0.2","1","2020-1-6 11:45:1","ELEPHANT",NA,NA,NA,NA,NA,"congruent","left","TRUE",NA,NA,NA,NA,NA,NA
"514","flanker_test","39","image-keyboard-response","81","771571","0.0-4.0-38.0-0.3","1","2020-1-6 11:45:1","ELEPHANT",NA,NA,NA,NA,NA,"congruent","right","TRUE",NA,NA,NA,NA,NA,NA
"35938","sort_trial",NA,"free-sort","82","807816","0.0-4.0-39.0","1","2020-1-6 11:45:1","ELEPHANT",NA,NA,NA,NA,NA,NA,NA,NA,"[{""cat"":8,""src"":10,""x"":70,""y"":122},{""cat"":8,""src"":8,""x"":77,""y"":438},{""cat"":8,""src"":9,""x"":20,""y"":186},{""cat"":20,""src"":4,""x"":60,""y"":255},{""cat"":20,""src"":0,""x"":33,""y"":479},{""cat"":20,""src"":14,""x"":18,""y"":315},{""cat"":11,""src"":4,""x"":81,""y"":85},{""cat"":11,""src"":16,""x"":36,""y"":4},{""cat"":11,""src"":1,""x"":18,""y"":371}]","[{""cat"":""20"",""src"":""0"",""x"":0,""y"":0},{""cat"":""8"",""src"":""8"",""x"":247,""y"":110},{""cat"":""8"",""src"":""8"",""x"":0,""y"":0},{""cat"":""11"",""src"":""16"",""x"":0,""y"":0},{""cat"":""11"",""src"":""4"",""x"":0,""y"":0},{""cat"":""11"",""src"":""1"",""x"":0,""y"":0},{""cat"":""8"",""src"":""10"",""x"":0,""y"":0},{""cat"":""8"",""src"":""9"",""x"":0,""y"":0},{""cat"":""20"",""src"":""4"",""x"":0,""y"":0},{""cat"":""20"",""src"":""14"",""x"":0,""y"":0}]","[{""cat"":20,""src"":0,""loc"":1},{""cat"":8,""src"":8,""loc"":0},{""cat"":11,""src"":16,""loc"":2},{""cat"":11,""src"":4,""loc"":6},{""cat"":11,""src"":1,""loc"":5},{""cat"":8,""src"":10,""loc"":3},{""cat"":8,""src"":9,""loc"":8},{""cat"":20,""src"":4,""loc"":7},{""cat"":20,""src"":14,""loc"":4}]","9","8,20,11,8,20,11,11,20,8,8,0,16,10,14,1,4,4,9,0,1,2,3,4,5,6,7,8,1,0,2,5,8,4,3,7,6",NA
"4874","sort_feedback","32","html-keyboard-response","83","812691","0.0-4.0-40.0","1","2020-1-6 11:45:1","ELEPHANT",NA,NA,NA,NA,NA,NA,NA,NA,NA,NA,NA,NA,NA,NA
"19915","setup1",NA,"animation","84","832607","0.0-4.0-41.0","1","2020-1-6 11:45:1","ELEPHANT",NA,NA,"[{""cat"":9,""src"":13,""loc"":8},{""cat"":9,""src"":8,""loc"":7},{""cat"":9,""src"":9,""loc"":6},{""cat"":2,""src"":3,""loc"":0},{""cat"":2,""src"":1,""loc"":1},{""cat"":2,""src"":10,""loc"":2},{""cat"":17,""src"":11,""loc"":5},{""cat"":17,""src"":17,""loc"":4},{""cat"":17,""src"":12,""loc"":3}]","1","1102,1101,1102,1101,1102,1101,1102,1101,1102,10001",NA,NA,NA,NA,NA,NA,NA,NA,NA
"3531","flanker_instructions","13","html-keyboard-response","85","836139","0.0-4.0-42.0","1","2020-1-6 11:45:1","ELEPHANT",NA,NA,NA,NA,NA,NA,NA,NA,NA,NA,NA,NA,NA,NA
NA,"flanker_test",NA,"image-keyboard-response","86","838042","0.0-4.0-43.0-0.0","1","2020-1-6 11:45:1","ELEPHANT",NA,NA,NA,NA,NA,"incongruent","left","FALSE",NA,NA,NA,NA,NA,NA
"594","flanker_test","37","image-keyboard-response","87","839643","0.0-4.0-43.0-0.1","1","2020-1-6 11:45:1","ELEPHANT",NA,NA,NA,NA,NA,"congruent","left","TRUE",NA,NA,NA,NA,NA,NA
"535","flanker_test","39","image-keyboard-response","88","840579","0.0-4.0-43.0-0.2","1","2020-1-6 11:45:1","ELEPHANT",NA,NA,NA,NA,NA,"incongruent","right","TRUE",NA,NA,NA,NA,NA,NA
"314","flanker_test","39","image-keyboard-response","89","841347","0.0-4.0-43.0-0.3","1","2020-1-6 11:45:1","ELEPHANT",NA,NA,NA,NA,NA,"congruent","right","TRUE",NA,NA,NA,NA,NA,NA
"52032","sort_trial",NA,"free-sort","90","894061","0.0-4.0-44.0","1","2020-1-6 11:45:1","ELEPHANT",NA,NA,NA,NA,NA,NA,NA,NA,"[{""cat"":9,""src"":13,""x"":50,""y"":253},{""cat"":9,""src"":8,""x"":53,""y"":378},{""cat"":9,""src"":9,""x"":73,""y"":428},{""cat"":2,""src"":3,""x"":64,""y"":135},{""cat"":2,""src"":1,""x"":47,""y"":203},{""cat"":2,""src"":10,""x"":27,""y"":13},{""cat"":17,""src"":11,""x"":70,""y"":86},{""cat"":17,""src"":17,""x"":57,""y"":505},{""cat"":17,""src"":12,""x"":18,""y"":318}]","[{""cat"":""2"",""src"":""1"",""x"":0,""y"":0},{""cat"":""2"",""src"":""10"",""x"":0,""y"":0},{""cat"":""9"",""src"":""9"",""x"":434,""y"":297},{""cat"":""9"",""src"":""8"",""x"":0,""y"":0},{""cat"":""9"",""src"":""9"",""x"":457,""y"":304},{""cat"":""9"",""src"":""9"",""x"":0,""y"":0},{""cat"":""9"",""src"":""13"",""x"":0,""y"":0},{""cat"":""17"",""src"":""17"",""x"":733,""y"":298},{""cat"":""17"",""src"":""17"",""x"":0,""y"":0},{""cat"":""17"",""src"":""11"",""x"":0,""y"":0},{""cat"":""2"",""src"":""3"",""x"":0,""y"":0},{""cat"":""17"",""src"":""12"",""x"":0,""y"":0}]","[{""cat"":2,""src"":1,""loc"":1},{""cat"":2,""src"":10,""loc"":2},{""cat"":9,""src"":8,""loc"":7},{""cat"":9,""src"":9,""loc"":6},{""cat"":9,""src"":13,""loc"":8},{""cat"":17,""src"":17,""loc"":3},{""cat"":17,""src"":11,""loc"":5},{""cat"":2,""src"":3,""loc"":0},{""cat"":17,""src"":12,""loc"":4}]","7","2,2,2,17,17,17,9,9,9,3,1,10,17,12,11,9,8,13,0,1,2,3,4,5,6,7,8,7,0,1,5,8,6,3,2,4",NA
"2277","sort_feedback","32","html-keyboard-response","91","896339","0.0-4.0-45.0","1","2020-1-6 11:45:1","ELEPHANT",NA,NA,NA,NA,NA,NA,NA,NA,NA,NA,NA,NA,NA,NA
"19912","setup3",NA,"animation","92","916252","0.0-4.0-46.0","1","2020-1-6 11:45:1","ELEPHANT",NA,NA,"[{""cat"":1,""src"":18,""loc"":8},{""cat"":26,""src"":19,""loc"":3},{""cat"":18,""src"":11,""loc"":1},{""cat"":1,""src"":17,""loc"":7},{""cat"":18,""src"":10,""loc"":0},{""cat"":26,""src"":18,""loc"":5},{""cat"":26,""src"":16,""loc"":4},{""cat"":18,""src"":13,""loc"":2},{""cat"":1,""src"":10,""loc"":6}]","3","1101,1101,1101,1102,1101,1102,1101,1101,1100,10002",NA,NA,NA,NA,NA,NA,NA,NA,NA
"3574","flanker_instructions","13","html-keyboard-response","93","919828","0.0-4.0-47.0","1","2020-1-6 11:45:1","ELEPHANT",NA,NA,NA,NA,NA,NA,NA,NA,NA,NA,NA,NA,NA,NA
"781","flanker_test","37","image-keyboard-response","94","921611","0.0-4.0-48.0-0.0","1","2020-1-6 11:45:1","ELEPHANT",NA,NA,NA,NA,NA,"congruent","left","TRUE",NA,NA,NA,NA,NA,NA
"666","flanker_test","37","image-keyboard-response","95","923315","0.0-4.0-48.0-0.1","1","2020-1-6 11:45:1","ELEPHANT",NA,NA,NA,NA,NA,"incongruent","left","TRUE",NA,NA,NA,NA,NA,NA
"504","flanker_test","39","image-keyboard-response","96","924362","0.0-4.0-48.0-0.2","1","2020-1-6 11:45:1","ELEPHANT",NA,NA,NA,NA,NA,"incongruent","right","TRUE",NA,NA,NA,NA,NA,NA
"465","flanker_test","39","image-keyboard-response","97","925763","0.0-4.0-48.0-0.3","1","2020-1-6 11:45:1","ELEPHANT",NA,NA,NA,NA,NA,"congruent","right","TRUE",NA,NA,NA,NA,NA,NA
"35145","sort_trial",NA,"free-sort","98","961215","0.0-4.0-49.0","1","2020-1-6 11:45:1","ELEPHANT",NA,NA,NA,NA,NA,NA,NA,NA,"[{""cat"":1,""src"":18,""x"":37,""y"":265},{""cat"":26,""src"":19,""x"":22,""y"":206},{""cat"":18,""src"":11,""x"":75,""y"":501},{""cat"":1,""src"":17,""x"":1,""y"":63},{""cat"":18,""src"":10,""x"":48,""y"":380},{""cat"":26,""src"":18,""x"":72,""y"":123},{""cat"":26,""src"":16,""x"":74,""y"":313},{""cat"":18,""src"":13,""x"":75,""y"":428},{""cat"":1,""src"":10,""x"":46,""y"":4}]","[{""cat"":""18"",""src"":""11"",""x"":0,""y"":0},{""cat"":""18"",""src"":""13"",""x"":0,""y"":0},{""cat"":""18"",""src"":""10"",""x"":48,""y"":380},{""cat"":""18"",""src"":""10"",""x"":0,""y"":0},{""cat"":""1"",""src"":""10"",""x"":0,""y"":0},{""cat"":""1"",""src"":""17"",""x"":0,""y"":0},{""cat"":""1"",""src"":""18"",""x"":0,""y"":0},{""cat"":""26"",""src"":""16"",""x"":0,""y"":0},{""cat"":""26"",""src"":""18"",""x"":0,""y"":0},{""cat"":""26"",""src"":""19"",""x"":0,""y"":0}]","[{""cat"":18,""src"":11,""loc"":1},{""cat"":18,""src"":13,""loc"":2},{""cat"":18,""src"":10,""loc"":0},{""cat"":1,""src"":10,""loc"":6},{""cat"":1,""src"":17,""loc"":7},{""cat"":1,""src"":18,""loc"":8},{""cat"":26,""src"":16,""loc"":3},{""cat"":26,""src"":18,""loc"":5},{""cat"":26,""src"":19,""loc"":4}]","7","18,18,18,26,26,26,1,1,1,10,11,13,16,19,18,10,17,18,0,1,2,3,4,5,6,7,8,2,0,1,6,8,7,3,4,5",NA
"2387","sort_feedback","32","html-keyboard-response","99","963603","0.0-4.0-50.0","1","2020-1-6 11:45:1","ELEPHANT",NA,NA,NA,NA,NA,NA,NA,NA,NA,NA,NA,NA,NA,NA
"19914","setup4",NA,"animation","100","983517","0.0-4.0-51.0","1","2020-1-6 11:45:1","ELEPHANT",NA,NA,"[{""cat"":16,""src"":5,""loc"":3},{""cat"":16,""src"":4,""loc"":0},{""cat"":16,""src"":13,""loc"":8},{""cat"":17,""src"":7,""loc"":6},{""cat"":17,""src"":12,""loc"":2},{""cat"":17,""src"":15,""loc"":5},{""cat"":19,""src"":3,""loc"":7},{""cat"":19,""src"":13,""loc"":4},{""cat"":19,""src"":0,""loc"":1}]","4","1102,1101,1102,1101,1100,1102,1101,1101,1102,10002",NA,NA,NA,NA,NA,NA,NA,NA,NA
"2542","flanker_instructions","13","html-keyboard-response","101","986060","0.0-4.0-52.0","1","2020-1-6 11:45:1","ELEPHANT",NA,NA,NA,NA,NA,NA,NA,NA,NA,NA,NA,NA,NA,NA
"734","flanker_test","37","image-keyboard-response","102","987796","0.0-4.0-53.0-0.0","1","2020-1-6 11:45:1","ELEPHANT",NA,NA,NA,NA,NA,"incongruent","left","TRUE",NA,NA,NA,NA,NA,NA
"508","flanker_test","37","image-keyboard-response","103","988907","0.0-4.0-53.0-0.1","1","2020-1-6 11:45:1","ELEPHANT",NA,NA,NA,NA,NA,"congruent","left","TRUE",NA,NA,NA,NA,NA,NA
"651","flanker_test","39","image-keyboard-response","104","990740","0.0-4.0-53.0-0.2","1","2020-1-6 11:45:1","ELEPHANT",NA,NA,NA,NA,NA,"incongruent","right","TRUE",NA,NA,NA,NA,NA,NA
"639","flanker_test","39","image-keyboard-response","105","992100","0.0-4.0-53.0-0.3","1","2020-1-6 11:45:1","ELEPHANT",NA,NA,NA,NA,NA,"congruent","right","TRUE",NA,NA,NA,NA,NA,NA
"32421","sort_trial",NA,"free-sort","106","1025456","0.0-4.0-54.0","1","2020-1-6 11:45:1","ELEPHANT",NA,NA,NA,NA,NA,NA,NA,NA,"[{""cat"":16,""src"":5,""x"":53,""y"":498},{""cat"":16,""src"":4,""x"":39,""y"":447},{""cat"":16,""src"":13,""x"":65,""y"":12},{""cat"":17,""src"":7,""x"":61,""y"":63},{""cat"":17,""src"":12,""x"":4,""y"":255},{""cat"":17,""src"":15,""x"":53,""y"":130},{""cat"":19,""src"":3,""x"":23,""y"":312},{""cat"":19,""src"":13,""x"":44,""y"":197},{""cat"":19,""src"":0,""x"":68,""y"":366}]","[{""cat"":""16"",""src"":""4"",""x"":0,""y"":0},{""cat"":""17"",""src"":""12"",""x"":0,""y"":0},{""cat"":""19"",""src"":""0"",""x"":0,""y"":0},{""cat"":""17"",""src"":""7"",""x"":0,""y"":0},{""cat"":""19"",""src"":""3"",""x"":0,""y"":0},{""cat"":""17"",""src"":""15"",""x"":0,""y"":0},{""cat"":""16"",""src"":""13"",""x"":0,""y"":0},{""cat"":""19"",""src"":""13"",""x"":0,""y"":0},{""cat"":""16"",""src"":""5"",""x"":0,""y"":0}]","[{""cat"":16,""src"":4,""loc"":0},{""cat"":17,""src"":12,""loc"":2},{""cat"":19,""src"":0,""loc"":1},{""cat"":17,""src"":7,""loc"":6},{""cat"":19,""src"":3,""loc"":7},{""cat"":17,""src"":15,""loc"":3},{""cat"":16,""src"":13,""loc"":8},{""cat"":19,""src"":13,""loc"":4},{""cat"":16,""src"":5,""loc"":5}]","7","16,19,17,17,19,16,17,19,16,4,0,12,15,13,5,7,3,13,0,1,2,3,4,5,6,7,8,0,2,1,5,7,8,3,4,6",NA
"2850","sort_feedback","32","html-keyboard-response","107","1028308","0.0-4.0-55.0","1","2020-1-6 11:45:1","ELEPHANT",NA,NA,NA,NA,NA,NA,NA,NA,NA,NA,NA,NA,NA,NA
"19914","setup1",NA,"animation","108","1048222","0.0-4.0-56.0","1","2020-1-6 11:45:1","ELEPHANT",NA,NA,"[{""cat"":25,""src"":5,""loc"":2},{""cat"":25,""src"":13,""loc"":1},{""cat"":25,""src"":18,""loc"":0},{""cat"":28,""src"":16,""loc"":5},{""cat"":28,""src"":7,""loc"":3},{""cat"":28,""src"":9,""loc"":4},{""cat"":13,""src"":2,""loc"":8},{""cat"":13,""src"":7,""loc"":6},{""cat"":13,""src"":18,""loc"":7}]","1","1101,1101,1102,1101,1102,1102,1101,1101,1102,10001",NA,NA,NA,NA,NA,NA,NA,NA,NA
"2246","flanker_instructions","16","html-keyboard-response","109","1050468","0.0-4.0-57.0","1","2020-1-6 11:45:1","ELEPHANT",NA,NA,NA,NA,NA,NA,NA,NA,NA,NA,NA,NA,NA,NA
"751","flanker_test","37","image-keyboard-response","110","1052220","0.0-4.0-58.0-0.0","1","2020-1-6 11:45:1","ELEPHANT",NA,NA,NA,NA,NA,"incongruent","left","TRUE",NA,NA,NA,NA,NA,NA
"385","flanker_test","37","image-keyboard-response","111","1052932","0.0-4.0-58.0-0.1","1","2020-1-6 11:45:1","ELEPHANT",NA,NA,NA,NA,NA,"congruent","left","TRUE",NA,NA,NA,NA,NA,NA
"522","flanker_test","39","image-keyboard-response","112","1053988","0.0-4.0-58.0-0.2","1","2020-1-6 11:45:1","ELEPHANT",NA,NA,NA,NA,NA,"congruent","right","TRUE",NA,NA,NA,NA,NA,NA
"755","flanker_test","39","image-keyboard-response","113","1055572","0.0-4.0-58.0-0.3","1","2020-1-6 11:45:1","ELEPHANT",NA,NA,NA,NA,NA,"incongruent","right","TRUE",NA,NA,NA,NA,NA,NA
"28774","sort_trial",NA,"free-sort","114","1085538","0.0-4.0-59.0","1","2020-1-6 11:45:1","ELEPHANT",NA,NA,NA,NA,NA,NA,NA,NA,"[{""cat"":25,""src"":5,""x"":19,""y"":366},{""cat"":25,""src"":13,""x"":22,""y"":492},{""cat"":25,""src"":18,""x"":52,""y"":3},{""cat"":28,""src"":16,""x"":14,""y"":73},{""cat"":28,""src"":7,""x"":36,""y"":187},{""cat"":28,""src"":9,""x"":34,""y"":142},{""cat"":13,""src"":2,""x"":78,""y"":301},{""cat"":13,""src"":7,""x"":31,""y"":424},{""cat"":13,""src"":18,""x"":36,""y"":263}]","[{""cat"":""25"",""src"":""13"",""x"":0,""y"":0},{""cat"":""25"",""src"":""18"",""x"":0,""y"":0},{""cat"":""25"",""src"":""5"",""x"":0,""y"":0},{""cat"":""13"",""src"":""2"",""x"":0,""y"":0},{""cat"":""13"",""src"":""7"",""x"":0,""y"":0},{""cat"":""13"",""src"":""18"",""x"":0,""y"":0},{""cat"":""28"",""src"":""7"",""x"":0,""y"":0},{""cat"":""28"",""src"":""16"",""x"":0,""y"":0},{""cat"":""28"",""src"":""9"",""x"":0,""y"":0}]","[{""cat"":25,""src"":13,""loc"":1},{""cat"":25,""src"":18,""loc"":0},{""cat"":25,""src"":5,""loc"":2},{""cat"":13,""src"":2,""loc"":8},{""cat"":13,""src"":7,""loc"":6},{""cat"":13,""src"":18,""loc"":7},{""cat"":28,""src"":7,""loc"":3},{""cat"":28,""src"":16,""loc"":5},{""cat"":28,""src"":9,""loc"":4}]","9","25,25,25,28,28,28,13,13,13,18,13,5,7,9,16,7,18,2,0,1,2,3,4,5,6,7,8,1,0,2,6,8,7,4,5,3",NA
"1984","sort_feedback","32","html-keyboard-response","115","1087523","0.0-4.0-60.0","1","2020-1-6 11:45:1","ELEPHANT",NA,NA,NA,NA,NA,NA,NA,NA,NA,NA,NA,NA,NA,NA
"19915","setup5",NA,"animation","116","1107440","0.0-4.0-61.0","1","2020-1-6 11:45:1","ELEPHANT",NA,NA,"[{""cat"":10,""src"":0,""loc"":3},{""cat"":6,""src"":2,""loc"":1},{""cat"":5,""src"":18,""loc"":6},{""cat"":6,""src"":10,""loc"":7},{""cat"":5,""src"":16,""loc"":4},{""cat"":10,""src"":2,""loc"":0},{""cat"":5,""src"":3,""loc"":2},{""cat"":10,""src"":1,""loc"":8},{""cat"":6,""src"":8,""loc"":5}]","5","1101,1102,1101,1103,1101,1102,1102,1101,1101,10001",NA,NA,NA,NA,NA,NA,NA,NA,NA
"3532","flanker_instructions","13","html-keyboard-response","117","1110972","0.0-4.0-62.0","1","2020-1-6 11:45:1","ELEPHANT",NA,NA,NA,NA,NA,NA,NA,NA,NA,NA,NA,NA,NA,NA
"756","flanker_test","37","image-keyboard-response","118","1112732","0.0-4.0-63.0-0.0","1","2020-1-6 11:45:1","ELEPHANT",NA,NA,NA,NA,NA,"congruent","left","TRUE",NA,NA,NA,NA,NA,NA
"643","flanker_test","37","image-keyboard-response","119","1114500","0.0-4.0-63.0-0.1","1","2020-1-6 11:45:1","ELEPHANT",NA,NA,NA,NA,NA,"incongruent","left","TRUE",NA,NA,NA,NA,NA,NA
"646","flanker_test","39","image-keyboard-response","120","1115819","0.0-4.0-63.0-0.2","1","2020-1-6 11:45:1","ELEPHANT",NA,NA,NA,NA,NA,"incongruent","right","TRUE",NA,NA,NA,NA,NA,NA
"494","flanker_test","39","image-keyboard-response","121","1117300","0.0-4.0-63.0-0.3","1","2020-1-6 11:45:1","ELEPHANT",NA,NA,NA,NA,NA,"congruent","right","TRUE",NA,NA,NA,NA,NA,NA
"41590","sort_trial",NA,"free-sort","122","1159668","0.0-4.0-64.0","1","2020-1-6 11:45:1","ELEPHANT",NA,NA,NA,NA,NA,NA,NA,NA,"[{""cat"":10,""src"":0,""x"":32,""y"":77},{""cat"":6,""src"":2,""x"":69,""y"":251},{""cat"":5,""src"":18,""x"":12,""y"":122},{""cat"":6,""src"":10,""x"":47,""y"":379},{""cat"":5,""src"":16,""x"":48,""y"":191},{""cat"":10,""src"":2,""x"":36,""y"":316},{""cat"":5,""src"":3,""x"":73,""y"":448},{""cat"":10,""src"":1,""x"":63,""y"":16},{""cat"":6,""src"":8,""x"":16,""y"":479}]","[{""cat"":""6"",""src"":""2"",""x"":460,""y"":79},{""cat"":""6"",""src"":""2"",""x"":0,""y"":0},{""cat"":""10"",""src"":""2"",""x"":0,""y"":0},{""cat"":""5"",""src"":""3"",""x"":0,""y"":0},{""cat"":""10"",""src"":""1"",""x"":0,""y"":0},{""cat"":""5"",""src"":""18"",""x"":0,""y"":0},{""cat"":""10"",""src"":""0"",""x"":0,""y"":0},{""cat"":""6"",""src"":""10"",""x"":47,""y"":379},{""cat"":""6"",""src"":""8"",""x"":0,""y"":0},{""cat"":""5"",""src"":""16"",""x"":0,""y"":0},{""cat"":""6"",""src"":""10"",""x"":0,""y"":0}]","[{""cat"":6,""src"":2,""loc"":1},{""cat"":10,""src"":2,""loc"":2},{""cat"":5,""src"":3,""loc"":0},{""cat"":10,""src"":1,""loc"":8},{""cat"":5,""src"":18,""loc"":6},{""cat"":10,""src"":0,""loc"":7},{""cat"":6,""src"":8,""loc"":5},{""cat"":5,""src"":16,""loc"":4},{""cat"":6,""src"":10,""loc"":3}]","5","5,6,10,6,5,6,5,10,10,3,2,2,10,16,8,18,0,1,0,1,2,3,4,5,6,7,8,2,0,1,8,7,6,4,5,3",NA
"2239","sort_feedback","32","html-keyboard-response","123","1161908","0.0-4.0-65.0","1","2020-1-6 11:45:1","ELEPHANT",NA,NA,NA,NA,NA,NA,NA,NA,NA,NA,NA,NA,NA,NA
"19912","setup3",NA,"animation","124","1181822","0.0-4.0-66.0","1","2020-1-6 11:45:1","ELEPHANT",NA,NA,"[{""cat"":22,""src"":6,""loc"":3},{""cat"":29,""src"":0,""loc"":7},{""cat"":15,""src"":3,""loc"":2},{""cat"":15,""src"":12,""loc"":1},{""cat"":29,""src"":15,""loc"":6},{""cat"":22,""src"":8,""loc"":4},{""cat"":22,""src"":18,""loc"":5},{""cat"":29,""src"":4,""loc"":8},{""cat"":15,""src"":19,""loc"":0}]","3","1101,1101,1102,1102,1101,1100,1102,1102,1100,10001",NA,NA,NA,NA,NA,NA,NA,NA,NA
"3950","flanker_instructions","13","html-keyboard-response","125","1185772","0.0-4.0-67.0","1","2020-1-6 11:45:1","ELEPHANT",NA,NA,NA,NA,NA,NA,NA,NA,NA,NA,NA,NA,NA,NA
"637","flanker_test","39","image-keyboard-response","126","1187412","0.0-4.0-68.0-0.0","1","2020-1-6 11:45:1","ELEPHANT",NA,NA,NA,NA,NA,"congruent","right","TRUE",NA,NA,NA,NA,NA,NA
"494","flanker_test","37","image-keyboard-response","127","1188724","0.0-4.0-68.0-0.1","1","2020-1-6 11:45:1","ELEPHANT",NA,NA,NA,NA,NA,"congruent","left","TRUE",NA,NA,NA,NA,NA,NA
"431","flanker_test","37","image-keyboard-response","128","1189972","0.0-4.0-68.0-0.2","1","2020-1-6 11:45:1","ELEPHANT",NA,NA,NA,NA,NA,"incongruent","left","TRUE",NA,NA,NA,NA,NA,NA
"800","flanker_test","39","image-keyboard-response","129","1191899","0.0-4.0-68.0-0.3","1","2020-1-6 11:45:1","ELEPHANT",NA,NA,NA,NA,NA,"incongruent","right","TRUE",NA,NA,NA,NA,NA,NA
"32699","sort_trial",NA,"free-sort","130","1225238","0.0-4.0-69.0","1","2020-1-6 11:45:1","ELEPHANT",NA,NA,NA,NA,NA,NA,NA,NA,"[{""cat"":22,""src"":6,""x"":62,""y"":494},{""cat"":29,""src"":0,""x"":41,""y"":318},{""cat"":15,""src"":3,""x"":54,""y"":77},{""cat"":15,""src"":12,""x"":78,""y"":1},{""cat"":29,""src"":15,""x"":56,""y"":250},{""cat"":22,""src"":8,""x"":61,""y"":421},{""cat"":22,""src"":18,""x"":50,""y"":124},{""cat"":29,""src"":4,""x"":60,""y"":362},{""cat"":15,""src"":19,""x"":50,""y"":198}]","[{""cat"":""15"",""src"":""12"",""x"":0,""y"":0},{""cat"":""15"",""src"":""19"",""x"":0,""y"":0},{""cat"":""15"",""src"":""3"",""x"":0,""y"":0},{""cat"":""29"",""src"":""15"",""x"":0,""y"":0},{""cat"":""29"",""src"":""0"",""x"":0,""y"":0},{""cat"":""29"",""src"":""4"",""x"":0,""y"":0},{""cat"":""22"",""src"":""18"",""x"":0,""y"":0},{""cat"":""22"",""src"":""8"",""x"":843,""y"":215},{""cat"":""22"",""src"":""8"",""x"":0,""y"":0},{""cat"":""22"",""src"":""6"",""x"":0,""y"":0}]","[{""cat"":15,""src"":12,""loc"":1},{""cat"":15,""src"":19,""loc"":0},{""cat"":15,""src"":3,""loc"":2},{""cat"":29,""src"":15,""loc"":7},{""cat"":29,""src"":0,""loc"":6},{""cat"":29,""src"":4,""loc"":8},{""cat"":22,""src"":18,""loc"":5},{""cat"":22,""src"":8,""loc"":4},{""cat"":22,""src"":6,""loc"":3}]","7","15,15,15,22,22,22,29,29,29,19,12,3,6,8,18,0,15,4,0,1,2,3,4,5,6,7,8,1,0,2,8,7,6,4,3,5",NA
"1972","sort_feedback","32","html-keyboard-response","131","1227212","0.0-4.0-70.0","1","2020-1-6 11:45:1","ELEPHANT",NA,NA,NA,NA,NA,NA,NA,NA,NA,NA,NA,NA,NA,NA
"19914","setup2",NA,"animation","132","1247126","0.0-4.0-71.0","1","2020-1-6 11:45:1","ELEPHANT",NA,NA,"[{""cat"":14,""src"":16,""loc"":4},{""cat"":25,""src"":2,""loc"":3},{""cat"":15,""src"":11,""loc"":5},{""cat"":14,""src"":12,""loc"":7},{""cat"":15,""src"":8,""loc"":8},{""cat"":25,""src"":17,""loc"":6},{""cat"":15,""src"":2,""loc"":1},{""cat"":25,""src"":19,""loc"":2},{""cat"":14,""src"":10,""loc"":0}]","2","1102,1102,1101,1102,1101,1102,1101,1101,1101,10001",NA,NA,NA,NA,NA,NA,NA,NA,NA
"2852","flanker_instructions","13","html-keyboard-response","133","1249979","0.0-4.0-72.0","1","2020-1-6 11:45:1","ELEPHANT",NA,NA,NA,NA,NA,NA,NA,NA,NA,NA,NA,NA,NA,NA
"709","flanker_test","37","image-keyboard-response","134","1251691","0.0-4.0-73.0-0.0","1","2020-1-6 11:45:1","ELEPHANT",NA,NA,NA,NA,NA,"incongruent","left","TRUE",NA,NA,NA,NA,NA,NA
"419","flanker_test","37","image-keyboard-response","135","1252451","0.0-4.0-73.0-0.1","1","2020-1-6 11:45:1","ELEPHANT",NA,NA,NA,NA,NA,"congruent","left","TRUE",NA,NA,NA,NA,NA,NA
"724","flanker_test","39","image-keyboard-response","136","1254356","0.0-4.0-73.0-0.2","1","2020-1-6 11:45:1","ELEPHANT",NA,NA,NA,NA,NA,"incongruent","right","TRUE",NA,NA,NA,NA,NA,NA
"415","flanker_test","39","image-keyboard-response","137","1255884","0.0-4.0-73.0-0.3","1","2020-1-6 11:45:1","ELEPHANT",NA,NA,NA,NA,NA,"congruent","right","TRUE",NA,NA,NA,NA,NA,NA
"35827","sort_trial",NA,"free-sort","138","1292484","0.0-4.0-74.0","1","2020-1-6 11:45:1","ELEPHANT",NA,NA,NA,NA,NA,NA,NA,NA,"[{""cat"":14,""src"":16,""x"":51,""y"":139},{""cat"":25,""src"":2,""x"":40,""y"":387},{""cat"":15,""src"":11,""x"":64,""y"":208},{""cat"":14,""src"":12,""x"":59,""y"":6},{""cat"":15,""src"":8,""x"":15,""y"":494},{""cat"":25,""src"":17,""x"":43,""y"":428},{""cat"":15,""src"":2,""x"":12,""y"":254},{""cat"":25,""src"":19,""x"":72,""y"":313},{""cat"":14,""src"":10,""x"":53,""y"":75}]","[{""cat"":""15"",""src"":""11"",""x"":0,""y"":0},{""cat"":""15"",""src"":""2"",""x"":0,""y"":0},{""cat"":""14"",""src"":""10"",""x"":0,""y"":0},{""cat"":""25"",""src"":""17"",""x"":0,""y"":0},{""cat"":""15"",""src"":""8"",""x"":0,""y"":0},{""cat"":""14"",""src"":""12"",""x"":0,""y"":0},{""cat"":""14"",""src"":""16"",""x"":0,""y"":0},{""cat"":""25"",""src"":""19"",""x"":0,""y"":0},{""cat"":""25"",""src"":""2"",""x"":0,""y"":0}]","[{""cat"":15,""src"":11,""loc"":0},{""cat"":15,""src"":2,""loc"":1},{""cat"":14,""src"":10,""loc"":2},{""cat"":25,""src"":17,""loc"":6},{""cat"":15,""src"":8,""loc"":8},{""cat"":14,""src"":12,""loc"":7},{""cat"":14,""src"":16,""loc"":3},{""cat"":25,""src"":19,""loc"":5},{""cat"":25,""src"":2,""loc"":4}]","4","15,15,14,14,25,25,25,14,15,11,2,10,16,2,19,17,12,8,0,1,2,3,4,5,6,7,8,0,1,2,6,8,7,3,5,4",NA
"2367","sort_feedback","32","html-keyboard-response","139","1294852","0.0-4.0-75.0","1","2020-1-6 11:45:1","ELEPHANT",NA,NA,NA,NA,NA,NA,NA,NA,NA,NA,NA,NA,NA,NA
"19914","setup4",NA,"animation","140","1314766","0.0-4.0-76.0","1","2020-1-6 11:45:1","ELEPHANT",NA,NA,"[{""cat"":7,""src"":15,""loc"":3},{""cat"":7,""src"":8,""loc"":8},{""cat"":7,""src"":0,""loc"":2},{""cat"":17,""src"":5,""loc"":0},{""cat"":17,""src"":16,""loc"":7},{""cat"":17,""src"":15,""loc"":4},{""cat"":24,""src"":9,""loc"":1},{""cat"":24,""src"":17,""loc"":5},{""cat"":24,""src"":18,""loc"":6}]","4","1102,1100,1102,1101,1101,1102,1102,1102,1100,10002",NA,NA,NA,NA,NA,NA,NA,NA,NA
"3469","flanker_instructions","13","html-keyboard-response","141","1318236","0.0-4.0-77.0","1","2020-1-6 11:45:1","ELEPHANT",NA,NA,NA,NA,NA,NA,NA,NA,NA,NA,NA,NA,NA,NA
"582","flanker_test","37","image-keyboard-response","142","1319820","0.0-4.0-78.0-0.0","1","2020-1-6 11:45:1","ELEPHANT",NA,NA,NA,NA,NA,"congruent","left","TRUE",NA,NA,NA,NA,NA,NA
"559","flanker_test","37","image-keyboard-response","143","1321412","0.0-4.0-78.0-0.1","1","2020-1-6 11:45:1","ELEPHANT",NA,NA,NA,NA,NA,"incongruent","left","TRUE",NA,NA,NA,NA,NA,NA
"554","flanker_test","39","image-keyboard-response","144","1322572","0.0-4.0-78.0-0.2","1","2020-1-6 11:45:1","ELEPHANT",NA,NA,NA,NA,NA,"congruent","right","TRUE",NA,NA,NA,NA,NA,NA
"571","flanker_test","39","image-keyboard-response","145","1324044","0.0-4.0-78.0-0.3","1","2020-1-6 11:45:1","ELEPHANT",NA,NA,NA,NA,NA,"incongruent","right","TRUE",NA,NA,NA,NA,NA,NA
"35080","sort_trial",NA,"free-sort","146","1359882","0.0-4.0-79.0","1","2020-1-6 11:45:1","ELEPHANT",NA,NA,NA,NA,NA,NA,NA,NA,"[{""cat"":7,""src"":15,""x"":70,""y"":440},{""cat"":7,""src"":8,""x"":19,""y"":21},{""cat"":7,""src"":0,""x"":62,""y"":488},{""cat"":17,""src"":5,""x"":0,""y"":82},{""cat"":17,""src"":16,""x"":53,""y"":141},{""cat"":17,""src"":15,""x"":18,""y"":202},{""cat"":24,""src"":9,""x"":33,""y"":385},{""cat"":24,""src"":17,""x"":21,""y"":304},{""cat"":24,""src"":18,""x"":6,""y"":259}]","[{""cat"":""17"",""src"":""5"",""x"":0,""y"":0},{""cat"":""17"",""src"":""15"",""x"":0,""y"":0},{""cat"":""7"",""src"":""0"",""x"":0,""y"":0},{""cat"":""24"",""src"":""18"",""x"":0,""y"":0},{""cat"":""7"",""src"":""8"",""x"":0,""y"":0},{""cat"":""17"",""src"":""16"",""x"":0,""y"":0},{""cat"":""24"",""src"":""17"",""x"":0,""y"":0},{""cat"":""7"",""src"":""15"",""x"":0,""y"":0},{""cat"":""24"",""src"":""9"",""x"":0,""y"":0}]","[{""cat"":17,""src"":5,""loc"":0},{""cat"":17,""src"":15,""loc"":1},{""cat"":7,""src"":0,""loc"":2},{""cat"":24,""src"":18,""loc"":6},{""cat"":7,""src"":8,""loc"":8},{""cat"":17,""src"":16,""loc"":7},{""cat"":24,""src"":17,""loc"":5},{""cat"":7,""src"":15,""loc"":3},{""cat"":24,""src"":9,""loc"":4}]","7","17,17,7,7,24,24,24,17,7,5,15,0,15,9,17,18,16,8,0,1,2,3,4,5,6,7,8,0,1,2,7,8,6,3,5,4",NA
"3801","sort_feedback","32","html-keyboard-response","147","1363684","0.0-4.0-80.0","1","2020-1-6 11:45:1","ELEPHANT",NA,NA,NA,NA,NA,NA,NA,NA,NA,NA,NA,NA,NA,NA
"19911","setup2",NA,"animation","148","1383596","0.0-4.0-81.0","1","2020-1-6 11:45:1","ELEPHANT",NA,NA,"[{""cat"":6,""src"":18,""loc"":7},{""cat"":19,""src"":14,""loc"":8},{""cat"":20,""src"":4,""loc"":6},{""cat"":20,""src"":6,""loc"":5},{""cat"":6,""src"":16,""loc"":3},{""cat"":19,""src"":17,""loc"":4},{""cat"":19,""src"":1,""loc"":1},{""cat"":6,""src"":3,""loc"":0},{""cat"":20,""src"":16,""loc"":2}]","2","1101,1101,1101,1101,1100,1102,1101,1101,1102,10001",NA,NA,NA,NA,NA,NA,NA,NA,NA
"1760","flanker_instructions","13","html-keyboard-response","149","1385356","0.0-4.0-82.0","1","2020-1-6 11:45:1","ELEPHANT",NA,NA,NA,NA,NA,NA,NA,NA,NA,NA,NA,NA,NA,NA
"622","flanker_test","37","image-keyboard-response","150","1386980","0.0-4.0-83.0-0.0","1","2020-1-6 11:45:1","ELEPHANT",NA,NA,NA,NA,NA,"congruent","left","TRUE",NA,NA,NA,NA,NA,NA
"586","flanker_test","39","image-keyboard-response","151","1387892","0.0-4.0-83.0-0.1","1","2020-1-6 11:45:1","ELEPHANT",NA,NA,NA,NA,NA,"incongruent","right","TRUE",NA,NA,NA,NA,NA,NA
"414","flanker_test","39","image-keyboard-response","152","1389452","0.0-4.0-83.0-0.2","1","2020-1-6 11:45:1","ELEPHANT",NA,NA,NA,NA,NA,"congruent","right","TRUE",NA,NA,NA,NA,NA,NA
"578","flanker_test","37","image-keyboard-response","153","1390980","0.0-4.0-83.0-0.3","1","2020-1-6 11:45:1","ELEPHANT",NA,NA,NA,NA,NA,"incongruent","left","TRUE",NA,NA,NA,NA,NA,NA
"30475","sort_trial",NA,"free-sort","154","1422418","0.0-4.0-84.0","1","2020-1-6 11:45:1","ELEPHANT",NA,NA,NA,NA,NA,NA,NA,NA,"[{""cat"":6,""src"":18,""x"":2,""y"":383},{""cat"":19,""src"":14,""x"":40,""y"":428},{""cat"":20,""src"":4,""x"":42,""y"":311},{""cat"":20,""src"":6,""x"":1,""y"":147},{""cat"":6,""src"":16,""x"":47,""y"":27},{""cat"":19,""src"":17,""x"":49,""y"":81},{""cat"":19,""src"":1,""x"":57,""y"":486},{""cat"":6,""src"":3,""x"":46,""y"":189},{""cat"":20,""src"":16,""x"":62,""y"":263}]","[{""cat"":""19"",""src"":""1"",""x"":0,""y"":0},{""cat"":""20"",""src"":""16"",""x"":0,""y"":0},{""cat"":""6"",""src"":""3"",""x"":0,""y"":0},{""cat"":""20"",""src"":""4"",""x"":0,""y"":0},{""cat"":""19"",""src"":""14"",""x"":0,""y"":0},{""cat"":""6"",""src"":""18"",""x"":0,""y"":0},{""cat"":""19"",""src"":""17"",""x"":0,""y"":0},{""cat"":""6"",""src"":""16"",""x"":0,""y"":0},{""cat"":""20"",""src"":""6"",""x"":0,""y"":0}]","[{""cat"":19,""src"":1,""loc"":1},{""cat"":20,""src"":16,""loc"":2},{""cat"":6,""src"":3,""loc"":0},{""cat"":20,""src"":4,""loc"":6},{""cat"":19,""src"":14,""loc"":8},{""cat"":6,""src"":18,""loc"":7},{""cat"":19,""src"":17,""loc"":4},{""cat"":6,""src"":16,""loc"":3},{""cat"":20,""src"":6,""loc"":5}]","9","6,19,20,6,19,20,20,6,19,3,1,16,16,17,6,4,18,14,0,1,2,3,4,5,6,7,8,2,0,1,7,6,8,3,5,4",NA
"2304","sort_feedback","32","html-keyboard-response","155","1424723","0.0-4.0-85.0","1","2020-1-6 11:45:1","ELEPHANT",NA,NA,NA,NA,NA,NA,NA,NA,NA,NA,NA,NA,NA,NA
"19913","setup1",NA,"animation","156","1444637","0.0-4.0-86.0","1","2020-1-6 11:45:1","ELEPHANT",NA,NA,"[{""cat"":25,""src"":9,""loc"":6},{""cat"":25,""src"":4,""loc"":8},{""cat"":25,""src"":0,""loc"":7},{""cat"":16,""src"":4,""loc"":3},{""cat"":16,""src"":16,""loc"":5},{""cat"":16,""src"":15,""loc"":4},{""cat"":4,""src"":1,""loc"":1},{""cat"":4,""src"":16,""loc"":2},{""cat"":4,""src"":2,""loc"":0}]","1","1101,1101,1101,1102,1101,1101,1102,1101,1101,10002",NA,NA,NA,NA,NA,NA,NA,NA,NA
"2190","flanker_instructions","13","html-keyboard-response","157","1446828","0.0-4.0-87.0","1","2020-1-6 11:45:1","ELEPHANT",NA,NA,NA,NA,NA,NA,NA,NA,NA,NA,NA,NA,NA,NA
"861","flanker_test","37","image-keyboard-response","158","1448691","0.0-4.0-88.0-0.0","1","2020-1-6 11:45:1","ELEPHANT",NA,NA,NA,NA,NA,"incongruent","left","TRUE",NA,NA,NA,NA,NA,NA
"510","flanker_test","39","image-keyboard-response","159","1449900","0.0-4.0-88.0-0.1","1","2020-1-6 11:45:1","ELEPHANT",NA,NA,NA,NA,NA,"congruent","right","TRUE",NA,NA,NA,NA,NA,NA
"594","flanker_test","39","image-keyboard-response","160","1451388","0.0-4.0-88.0-0.2","1","2020-1-6 11:45:1","ELEPHANT",NA,NA,NA,NA,NA,"incongruent","right","TRUE",NA,NA,NA,NA,NA,NA
"430","flanker_test","37","image-keyboard-response","161","1452571","0.0-4.0-88.0-0.3","1","2020-1-6 11:45:1","ELEPHANT",NA,NA,NA,NA,NA,"congruent","left","TRUE",NA,NA,NA,NA,NA,NA
"29546","sort_trial",NA,"free-sort","162","1483306","0.0-4.0-89.0","1","2020-1-6 11:45:1","ELEPHANT",NA,NA,NA,NA,NA,NA,NA,NA,"[{""cat"":25,""src"":9,""x"":38,""y"":194},{""cat"":25,""src"":4,""x"":30,""y"":319},{""cat"":25,""src"":0,""x"":6,""y"":486},{""cat"":16,""src"":4,""x"":15,""y"":359},{""cat"":16,""src"":16,""x"":69,""y"":86},{""cat"":16,""src"":15,""x"":75,""y"":124},{""cat"":4,""src"":1,""x"":27,""y"":427},{""cat"":4,""src"":16,""x"":41,""y"":21},{""cat"":4,""src"":2,""x"":65,""y"":245}]","[{""cat"":""4"",""src"":""1"",""x"":0,""y"":0},{""cat"":""4"",""src"":""16"",""x"":0,""y"":0},{""cat"":""4"",""src"":""2"",""x"":0,""y"":0},{""cat"":""25"",""src"":""9"",""x"":0,""y"":0},{""cat"":""25"",""src"":""4"",""x"":0,""y"":0},{""cat"":""25"",""src"":""0"",""x"":0,""y"":0},{""cat"":""16"",""src"":""16"",""x"":0,""y"":0},{""cat"":""16"",""src"":""15"",""x"":0,""y"":0},{""cat"":""16"",""src"":""4"",""x"":0,""y"":0}]","[{""cat"":4,""src"":1,""loc"":1},{""cat"":4,""src"":16,""loc"":2},{""cat"":4,""src"":2,""loc"":0},{""cat"":25,""src"":9,""loc"":6},{""cat"":25,""src"":4,""loc"":8},{""cat"":25,""src"":0,""loc"":7},{""cat"":16,""src"":16,""loc"":5},{""cat"":16,""src"":15,""loc"":4},{""cat"":16,""src"":4,""loc"":3}]","9","4,4,4,16,16,16,25,25,25,2,1,16,4,15,16,9,0,4,0,1,2,3,4,5,6,7,8,2,0,1,8,7,6,3,5,4",NA
"2569","sort_feedback","32","html-keyboard-response","163","1485876","0.0-4.0-90.0","1","2020-1-6 11:45:1","ELEPHANT",NA,NA,NA,NA,NA,NA,NA,NA,NA,NA,NA,NA,NA,NA
"19914","setup3",NA,"animation","164","1505790","0.0-4.0-91.0","1","2020-1-6 11:45:1","ELEPHANT",NA,NA,"[{""cat"":15,""src"":4,""loc"":1},{""cat"":6,""src"":14,""loc"":3},{""cat"":2,""src"":4,""loc"":6},{""cat"":15,""src"":3,""loc"":2},{""cat"":2,""src"":0,""loc"":8},{""cat"":6,""src"":11,""loc"":4},{""cat"":6,""src"":9,""loc"":5},{""cat"":2,""src"":7,""loc"":7},{""cat"":15,""src"":11,""loc"":0}]","3","1101,1102,1101,1101,1102,1101,1101,1102,1102,10001",NA,NA,NA,NA,NA,NA,NA,NA,NA
"2166","flanker_instructions","13","html-keyboard-response","165","1507956","0.0-4.0-92.0","1","2020-1-6 11:45:1","ELEPHANT",NA,NA,NA,NA,NA,NA,NA,NA,NA,NA,NA,NA,NA,NA
NA,"flanker_test",NA,"image-keyboard-response","166","1509860","0.0-4.0-93.0-0.0","1","2020-1-6 11:45:1","ELEPHANT",NA,NA,NA,NA,NA,"congruent","right","FALSE",NA,NA,NA,NA,NA,NA
"620","flanker_test","39","image-keyboard-response","167","1511004","0.0-4.0-93.0-0.1","1","2020-1-6 11:45:1","ELEPHANT",NA,NA,NA,NA,NA,"incongruent","right","TRUE",NA,NA,NA,NA,NA,NA
"679","flanker_test","37","image-keyboard-response","168","1512884","0.0-4.0-93.0-0.2","1","2020-1-6 11:45:1","ELEPHANT",NA,NA,NA,NA,NA,"incongruent","left","TRUE",NA,NA,NA,NA,NA,NA
"369","flanker_test","37","image-keyboard-response","169","1513652","0.0-4.0-93.0-0.3","1","2020-1-6 11:45:1","ELEPHANT",NA,NA,NA,NA,NA,"congruent","left","TRUE",NA,NA,NA,NA,NA,NA
"30587","sort_trial",NA,"free-sort","170","1544994","0.0-4.0-94.0","1","2020-1-6 11:45:1","ELEPHANT",NA,NA,NA,NA,NA,NA,NA,NA,"[{""cat"":15,""src"":4,""x"":35,""y"":440},{""cat"":6,""src"":14,""x"":61,""y"":208},{""cat"":2,""src"":4,""x"":40,""y"":134},{""cat"":15,""src"":3,""x"":64,""y"":365},{""cat"":2,""src"":0,""x"":8,""y"":257},{""cat"":6,""src"":11,""x"":24,""y"":75},{""cat"":6,""src"":9,""x"":28,""y"":309},{""cat"":2,""src"":7,""x"":25,""y"":499},{""cat"":15,""src"":11,""x"":16,""y"":10}]","[{""cat"":""15"",""src"":""11"",""x"":256,""y"":148},{""cat"":""15"",""src"":""11"",""x"":0,""y"":0},{""cat"":""15"",""src"":""3"",""x"":0,""y"":0},{""cat"":""15"",""src"":""4"",""x"":0,""y"":0},{""cat"":""2"",""src"":""4"",""x"":0,""y"":0},{""cat"":""2"",""src"":""7"",""x"":0,""y"":0},{""cat"":""2"",""src"":""0"",""x"":0,""y"":0},{""cat"":""6"",""src"":""9"",""x"":0,""y"":0},{""cat"":""6"",""src"":""14"",""x"":0,""y"":0},{""cat"":""6"",""src"":""11"",""x"":0,""y"":0}]","[{""cat"":15,""src"":11,""loc"":0},{""cat"":15,""src"":3,""loc"":2},{""cat"":15,""src"":4,""loc"":1},{""cat"":2,""src"":4,""loc"":6},{""cat"":2,""src"":7,""loc"":8},{""cat"":2,""src"":0,""loc"":7},{""cat"":6,""src"":9,""loc"":3},{""cat"":6,""src"":14,""loc"":5},{""cat"":6,""src"":11,""loc"":4}]","5","15,15,15,6,6,6,2,2,2,11,4,3,9,11,14,4,0,7,0,1,2,3,4,5,6,7,8,0,2,1,6,8,7,3,5,4",NA
"2360","sort_feedback","32","html-keyboard-response","171","1547355","0.0-4.0-95.0","1","2020-1-6 11:45:1","ELEPHANT",NA,NA,NA,NA,NA,NA,NA,NA,NA,NA,NA,NA,NA,NA
"19913","setup5",NA,"animation","172","1567269","0.0-4.0-96.0","1","2020-1-6 11:45:1","ELEPHANT",NA,NA,"[{""cat"":1,""src"":14,""loc"":8},{""cat"":21,""src"":15,""loc"":2},{""cat"":0,""src"":3,""loc"":3},{""cat"":1,""src"":10,""loc"":0},{""cat"":21,""src"":17,""loc"":5},{""cat"":0,""src"":6,""loc"":6},{""cat"":21,""src"":10,""loc"":7},{""cat"":0,""src"":1,""loc"":1},{""cat"":1,""src"":13,""loc"":4}]","5","1102,1100,1102,1102,1100,1102,1101,1101,1102,10001",NA,NA,NA,NA,NA,NA,NA,NA,NA
"3974","flanker_instructions","13","html-keyboard-response","173","1571244","0.0-4.0-97.0","1","2020-1-6 11:45:1","ELEPHANT",NA,NA,NA,NA,NA,NA,NA,NA,NA,NA,NA,NA,NA,NA
"789","flanker_test","37","image-keyboard-response","174","1573035","0.0-4.0-98.0-0.0","1","2020-1-6 11:45:1","ELEPHANT",NA,NA,NA,NA,NA,"incongruent","left","TRUE",NA,NA,NA,NA,NA,NA
"444","flanker_test","39","image-keyboard-response","175","1574316","0.0-4.0-98.0-0.1","1","2020-1-6 11:45:1","ELEPHANT",NA,NA,NA,NA,NA,"congruent","right","TRUE",NA,NA,NA,NA,NA,NA
"695","flanker_test","39","image-keyboard-response","176","1575379","0.0-4.0-98.0-0.2","1","2020-1-6 11:45:1","ELEPHANT",NA,NA,NA,NA,NA,"incongruent","right","TRUE",NA,NA,NA,NA,NA,NA
"513","flanker_test","37","image-keyboard-response","177","1576204","0.0-4.0-98.0-0.3","1","2020-1-6 11:45:1","ELEPHANT",NA,NA,NA,NA,NA,"congruent","left","TRUE",NA,NA,NA,NA,NA,NA
"39358","sort_trial",NA,"free-sort","178","1616432","0.0-4.0-99.0","1","2020-1-6 11:45:1","ELEPHANT",NA,NA,NA,NA,NA,NA,NA,NA,"[{""cat"":1,""src"":14,""x"":40,""y"":490},{""cat"":21,""src"":15,""x"":59,""y"":123},{""cat"":0,""src"":3,""x"":54,""y"":360},{""cat"":1,""src"":10,""x"":70,""y"":319},{""cat"":21,""src"":17,""x"":65,""y"":260},{""cat"":0,""src"":6,""x"":42,""y"":207},{""cat"":21,""src"":10,""x"":20,""y"":73},{""cat"":0,""src"":1,""x"":24,""y"":19},{""cat"":1,""src"":13,""x"":3,""y"":429}]","[{""cat"":""21"",""src"":""10"",""x"":0,""y"":0},{""cat"":""1"",""src"":""14"",""x"":0,""y"":0},{""cat"":""0"",""src"":""3"",""x"":0,""y"":0},{""cat"":""0"",""src"":""6"",""x"":0,""y"":0},{""cat"":""21"",""src"":""17"",""x"":0,""y"":0},{""cat"":""0"",""src"":""1"",""x"":0,""y"":0},{""cat"":""1"",""src"":""10"",""x"":0,""y"":0},{""cat"":""21"",""src"":""15"",""x"":0,""y"":0},{""cat"":""1"",""src"":""13"",""x"":0,""y"":0}]","[{""cat"":21,""src"":10,""loc"":7},{""cat"":1,""src"":14,""loc"":8},{""cat"":0,""src"":3,""loc"":4},{""cat"":0,""src"":6,""loc"":0},{""cat"":21,""src"":17,""loc"":3},{""cat"":0,""src"":1,""loc"":6},{""cat"":1,""src"":10,""loc"":2},{""cat"":21,""src"":15,""loc"":1},{""cat"":1,""src"":13,""loc"":5}]","2","0,21,1,21,0,1,0,21,1,6,15,10,17,3,13,1,10,14,0,1,2,3,4,5,6,7,8,3,7,6,4,2,8,5,0,1",NA
"2139","sort_feedback","32","html-keyboard-response","179","1618572","0.0-4.0-100.0","1","2020-1-6 11:45:1","ELEPHANT",NA,NA,NA,NA,NA,NA,NA,NA,NA,NA,NA,NA,NA,NA
NA,"breakStart",NA,"html-keyboard-response","180","1648574","0.0-5.0-0.0","1","2020-1-6 11:45:1","ELEPHANT",NA,NA,NA,NA,NA,NA,NA,NA,NA,NA,NA,NA,NA,NA
"1482","breakEnd",NA,"html-button-response","181","1650057","0.0-5.0-1.0","1","2020-1-6 11:45:1","ELEPHANT","0",NA,NA,NA,NA,NA,NA,NA,NA,NA,NA,NA,NA,NA
"19914","setup4",NA,"animation","182","1669971","0.0-6.0-0.0","1","2020-1-6 11:45:1","ELEPHANT",NA,NA,"[{""cat"":4,""src"":9,""loc"":5},{""cat"":4,""src"":13,""loc"":2},{""cat"":4,""src"":1,""loc"":8},{""cat"":13,""src"":10,""loc"":7},{""cat"":13,""src"":8,""loc"":4},{""cat"":13,""src"":16,""loc"":0},{""cat"":8,""src"":3,""loc"":6},{""cat"":8,""src"":14,""loc"":3},{""cat"":8,""src"":4,""loc"":1}]","4","1102,1101,1102,1102,1101,1101,1102,1101,1101,10001",NA,NA,NA,NA,NA,NA,NA,NA,NA
"3505","flanker_instructions","13","html-keyboard-response","183","1673476","0.0-6.0-1.0","1","2020-1-6 11:45:1","ELEPHANT",NA,NA,NA,NA,NA,NA,NA,NA,NA,NA,NA,NA,NA,NA
"710","flanker_test","39","image-keyboard-response","184","1675188","0.0-6.0-2.0-0.0","1","2020-1-6 11:45:1","ELEPHANT",NA,NA,NA,NA,NA,"incongruent","right","TRUE",NA,NA,NA,NA,NA,NA
"474","flanker_test","37","image-keyboard-response","185","1676140","0.0-6.0-2.0-0.1","1","2020-1-6 11:45:1","ELEPHANT",NA,NA,NA,NA,NA,"congruent","left","TRUE",NA,NA,NA,NA,NA,NA
"430","flanker_test","37","image-keyboard-response","186","1677188","0.0-6.0-2.0-0.2","1","2020-1-6 11:45:1","ELEPHANT",NA,NA,NA,NA,NA,"incongruent","left","TRUE",NA,NA,NA,NA,NA,NA
"549","flanker_test","39","image-keyboard-response","187","1678108","0.0-6.0-2.0-0.3","1","2020-1-6 11:45:1","ELEPHANT",NA,NA,NA,NA,NA,"congruent","right","TRUE",NA,NA,NA,NA,NA,NA
"32017","sort_trial",NA,"free-sort","188","1710458","0.0-6.0-3.0","1","2020-1-6 11:45:1","ELEPHANT",NA,NA,NA,NA,NA,NA,NA,NA,"[{""cat"":4,""src"":9,""x"":6,""y"":420},{""cat"":4,""src"":13,""x"":66,""y"":65},{""cat"":4,""src"":1,""x"":31,""y"":198},{""cat"":13,""src"":10,""x"":52,""y"":375},{""cat"":13,""src"":8,""x"":2,""y"":252},{""cat"":13,""src"":16,""x"":42,""y"":19},{""cat"":8,""src"":3,""x"":65,""y"":318},{""cat"":8,""src"":14,""x"":70,""y"":137},{""cat"":8,""src"":4,""x"":53,""y"":504}]","[{""cat"":""13"",""src"":""16"",""x"":0,""y"":0},{""cat"":""4"",""src"":""13"",""x"":0,""y"":0},{""cat"":""8"",""src"":""4"",""x"":0,""y"":0},{""cat"":""13"",""src"":""10"",""x"":0,""y"":0},{""cat"":""4"",""src"":""9"",""x"":0,""y"":0},{""cat"":""8"",""src"":""3"",""x"":0,""y"":0},{""cat"":""13"",""src"":""8"",""x"":0,""y"":0},{""cat"":""8"",""src"":""14"",""x"":0,""y"":0},{""cat"":""4"",""src"":""1"",""x"":0,""y"":0}]","[{""cat"":13,""src"":16,""loc"":0},{""cat"":4,""src"":13,""loc"":2},{""cat"":8,""src"":4,""loc"":1},{""cat"":13,""src"":10,""loc"":7},{""cat"":4,""src"":9,""loc"":6},{""cat"":8,""src"":3,""loc"":8},{""cat"":13,""src"":8,""loc"":3},{""cat"":8,""src"":14,""loc"":5},{""cat"":4,""src"":1,""loc"":4}]","4","13,8,4,13,4,8,4,13,8,16,4,13,8,1,14,9,10,3,0,1,2,3,4,5,6,7,8,0,2,1,6,8,7,4,3,5",NA
"1945","sort_feedback","32","html-keyboard-response","189","1712404","0.0-6.0-4.0","1","2020-1-6 11:45:1","ELEPHANT",NA,NA,NA,NA,NA,NA,NA,NA,NA,NA,NA,NA,NA,NA
"19913","setup3",NA,"animation","190","1732317","0.0-6.0-5.0","1","2020-1-6 11:45:1","ELEPHANT",NA,NA,"[{""cat"":26,""src"":17,""loc"":6},{""cat"":19,""src"":16,""loc"":0},{""cat"":13,""src"":15,""loc"":4},{""cat"":13,""src"":18,""loc"":3},{""cat"":19,""src"":14,""loc"":2},{""cat"":26,""src"":4,""loc"":8},{""cat"":26,""src"":12,""loc"":7},{""cat"":13,""src"":10,""loc"":5},{""cat"":19,""src"":10,""loc"":1}]","3","1103,1100,1101,1101,1102,1101,1101,1102,1101,10001",NA,NA,NA,NA,NA,NA,NA,NA,NA
"3895","flanker_instructions","13","html-keyboard-response","191","1736212","0.0-6.0-6.0","1","2020-1-6 11:45:1","ELEPHANT",NA,NA,NA,NA,NA,NA,NA,NA,NA,NA,NA,NA,NA,NA
"566","flanker_test","39","image-keyboard-response","192","1737780","0.0-6.0-7.0-0.0","1","2020-1-6 11:45:1","ELEPHANT",NA,NA,NA,NA,NA,"congruent","right","TRUE",NA,NA,NA,NA,NA,NA
"578","flanker_test","37","image-keyboard-response","193","1739364","0.0-6.0-7.0-0.1","1","2020-1-6 11:45:1","ELEPHANT",NA,NA,NA,NA,NA,"incongruent","left","TRUE",NA,NA,NA,NA,NA,NA
"481","flanker_test","37","image-keyboard-response","194","1740429","0.0-6.0-7.0-0.2","1","2020-1-6 11:45:1","ELEPHANT",NA,NA,NA,NA,NA,"congruent","left","TRUE",NA,NA,NA,NA,NA,NA
"566","flanker_test","39","image-keyboard-response","195","1741932","0.0-6.0-7.0-0.3","1","2020-1-6 11:45:1","ELEPHANT",NA,NA,NA,NA,NA,"incongruent","right","TRUE",NA,NA,NA,NA,NA,NA
"23799","sort_trial",NA,"free-sort","196","1766656","0.0-6.0-8.0","1","2020-1-6 11:45:1","ELEPHANT",NA,NA,NA,NA,NA,NA,NA,NA,"[{""cat"":26,""src"":17,""x"":12,""y"":266},{""cat"":19,""src"":16,""x"":40,""y"":500},{""cat"":13,""src"":15,""x"":76,""y"":369},{""cat"":13,""src"":18,""x"":19,""y"":422},{""cat"":19,""src"":14,""x"":58,""y"":204},{""cat"":26,""src"":4,""x"":82,""y"":147},{""cat"":26,""src"":12,""x"":78,""y"":18},{""cat"":13,""src"":10,""x"":45,""y"":71},{""cat"":19,""src"":10,""x"":60,""y"":327}]","[{""cat"":""13"",""src"":""15"",""x"":0,""y"":0},{""cat"":""13"",""src"":""18"",""x"":0,""y"":0},{""cat"":""13"",""src"":""10"",""x"":0,""y"":0},{""cat"":""26"",""src"":""17"",""x"":0,""y"":0},{""cat"":""19"",""src"":""16"",""x"":0,""y"":0},{""cat"":""19"",""src"":""10"",""x"":0,""y"":0},{""cat"":""26"",""src"":""12"",""x"":0,""y"":0},{""cat"":""26"",""src"":""4"",""x"":0,""y"":0},{""cat"":""19"",""src"":""14"",""x"":0,""y"":0}]","[{""cat"":13,""src"":15,""loc"":3},{""cat"":13,""src"":18,""loc"":4},{""cat"":13,""src"":10,""loc"":5},{""cat"":26,""src"":17,""loc"":6},{""cat"":19,""src"":16,""loc"":0},{""cat"":19,""src"":10,""loc"":1},{""cat"":26,""src"":12,""loc"":8},{""cat"":26,""src"":4,""loc"":7},{""cat"":19,""src"":14,""loc"":2}]","5","19,19,19,13,13,13,26,26,26,16,10,14,15,18,10,17,4,12,0,1,2,3,4,5,6,7,8,4,5,8,0,1,2,3,7,6",NA
"2051","sort_feedback","32","html-keyboard-response","197","1768708","0.0-6.0-9.0","1","2020-1-6 11:45:1","ELEPHANT",NA,NA,NA,NA,NA,NA,NA,NA,NA,NA,NA,NA,NA,NA
"19916","setup5",NA,"animation","198","1788624","0.0-6.0-10.0","1","2020-1-6 11:45:1","ELEPHANT",NA,NA,"[{""cat"":13,""src"":2,""loc"":8},{""cat"":1,""src"":9,""loc"":4},{""cat"":19,""src"":16,""loc"":1},{""cat"":1,""src"":6,""loc"":0},{""cat"":19,""src"":7,""loc"":6},{""cat"":13,""src"":18,""loc"":3},{""cat"":13,""src"":3,""loc"":2},{""cat"":19,""src"":11,""loc"":5},{""cat"":1,""src"":4,""loc"":7}]","5","1102,1102,1102,1101,1102,1101,1102,1101,1102,10001",NA,NA,NA,NA,NA,NA,NA,NA,NA
"1532","flanker_instructions","13","html-keyboard-response","199","1790157","0.0-6.0-11.0","1","2020-1-6 11:45:1","ELEPHANT",NA,NA,NA,NA,NA,NA,NA,NA,NA,NA,NA,NA,NA,NA
NA,"flanker_test",NA,"image-keyboard-response","200","1792059","0.0-6.0-12.0-0.0","1","2020-1-6 11:45:1","ELEPHANT",NA,NA,NA,NA,NA,"congruent","right","FALSE",NA,NA,NA,NA,NA,NA
"724","flanker_test","39","image-keyboard-response","201","1793925","0.0-6.0-12.0-0.1","1","2020-1-6 11:45:1","ELEPHANT",NA,NA,NA,NA,NA,"incongruent","right","TRUE",NA,NA,NA,NA,NA,NA
"469","flanker_test","37","image-keyboard-response","202","1795349","0.0-6.0-12.0-0.2","1","2020-1-6 11:45:1","ELEPHANT",NA,NA,NA,NA,NA,"incongruent","left","TRUE",NA,NA,NA,NA,NA,NA
"259","flanker_test","37","image-keyboard-response","203","1796509","0.0-6.0-12.0-0.3","1","2020-1-6 11:45:1","ELEPHANT",NA,NA,NA,NA,NA,"congruent","left","TRUE",NA,NA,NA,NA,NA,NA
"40492","sort_trial",NA,"free-sort","204","1837673","0.0-6.0-13.0","1","2020-1-6 11:45:1","ELEPHANT",NA,NA,NA,NA,NA,NA,NA,NA,"[{""cat"":13,""src"":2,""x"":56,""y"":419},{""cat"":1,""src"":9,""x"":37,""y"":195},{""cat"":19,""src"":16,""x"":67,""y"":21},{""cat"":1,""src"":6,""x"":66,""y"":88},{""cat"":19,""src"":7,""x"":51,""y"":363},{""cat"":13,""src"":18,""x"":61,""y"":507},{""cat"":13,""src"":3,""x"":7,""y"":321},{""cat"":19,""src"":11,""x"":44,""y"":259},{""cat"":1,""src"":4,""x"":53,""y"":137}]","[{""cat"":""1"",""src"":""6"",""x"":0,""y"":0},{""cat"":""1"",""src"":""4"",""x"":0,""y"":0},{""cat"":""1"",""src"":""9"",""x"":0,""y"":0},{""cat"":""19"",""src"":""16"",""x"":0,""y"":0},{""cat"":""13"",""src"":""3"",""x"":0,""y"":0},{""cat"":""19"",""src"":""11"",""x"":591,""y"":166},{""cat"":""19"",""src"":""11"",""x"":0,""y"":0},{""cat"":""13"",""src"":""18"",""x"":0,""y"":0},{""cat"":""19"",""src"":""7"",""x"":0,""y"":0},{""cat"":""13"",""src"":""2"",""x"":0,""y"":0}]","[{""cat"":1,""src"":6,""loc"":0},{""cat"":1,""src"":4,""loc"":7},{""cat"":1,""src"":9,""loc"":4},{""cat"":19,""src"":16,""loc"":1},{""cat"":13,""src"":3,""loc"":2},{""cat"":19,""src"":11,""loc"":5},{""cat"":13,""src"":18,""loc"":3},{""cat"":19,""src"":7,""loc"":6},{""cat"":13,""src"":2,""loc"":8}]","9","1,19,13,13,1,19,19,1,13,6,16,3,18,9,11,7,4,2,0,1,2,3,4,5,6,7,8,0,3,4,6,2,5,7,1,8",NA
"2314","sort_feedback","32","html-keyboard-response","205","1839988","0.0-6.0-14.0","1","2020-1-6 11:45:1","ELEPHANT",NA,NA,NA,NA,NA,NA,NA,NA,NA,NA,NA,NA,NA,NA
"19911","setup1",NA,"animation","206","1859900","0.0-6.0-15.0","1","2020-1-6 11:45:1","ELEPHANT",NA,NA,"[{""cat"":14,""src"":11,""loc"":6},{""cat"":14,""src"":2,""loc"":7},{""cat"":14,""src"":16,""loc"":8},{""cat"":29,""src"":2,""loc"":4},{""cat"":29,""src"":11,""loc"":5},{""cat"":29,""src"":14,""loc"":3},{""cat"":1,""src"":7,""loc"":2},{""cat"":1,""src"":15,""loc"":1},{""cat"":1,""src"":19,""loc"":0}]","1","1101,1100,1102,1101,1101,1102,1101,1101,1101,10001",NA,NA,NA,NA,NA,NA,NA,NA,NA
"1815","flanker_instructions","13","html-keyboard-response","207","1861716","0.0-6.0-16.0","1","2020-1-6 11:45:1","ELEPHANT",NA,NA,NA,NA,NA,NA,NA,NA,NA,NA,NA,NA,NA,NA
"575","flanker_test","37","image-keyboard-response","208","1863292","0.0-6.0-17.0-0.0","1","2020-1-6 11:45:1","ELEPHANT",NA,NA,NA,NA,NA,"congruent","left","TRUE",NA,NA,NA,NA,NA,NA
"634","flanker_test","39","image-keyboard-response","209","1865124","0.0-6.0-17.0-0.1","1","2020-1-6 11:45:1","ELEPHANT",NA,NA,NA,NA,NA,"incongruent","right","TRUE",NA,NA,NA,NA,NA,NA
"731","flanker_test","37","image-keyboard-response","210","1866212","0.0-6.0-17.0-0.2","1","2020-1-6 11:45:1","ELEPHANT",NA,NA,NA,NA,NA,"incongruent","left","TRUE",NA,NA,NA,NA,NA,NA
"416","flanker_test","39","image-keyboard-response","211","1867276","0.0-6.0-17.0-0.3","1","2020-1-6 11:45:1","ELEPHANT",NA,NA,NA,NA,NA,"congruent","right","TRUE",NA,NA,NA,NA,NA,NA
"29804","sort_trial",NA,"free-sort","212","1898014","0.0-6.0-18.0","1","2020-1-6 11:45:1","ELEPHANT",NA,NA,NA,NA,NA,NA,NA,NA,"[{""cat"":14,""src"":11,""x"":72,""y"":305},{""cat"":14,""src"":2,""x"":83,""y"":484},{""cat"":14,""src"":16,""x"":54,""y"":263},{""cat"":29,""src"":2,""x"":2,""y"":434},{""cat"":29,""src"":11,""x"":0,""y"":183},{""cat"":29,""src"":14,""x"":16,""y"":73},{""cat"":1,""src"":7,""x"":75,""y"":379},{""cat"":1,""src"":15,""x"":16,""y"":147},{""cat"":1,""src"":19,""x"":28,""y"":18}]","[{""cat"":""29"",""src"":""2"",""x"":0,""y"":0},{""cat"":""29"",""src"":""11"",""x"":0,""y"":0},{""cat"":""29"",""src"":""14"",""x"":0,""y"":0},{""cat"":""14"",""src"":""16"",""x"":0,""y"":0},{""cat"":""14"",""src"":""2"",""x"":0,""y"":0},{""cat"":""1"",""src"":""19"",""x"":0,""y"":0},{""cat"":""1"",""src"":""15"",""x"":402,""y"":78},{""cat"":""1"",""src"":""15"",""x"":0,""y"":0},{""cat"":""14"",""src"":""11"",""x"":0,""y"":0},{""cat"":""1"",""src"":""7"",""x"":0,""y"":0}]","[{""cat"":29,""src"":2,""loc"":4},{""cat"":29,""src"":11,""loc"":5},{""cat"":29,""src"":14,""loc"":3},{""cat"":14,""src"":16,""loc"":8},{""cat"":14,""src"":2,""loc"":7},{""cat"":1,""src"":19,""loc"":0},{""cat"":1,""src"":15,""loc"":1},{""cat"":14,""src"":11,""loc"":6},{""cat"":1,""src"":7,""loc"":2}]","9","1,1,1,29,29,29,14,14,14,19,15,7,14,2,11,11,2,16,0,1,2,3,4,5,6,7,8,5,6,8,2,0,1,7,4,3",NA
"2165","sort_feedback","32","html-keyboard-response","213","1900181","0.0-6.0-19.0","1","2020-1-6 11:45:1","ELEPHANT",NA,NA,NA,NA,NA,NA,NA,NA,NA,NA,NA,NA,NA,NA
"19912","setup2",NA,"animation","214","1920093","0.0-6.0-20.0","1","2020-1-6 11:45:1","ELEPHANT",NA,NA,"[{""cat"":4,""src"":0,""loc"":8},{""cat"":28,""src"":17,""loc"":7},{""cat"":13,""src"":7,""loc"":6},{""cat"":28,""src"":8,""loc"":3},{""cat"":4,""src"":14,""loc"":5},{""cat"":13,""src"":6,""loc"":4},{""cat"":13,""src"":17,""loc"":2},{""cat"":4,""src"":11,""loc"":1},{""cat"":28,""src"":0,""loc"":0}]","2","1101,1102,1101,1101,1100,1102,1101,1102,1101,10001",NA,NA,NA,NA,NA,NA,NA,NA,NA
"3133","flanker_instructions","13","html-keyboard-response","215","1923228","0.0-6.0-21.0","1","2020-1-6 11:45:1","ELEPHANT",NA,NA,NA,NA,NA,NA,NA,NA,NA,NA,NA,NA,NA,NA
"711","flanker_test","39","image-keyboard-response","216","1924941","0.0-6.0-22.0-0.0","1","2020-1-6 11:45:1","ELEPHANT",NA,NA,NA,NA,NA,"congruent","right","TRUE",NA,NA,NA,NA,NA,NA
"588","flanker_test","37","image-keyboard-response","217","1926324","0.0-6.0-22.0-0.1","1","2020-1-6 11:45:1","ELEPHANT",NA,NA,NA,NA,NA,"incongruent","left","TRUE",NA,NA,NA,NA,NA,NA
"613","flanker_test","39","image-keyboard-response","218","1927813","0.0-6.0-22.0-0.2","1","2020-1-6 11:45:1","ELEPHANT",NA,NA,NA,NA,NA,"incongruent","right","TRUE",NA,NA,NA,NA,NA,NA
"582","flanker_test","37","image-keyboard-response","219","1929132","0.0-6.0-22.0-0.3","1","2020-1-6 11:45:1","ELEPHANT",NA,NA,NA,NA,NA,"congruent","left","TRUE",NA,NA,NA,NA,NA,NA
"37081","sort_trial",NA,"free-sort","220","1967199","0.0-6.0-23.0","1","2020-1-6 11:45:1","ELEPHANT",NA,NA,NA,NA,NA,NA,NA,NA,"[{""cat"":4,""src"":0,""x"":79,""y"":18},{""cat"":28,""src"":17,""x"":30,""y"":255},{""cat"":13,""src"":7,""x"":21,""y"":139},{""cat"":28,""src"":8,""x"":82,""y"":361},{""cat"":4,""src"":14,""x"":31,""y"":429},{""cat"":13,""src"":6,""x"":32,""y"":190},{""cat"":13,""src"":17,""x"":2,""y"":70},{""cat"":4,""src"":11,""x"":68,""y"":305},{""cat"":28,""src"":0,""x"":1,""y"":495}]","[{""cat"":""28"",""src"":""0"",""x"":0,""y"":0},{""cat"":""4"",""src"":""11"",""x"":0,""y"":0},{""cat"":""13"",""src"":""17"",""x"":0,""y"":0},{""cat"":""13"",""src"":""7"",""x"":0,""y"":0},{""cat"":""4"",""src"":""0"",""x"":0,""y"":0},{""cat"":""28"",""src"":""17"",""x"":0,""y"":0},{""cat"":""4"",""src"":""14"",""x"":0,""y"":0},{""cat"":""13"",""src"":""6"",""x"":0,""y"":0},{""cat"":""28"",""src"":""8"",""x"":0,""y"":0}]","[{""cat"":28,""src"":0,""loc"":0},{""cat"":4,""src"":11,""loc"":1},{""cat"":13,""src"":17,""loc"":2},{""cat"":13,""src"":7,""loc"":6},{""cat"":4,""src"":0,""loc"":8},{""cat"":28,""src"":17,""loc"":7},{""cat"":4,""src"":14,""loc"":5},{""cat"":13,""src"":6,""loc"":3},{""cat"":28,""src"":8,""loc"":4}]","7","28,4,13,13,28,4,13,28,4,0,11,17,6,8,14,7,17,0,0,1,2,3,4,5,6,7,8,0,1,2,7,8,6,3,5,4",NA
"2140","sort_feedback","32","html-keyboard-response","221","1969341","0.0-6.0-24.0","1","2020-1-6 11:45:1","ELEPHANT",NA,NA,NA,NA,NA,NA,NA,NA,NA,NA,NA,NA,NA,NA
"19913","setup4",NA,"animation","222","1989254","0.0-6.0-25.0","1","2020-1-6 11:45:1","ELEPHANT",NA,NA,"[{""cat"":0,""src"":9,""loc"":7},{""cat"":0,""src"":14,""loc"":2},{""cat"":0,""src"":15,""loc"":3},{""cat"":4,""src"":1,""loc"":4},{""cat"":4,""src"":7,""loc"":1},{""cat"":4,""src"":2,""loc"":6},{""cat"":6,""src"":1,""loc"":0},{""cat"":6,""src"":18,""loc"":5},{""cat"":6,""src"":3,""loc"":8}]","4","1102,1101,1102,1101,1101,1101,1101,1101,1102,10001",NA,NA,NA,NA,NA,NA,NA,NA,NA
"3726","flanker_instructions","13","html-keyboard-response","223","1992981","0.0-6.0-26.0","1","2020-1-6 11:45:1","ELEPHANT",NA,NA,NA,NA,NA,NA,NA,NA,NA,NA,NA,NA,NA,NA
"797","flanker_test","37","image-keyboard-response","224","1994781","0.0-6.0-27.0-0.0","1","2020-1-6 11:45:1","ELEPHANT",NA,NA,NA,NA,NA,"incongruent","left","TRUE",NA,NA,NA,NA,NA,NA
"407","flanker_test","37","image-keyboard-response","225","1995701","0.0-6.0-27.0-0.1","1","2020-1-6 11:45:1","ELEPHANT",NA,NA,NA,NA,NA,"congruent","left","TRUE",NA,NA,NA,NA,NA,NA
"409","flanker_test","39","image-keyboard-response","226","1997141","0.0-6.0-27.0-0.2","1","2020-1-6 11:45:1","ELEPHANT",NA,NA,NA,NA,NA,"congruent","right","TRUE",NA,NA,NA,NA,NA,NA
"304","flanker_test","39","image-keyboard-response","227","1997917","0.0-6.0-27.0-0.3","1","2020-1-6 11:45:1","ELEPHANT",NA,NA,NA,NA,NA,"incongruent","right","TRUE",NA,NA,NA,NA,NA,NA
"32372","sort_trial",NA,"free-sort","228","2031411","0.0-6.0-28.0","1","2020-1-6 11:45:1","ELEPHANT",NA,NA,NA,NA,NA,NA,NA,NA,"[{""cat"":0,""src"":9,""x"":83,""y"":383},{""cat"":0,""src"":14,""x"":23,""y"":320},{""cat"":0,""src"":15,""x"":2,""y"":429},{""cat"":4,""src"":1,""x"":2,""y"":14},{""cat"":4,""src"":7,""x"":11,""y"":496},{""cat"":4,""src"":2,""x"":10,""y"":142},{""cat"":6,""src"":1,""x"":18,""y"":187},{""cat"":6,""src"":18,""x"":2,""y"":249},{""cat"":6,""src"":3,""x"":46,""y"":61}]","[{""cat"":""6"",""src"":""1"",""x"":0,""y"":0},{""cat"":""4"",""src"":""7"",""x"":0,""y"":0},{""cat"":""0"",""src"":""14"",""x"":0,""y"":0},{""cat"":""0"",""src"":""9"",""x"":0,""y"":0},{""cat"":""4"",""src"":""2"",""x"":0,""y"":0},{""cat"":""6"",""src"":""3"",""x"":0,""y"":0},{""cat"":""4"",""src"":""1"",""x"":796,""y"":167},{""cat"":""4"",""src"":""1"",""x"":0,""y"":0},{""cat"":""6"",""src"":""18"",""x"":0,""y"":0},{""cat"":""0"",""src"":""15"",""x"":828,""y"":281},{""cat"":""0"",""src"":""15"",""x"":3,""y"":429},{""cat"":""0"",""src"":""15"",""x"":0,""y"":0}]","[{""cat"":6,""src"":1,""loc"":0},{""cat"":4,""src"":7,""loc"":2},{""cat"":0,""src"":14,""loc"":1},{""cat"":0,""src"":9,""loc"":7},{""cat"":4,""src"":2,""loc"":6},{""cat"":6,""src"":3,""loc"":8},{""cat"":4,""src"":1,""loc"":4},{""cat"":6,""src"":18,""loc"":5},{""cat"":0,""src"":15,""loc"":3}]","7","6,0,4,0,4,6,4,0,6,1,14,7,15,1,18,2,9,3,0,1,2,3,4,5,6,7,8,0,2,1,8,6,7,4,3,5",NA
"1865","sort_feedback","32","html-keyboard-response","229","2033277","0.0-6.0-29.0","1","2020-1-6 11:45:1","ELEPHANT",NA,NA,NA,NA,NA,NA,NA,NA,NA,NA,NA,NA,NA,NA
"19915","setup3",NA,"animation","230","2053192","0.0-6.0-30.0","1","2020-1-6 11:45:1","ELEPHANT",NA,NA,"[{""cat"":13,""src"":12,""loc"":3},{""cat"":31,""src"":1,""loc"":6},{""cat"":0,""src"":2,""loc"":0},{""cat"":13,""src"":8,""loc"":5},{""cat"":0,""src"":4,""loc"":2},{""cat"":31,""src"":2,""loc"":7},{""cat"":13,""src"":13,""loc"":4},{""cat"":0,""src"":11,""loc"":1},{""cat"":31,""src"":5,""loc"":8}]","3","1102,1102,1102,1101,1101,1102,1102,1101,1101,10001",NA,NA,NA,NA,NA,NA,NA,NA,NA
"1836","flanker_instructions","13","html-keyboard-response","231","2055029","0.0-6.0-31.0","1","2020-1-6 11:45:1","ELEPHANT",NA,NA,NA,NA,NA,NA,NA,NA,NA,NA,NA,NA,NA,NA
"775","flanker_test","37","image-keyboard-response","232","2056805","0.0-6.0-32.0-0.0","1","2020-1-6 11:45:1","ELEPHANT",NA,NA,NA,NA,NA,"incongruent","left","TRUE",NA,NA,NA,NA,NA,NA
"676","flanker_test","39","image-keyboard-response","233","2058157","0.0-6.0-32.0-0.1","1","2020-1-6 11:45:1","ELEPHANT",NA,NA,NA,NA,NA,"incongruent","right","TRUE",NA,NA,NA,NA,NA,NA
"418","flanker_test","37","image-keyboard-response","234","2058925","0.0-6.0-32.0-0.2","1","2020-1-6 11:45:1","ELEPHANT",NA,NA,NA,NA,NA,"congruent","left","TRUE",NA,NA,NA,NA,NA,NA
"567","flanker_test","39","image-keyboard-response","235","2060365","0.0-6.0-32.0-0.3","1","2020-1-6 11:45:1","ELEPHANT",NA,NA,NA,NA,NA,"congruent","right","TRUE",NA,NA,NA,NA,NA,NA
"35307","sort_trial",NA,"free-sort","236","2096711","0.0-6.0-33.0","1","2020-1-6 11:45:1","ELEPHANT",NA,NA,NA,NA,NA,NA,NA,NA,"[{""cat"":13,""src"":12,""x"":64,""y"":74},{""cat"":31,""src"":1,""x"":28,""y"":131},{""cat"":0,""src"":2,""x"":83,""y"":490},{""cat"":13,""src"":8,""x"":65,""y"":319},{""cat"":0,""src"":4,""x"":72,""y"":442},{""cat"":31,""src"":2,""x"":56,""y"":382},{""cat"":13,""src"":13,""x"":57,""y"":201},{""cat"":0,""src"":11,""x"":69,""y"":265},{""cat"":31,""src"":5,""x"":79,""y"":1}]","[{""cat"":""0"",""src"":""2"",""x"":0,""y"":0},{""cat"":""0"",""src"":""11"",""x"":0,""y"":0},{""cat"":""0"",""src"":""4"",""x"":0,""y"":0},{""cat"":""13"",""src"":""8"",""x"":0,""y"":0},{""cat"":""13"",""src"":""12"",""x"":0,""y"":0},{""cat"":""13"",""src"":""13"",""x"":0,""y"":0},{""cat"":""31"",""src"":""1"",""x"":0,""y"":0},{""cat"":""31"",""src"":""2"",""x"":0,""y"":0},{""cat"":""31"",""src"":""5"",""x"":0,""y"":0}]","[{""cat"":0,""src"":2,""loc"":0},{""cat"":0,""src"":11,""loc"":1},{""cat"":0,""src"":4,""loc"":2},{""cat"":13,""src"":8,""loc"":5},{""cat"":13,""src"":12,""loc"":4},{""cat"":13,""src"":13,""loc"":3},{""cat"":31,""src"":1,""loc"":7},{""cat"":31,""src"":2,""loc"":8},{""cat"":31,""src"":5,""loc"":6}]","4","0,0,0,13,13,13,31,31,31,2,11,4,13,12,8,5,1,2,0,1,2,3,4,5,6,7,8,0,1,2,5,4,3,8,6,7",NA
"1837","sort_feedback","32","html-keyboard-response","237","2098548","0.0-6.0-34.0","1","2020-1-6 11:45:1","ELEPHANT",NA,NA,NA,NA,NA,NA,NA,NA,NA,NA,NA,NA,NA,NA
"19915","setup1",NA,"animation","238","2118463","0.0-6.0-35.0","1","2020-1-6 11:45:1","ELEPHANT",NA,NA,"[{""cat"":29,""src"":13,""loc"":4},{""cat"":29,""src"":3,""loc"":3},{""cat"":29,""src"":6,""loc"":5},{""cat"":16,""src"":10,""loc"":6},{""cat"":16,""src"":5,""loc"":8},{""cat"":16,""src"":4,""loc"":7},{""cat"":33,""src"":18,""loc"":0},{""cat"":33,""src"":19,""loc"":1},{""cat"":33,""src"":6,""loc"":2}]","1","1102,1102,1102,1101,1101,1103,1101,1101,1101,10001",NA,NA,NA,NA,NA,NA,NA,NA,NA
"2876","flanker_instructions","13","html-keyboard-response","239","2121341","0.0-6.0-36.0","1","2020-1-6 11:45:1","ELEPHANT",NA,NA,NA,NA,NA,NA,NA,NA,NA,NA,NA,NA,NA,NA
NA,"flanker_test",NA,"image-keyboard-response","240","2123242","0.0-6.0-37.0-0.0","1","2020-1-6 11:45:1","ELEPHANT",NA,NA,NA,NA,NA,"incongruent","right","FALSE",NA,NA,NA,NA,NA,NA
"492","flanker_test","37","image-keyboard-response","241","2124652","0.0-6.0-37.0-0.1","1","2020-1-6 11:45:1","ELEPHANT",NA,NA,NA,NA,NA,"congruent","left","TRUE",NA,NA,NA,NA,NA,NA
"521","flanker_test","37","image-keyboard-response","242","2125716","0.0-6.0-37.0-0.2","1","2020-1-6 11:45:1","ELEPHANT",NA,NA,NA,NA,NA,"incongruent","left","TRUE",NA,NA,NA,NA,NA,NA
"516","flanker_test","39","image-keyboard-response","243","2126613","0.0-6.0-37.0-0.3","1","2020-1-6 11:45:1","ELEPHANT",NA,NA,NA,NA,NA,"congruent","right","TRUE",NA,NA,NA,NA,NA,NA
"23699","sort_trial",NA,"free-sort","244","2151050","0.0-6.0-38.0","1","2020-1-6 11:45:1","ELEPHANT",NA,NA,NA,NA,NA,NA,NA,NA,"[{""cat"":29,""src"":13,""x"":39,""y"":250},{""cat"":29,""src"":3,""x"":39,""y"":187},{""cat"":29,""src"":6,""x"":2,""y"":386},{""cat"":16,""src"":10,""x"":16,""y"":443},{""cat"":16,""src"":5,""x"":76,""y"":13},{""cat"":16,""src"":4,""x"":65,""y"":83},{""cat"":33,""src"":18,""x"":58,""y"":496},{""cat"":33,""src"":19,""x"":62,""y"":123},{""cat"":33,""src"":6,""x"":45,""y"":301}]","[{""cat"":""33"",""src"":""19"",""x"":0,""y"":0},{""cat"":""33"",""src"":""6"",""x"":0,""y"":0},{""cat"":""33"",""src"":""18"",""x"":0,""y"":0},{""cat"":""29"",""src"":""6"",""x"":0,""y"":0},{""cat"":""29"",""src"":""13"",""x"":0,""y"":0},{""cat"":""29"",""src"":""3"",""x"":0,""y"":0},{""cat"":""16"",""src"":""4"",""x"":0,""y"":0},{""cat"":""16"",""src"":""5"",""x"":0,""y"":0},{""cat"":""16"",""src"":""10"",""x"":0,""y"":0}]","[{""cat"":33,""src"":19,""loc"":1},{""cat"":33,""src"":6,""loc"":2},{""cat"":33,""src"":18,""loc"":0},{""cat"":29,""src"":6,""loc"":5},{""cat"":29,""src"":13,""loc"":4},{""cat"":29,""src"":3,""loc"":3},{""cat"":16,""src"":4,""loc"":7},{""cat"":16,""src"":5,""loc"":8},{""cat"":16,""src"":10,""loc"":6}]","9","33,33,33,29,29,29,16,16,16,18,19,6,3,13,6,10,4,5,0,1,2,3,4,5,6,7,8,2,0,1,5,4,3,8,6,7",NA
"1761","sort_feedback","32","html-keyboard-response","245","2152812","0.0-6.0-39.0","1","2020-1-6 11:45:1","ELEPHANT",NA,NA,NA,NA,NA,NA,NA,NA,NA,NA,NA,NA,NA,NA
"19912","setup5",NA,"animation","246","2172726","0.0-6.0-40.0","1","2020-1-6 11:45:1","ELEPHANT",NA,NA,"[{""cat"":6,""src"":16,""loc"":6},{""cat"":4,""src"":19,""loc"":4},{""cat"":13,""src"":2,""loc"":0},{""cat"":6,""src"":12,""loc"":1},{""cat"":4,""src"":7,""loc"":7},{""cat"":13,""src"":0,""loc"":3},{""cat"":4,""src"":1,""loc"":2},{""cat"":6,""src"":7,""loc"":5},{""cat"":13,""src"":4,""loc"":8}]","5","1102,1101,1101,1101,1101,1101,1102,1102,1100,10001",NA,NA,NA,NA,NA,NA,NA,NA,NA
"2519","flanker_instructions","13","html-keyboard-response","247","2175245","0.0-6.0-41.0","1","2020-1-6 11:45:1","ELEPHANT",NA,NA,NA,NA,NA,NA,NA,NA,NA,NA,NA,NA,NA,NA
"692","flanker_test","37","image-keyboard-response","248","2176941","0.0-6.0-42.0-0.0","1","2020-1-6 11:45:1","ELEPHANT",NA,NA,NA,NA,NA,"incongruent","left","TRUE",NA,NA,NA,NA,NA,NA
"376","flanker_test","37","image-keyboard-response","249","2177989","0.0-6.0-42.0-0.1","1","2020-1-6 11:45:1","ELEPHANT",NA,NA,NA,NA,NA,"congruent","left","TRUE",NA,NA,NA,NA,NA,NA
"439","flanker_test","39","image-keyboard-response","250","2179309","0.0-6.0-42.0-0.2","1","2020-1-6 11:45:1","ELEPHANT",NA,NA,NA,NA,NA,"congruent","right","TRUE",NA,NA,NA,NA,NA,NA
"732","flanker_test","39","image-keyboard-response","251","2181213","0.0-6.0-42.0-0.3","1","2020-1-6 11:45:1","ELEPHANT",NA,NA,NA,NA,NA,"incongruent","right","TRUE",NA,NA,NA,NA,NA,NA
"36282","sort_trial",NA,"free-sort","252","2218559","0.0-6.0-43.0","1","2020-1-6 11:45:1","ELEPHANT",NA,NA,NA,NA,NA,NA,NA,NA,"[{""cat"":6,""src"":16,""x"":7,""y"":19},{""cat"":4,""src"":19,""x"":75,""y"":249},{""cat"":13,""src"":2,""x"":7,""y"":365},{""cat"":6,""src"":12,""x"":1,""y"":80},{""cat"":4,""src"":7,""x"":4,""y"":184},{""cat"":13,""src"":0,""x"":51,""y"":492},{""cat"":4,""src"":1,""x"":56,""y"":309},{""cat"":6,""src"":7,""x"":72,""y"":445},{""cat"":13,""src"":4,""x"":81,""y"":134}]","[{""cat"":""13"",""src"":""0"",""x"":0,""y"":0},{""cat"":""4"",""src"":""19"",""x"":0,""y"":0},{""cat"":""4"",""src"":""7"",""x"":0,""y"":0},{""cat"":""6"",""src"":""7"",""x"":0,""y"":0},{""cat"":""4"",""src"":""1"",""x"":0,""y"":0},{""cat"":""13"",""src"":""2"",""x"":0,""y"":0},{""cat"":""6"",""src"":""16"",""x"":0,""y"":0},{""cat"":""6"",""src"":""12"",""x"":0,""y"":0},{""cat"":""13"",""src"":""4"",""x"":0,""y"":0}]","[{""cat"":13,""src"":0,""loc"":3},{""cat"":4,""src"":19,""loc"":4},{""cat"":4,""src"":7,""loc"":7},{""cat"":6,""src"":7,""loc"":5},{""cat"":4,""src"":1,""loc"":2},{""cat"":13,""src"":2,""loc"":6},{""cat"":6,""src"":16,""loc"":8},{""cat"":6,""src"":12,""loc"":0},{""cat"":13,""src"":4,""loc"":1}]","5","6,13,4,13,4,6,13,4,6,12,4,1,0,19,7,2,7,16,0,1,2,3,4,5,6,7,8,7,8,4,0,1,3,5,2,6",NA
"2221","sort_feedback","32","html-keyboard-response","253","2220781","0.0-6.0-44.0","1","2020-1-6 11:45:1","ELEPHANT",NA,NA,NA,NA,NA,NA,NA,NA,NA,NA,NA,NA,NA,NA
"19911","setup2",NA,"animation","254","2240692","0.0-6.0-45.0","1","2020-1-6 11:45:1","ELEPHANT",NA,NA,"[{""cat"":7,""src"":2,""loc"":8},{""cat"":16,""src"":18,""loc"":6},{""cat"":22,""src"":6,""loc"":7},{""cat"":22,""src"":17,""loc"":0},{""cat"":16,""src"":8,""loc"":1},{""cat"":7,""src"":17,""loc"":2},{""cat"":7,""src"":14,""loc"":3},{""cat"":16,""src"":19,""loc"":5},{""cat"":22,""src"":0,""loc"":4}]","2","1102,1101,1101,1101,1101,1101,1101,1101,1101,10001",NA,NA,NA,NA,NA,NA,NA,NA,NA
"1696","flanker_instructions","13","html-keyboard-response","255","2242389","0.0-6.0-46.0","1","2020-1-6 11:45:1","ELEPHANT",NA,NA,NA,NA,NA,NA,NA,NA,NA,NA,NA,NA,NA,NA
NA,"flanker_test",NA,"image-keyboard-response","256","2244292","0.0-6.0-47.0-0.0","1","2020-1-6 11:45:1","ELEPHANT",NA,NA,NA,NA,NA,"incongruent","left","FALSE",NA,NA,NA,NA,NA,NA
"536","flanker_test","39","image-keyboard-response","257","2245293","0.0-6.0-47.0-0.1","1","2020-1-6 11:45:1","ELEPHANT",NA,NA,NA,NA,NA,"congruent","right","TRUE",NA,NA,NA,NA,NA,NA
"737","flanker_test","39","image-keyboard-response","258","2246493","0.0-6.0-47.0-0.2","1","2020-1-6 11:45:1","ELEPHANT",NA,NA,NA,NA,NA,"incongruent","right","TRUE",NA,NA,NA,NA,NA,NA
"655","flanker_test","37","image-keyboard-response","259","2247637","0.0-6.0-47.0-0.3","1","2020-1-6 11:45:1","ELEPHANT",NA,NA,NA,NA,NA,"congruent","left","TRUE",NA,NA,NA,NA,NA,NA
"32041","sort_trial",NA,"free-sort","260","2280851","0.0-6.0-48.0","1","2020-1-6 11:45:1","ELEPHANT",NA,NA,NA,NA,NA,NA,NA,NA,"[{""cat"":7,""src"":2,""x"":26,""y"":362},{""cat"":16,""src"":18,""x"":13,""y"":16},{""cat"":22,""src"":6,""x"":26,""y"":307},{""cat"":22,""src"":17,""x"":70,""y"":205},{""cat"":16,""src"":8,""x"":60,""y"":74},{""cat"":7,""src"":17,""x"":5,""y"":131},{""cat"":7,""src"":14,""x"":70,""y"":257},{""cat"":16,""src"":19,""x"":51,""y"":420},{""cat"":22,""src"":0,""x"":21,""y"":479}]","[{""cat"":""16"",""src"":""19"",""x"":0,""y"":0},{""cat"":""22"",""src"":""0"",""x"":0,""y"":0},{""cat"":""7"",""src"":""14"",""x"":0,""y"":0},{""cat"":""16"",""src"":""8"",""x"":0,""y"":0},{""cat"":""7"",""src"":""17"",""x"":0,""y"":0},{""cat"":""22"",""src"":""17"",""x"":0,""y"":0},{""cat"":""16"",""src"":""18"",""x"":0,""y"":0},{""cat"":""7"",""src"":""2"",""x"":0,""y"":0},{""cat"":""22"",""src"":""6"",""x"":0,""y"":0}]","[{""cat"":16,""src"":19,""loc"":5},{""cat"":22,""src"":0,""loc"":3},{""cat"":7,""src"":14,""loc"":4},{""cat"":16,""src"":8,""loc"":1},{""cat"":7,""src"":17,""loc"":2},{""cat"":22,""src"":17,""loc"":0},{""cat"":16,""src"":18,""loc"":7},{""cat"":7,""src"":2,""loc"":6},{""cat"":22,""src"":6,""loc"":8}]","4","22,16,7,22,7,16,7,16,22,17,8,17,0,14,19,2,18,6,0,1,2,3,4,5,6,7,8,5,3,4,1,2,0,7,6,8",NA
"1824","sort_feedback","32","html-keyboard-response","261","2282677","0.0-6.0-49.0","1","2020-1-6 11:45:1","ELEPHANT",NA,NA,NA,NA,NA,NA,NA,NA,NA,NA,NA,NA,NA,NA
"2750","demographics",NA,"html-button-response","262","2285427","0.0-7.0-0.0","1","2020-1-6 11:45:1","ELEPHANT","0",NA,NA,NA,NA,NA,NA,NA,NA,NA,NA,NA,NA,NA
"10181","workerID",NA,"survey-text","263","2295609","0.0-7.0-1.0","1","2020-1-6 11:45:1","ELEPHANT",NA,NA,NA,NA,NA,NA,NA,NA,NA,NA,NA,NA,NA,"{""Q0"":""A2APG8MSLJ6G2K""}"
"4161","attn_check",NA,"survey-multi-choice","264","2299773","0.0-7.0-2.0","1","2020-1-6 11:45:1","ELEPHANT",NA,NA,NA,NA,NA,NA,NA,NA,NA,NA,NA,NA,NA,"{""Q0"":""ELEPHANT""}"
"3758","age",NA,"survey-text","265","2303543","0.0-7.0-3.0","1","2020-1-6 11:45:1","ELEPHANT",NA,NA,NA,NA,NA,NA,NA,NA,NA,NA,NA,NA,NA,"{""Q0"":""69""}"
"2509","gender",NA,"survey-multi-choice","266","2306053","0.0-7.0-4.0","1","2020-1-6 11:45:1","ELEPHANT",NA,NA,NA,NA,NA,NA,NA,NA,NA,NA,NA,NA,NA,"{""Q0"":""Female""}"
"2353","ethnic",NA,"survey-multi-choice","267","2308417","0.0-7.0-5.0","1","2020-1-6 11:45:1","ELEPHANT",NA,NA,NA,NA,NA,NA,NA,NA,NA,NA,NA,NA,NA,"{""Q0"":""Not Hispanic or Latino""}"
"2908","race",NA,"survey-multi-select","268","2311338","0.0-7.0-6.0","1","2020-1-6 11:45:1","ELEPHANT",NA,NA,NA,NA,NA,NA,NA,NA,NA,NA,NA,NA,NA,"{""Q0"":[""White""]}"
"2474","english",NA,"survey-multi-choice","269","2313823","0.0-7.0-7.0","1","2020-1-6 11:45:1","ELEPHANT",NA,NA,NA,NA,NA,NA,NA,NA,NA,NA,NA,NA,NA,"{""Q0"":""Yes""}"
"3313","understand",NA,"survey-multi-choice","270","2317147","0.0-7.0-8.0","1","2020-1-6 11:45:1","ELEPHANT",NA,NA,NA,NA,NA,NA,NA,NA,NA,NA,NA,NA,NA,"{""Q0"":""No""}"
"57137","strategies",NA,"survey-text","271","2374295","0.0-7.0-9.0","1","2020-1-6 11:45:1","ELEPHANT",NA,NA,NA,NA,NA,NA,NA,NA,NA,NA,NA,NA,NA,"{""Q0"":""Remembered one room and top of others, then tried to put the words I didnt remember in rooms in same way as the room I remember. Does that make sense?""}"
"10079","comments",NA,"survey-text","272","2384375","0.0-7.0-10.0","1","2020-1-6 11:45:1","ELEPHANT",NA,NA,NA,NA,NA,NA,NA,NA,NA,NA,NA,NA,NA,"{""Q0"":""none. thank you.""}"
"2993","study_end",NA,"html-button-response","273","2387370","0.0-8.0","1","2020-1-6 11:45:1","ELEPHANT","0",NA,NA,NA,NA,NA,NA,NA,NA,NA,NA,NA,NA,NA
