"rt","stimulus","key_press","trial_type","trial_index","time_elapsed","internal_node_id","session","startTime","attn_word","button_pressed","view_history","animation_sequence","condition","time_sequence","stim_type","direction","correct","init_locations","moves","final_locations","sort_correct","finalLocations","responses"
"7508","welcome","32","html-keyboard-response","0","7523","0.0-0.0","1","2020-1-6 9:5:43","SHEEP",NA,NA,NA,NA,NA,NA,NA,NA,NA,NA,NA,NA,NA,NA
"314014","consent",NA,"html-button-response","1","321552","0.0-1.0","1","2020-1-6 9:5:43","SHEEP","0",NA,NA,NA,NA,NA,NA,NA,NA,NA,NA,NA,NA,NA
"82711","instructions",NA,"instructions","2","404268","0.0-2.0","1","2020-1-6 9:5:43","SHEEP",NA,"[{""page_index"":0,""viewing_time"":9159},{""page_index"":1,""viewing_time"":7366},{""page_index"":2,""viewing_time"":7271},{""page_index"":3,""viewing_time"":29933},{""page_index"":4,""viewing_time"":6364},{""page_index"":5,""viewing_time"":17642},{""page_index"":6,""viewing_time"":4974}]",NA,NA,NA,NA,NA,NA,NA,NA,NA,NA,NA,NA
"19943","setup5",NA,"animation","3","424218","0.0-3.0-0.0","1","2020-1-6 9:5:43","SHEEP",NA,NA,"[{""cat"":8,""src"":12,""loc"":5},{""cat"":17,""src"":15,""loc"":7},{""cat"":20,""src"":6,""loc"":1},{""cat"":8,""src"":0,""loc"":2},{""cat"":20,""src"":8,""loc"":8},{""cat"":17,""src"":1,""loc"":3},{""cat"":20,""src"":16,""loc"":4},{""cat"":8,""src"":3,""loc"":6},{""cat"":17,""src"":6,""loc"":0}]","5","1113,1102,1104,1104,1104,1104,1103,1103,1103,10003",NA,NA,NA,NA,NA,NA,NA,NA,NA
"8091","flanker_instructions","32","html-keyboard-response","4","432313","0.0-3.0-1.0","1","2020-1-6 9:5:43","SHEEP",NA,NA,NA,NA,NA,NA,NA,NA,NA,NA,NA,NA,NA,NA
NA,"flanker_test",NA,"image-keyboard-response","5","434224","0.0-3.0-2.0-0.0","1","2020-1-6 9:5:43","SHEEP",NA,NA,NA,NA,NA,"incongruent","left","FALSE",NA,NA,NA,NA,NA,NA
NA,"flanker_test",NA,"image-keyboard-response","6","435566","0.0-3.0-2.0-0.1","1","2020-1-6 9:5:43","SHEEP",NA,NA,NA,NA,NA,"incongruent","right","FALSE",NA,NA,NA,NA,NA,NA
NA,"flanker_test",NA,"image-keyboard-response","7","437138","0.0-3.0-2.0-0.2","1","2020-1-6 9:5:43","SHEEP",NA,NA,NA,NA,NA,"congruent","right","FALSE",NA,NA,NA,NA,NA,NA
NA,"flanker_test",NA,"image-keyboard-response","8","438930","0.0-3.0-2.0-0.3","1","2020-1-6 9:5:43","SHEEP",NA,NA,NA,NA,NA,"congruent","left","FALSE",NA,NA,NA,NA,NA,NA
"55489","sort_trial",NA,"free-sort","9","495477","0.0-3.0-3.0","1","2020-1-6 9:5:43","SHEEP",NA,NA,NA,NA,NA,NA,NA,NA,"[{""cat"":8,""src"":12,""x"":59,""y"":371},{""cat"":17,""src"":15,""x"":23,""y"":437},{""cat"":20,""src"":6,""x"":70,""y"":307},{""cat"":8,""src"":0,""x"":28,""y"":180},{""cat"":20,""src"":8,""x"":37,""y"":259},{""cat"":17,""src"":1,""x"":9,""y"":138},{""cat"":20,""src"":16,""x"":32,""y"":25},{""cat"":8,""src"":3,""x"":5,""y"":488},{""cat"":17,""src"":6,""x"":35,""y"":73}]","[{""cat"":""20"",""src"":""8"",""x"":0,""y"":0},{""cat"":""17"",""src"":""15"",""x"":0,""y"":0},{""cat"":""8"",""src"":""12"",""x"":0,""y"":0},{""cat"":""17"",""src"":""6"",""x"":0,""y"":0},{""cat"":""8"",""src"":""0"",""x"":0,""y"":0},{""cat"":""17"",""src"":""1"",""x"":0,""y"":0},{""cat"":""20"",""src"":""16"",""x"":0,""y"":0},{""cat"":""20"",""src"":""6"",""x"":0,""y"":0},{""cat"":""8"",""src"":""3"",""x"":0,""y"":0}]","[{""cat"":20,""src"":8,""loc"":8},{""cat"":17,""src"":15,""loc"":7},{""cat"":8,""src"":12,""loc"":5},{""cat"":17,""src"":6,""loc"":0},{""cat"":8,""src"":0,""loc"":3},{""cat"":17,""src"":1,""loc"":1},{""cat"":20,""src"":16,""loc"":4},{""cat"":20,""src"":6,""loc"":6},{""cat"":8,""src"":3,""loc"":2}]","5","17,17,8,8,20,8,20,17,20,6,1,3,0,16,12,6,15,8,0,1,2,3,4,5,6,7,8,3,5,8,4,6,2,7,1,0",NA
"5430","sort_feedback","32","html-keyboard-response","10","500913","0.0-3.0-4.0","1","2020-1-6 9:5:43","SHEEP",NA,NA,NA,NA,NA,NA,NA,NA,NA,NA,NA,NA,NA,NA
"19956","setup5",NA,"animation","11","520872","0.0-3.0-5.0","1","2020-1-6 9:5:43","SHEEP",NA,NA,"[{""cat"":32,""src"":13,""loc"":1},{""cat"":13,""src"":5,""loc"":7},{""cat"":7,""src"":10,""loc"":4},{""cat"":7,""src"":9,""loc"":0},{""cat"":32,""src"":12,""loc"":6},{""cat"":13,""src"":17,""loc"":5},{""cat"":32,""src"":11,""loc"":3},{""cat"":13,""src"":10,""loc"":2},{""cat"":7,""src"":15,""loc"":8}]","5","1106,1103,1103,1103,1104,1104,1105,1104,1105,10018",NA,NA,NA,NA,NA,NA,NA,NA,NA
"16252","flanker_instructions","37","html-keyboard-response","12","537128","0.0-3.0-6.0","1","2020-1-6 9:5:43","SHEEP",NA,NA,NA,NA,NA,NA,NA,NA,NA,NA,NA,NA,NA,NA
NA,"flanker_test",NA,"image-keyboard-response","13","539036","0.0-3.0-7.0-0.0","1","2020-1-6 9:5:43","SHEEP",NA,NA,NA,NA,NA,"congruent","left","FALSE",NA,NA,NA,NA,NA,NA
"715","flanker_test","39","image-keyboard-response","14","540593","0.0-3.0-7.0-0.1","1","2020-1-6 9:5:43","SHEEP",NA,NA,NA,NA,NA,"congruent","right","TRUE",NA,NA,NA,NA,NA,NA
NA,"flanker_test",NA,"image-keyboard-response","15","542430","0.0-3.0-7.0-0.2","1","2020-1-6 9:5:43","SHEEP",NA,NA,NA,NA,NA,"incongruent","left","FALSE",NA,NA,NA,NA,NA,NA
"762","flanker_test","39","image-keyboard-response","16","544355","0.0-3.0-7.0-0.3","1","2020-1-6 9:5:43","SHEEP",NA,NA,NA,NA,NA,"incongruent","right","TRUE",NA,NA,NA,NA,NA,NA
"54341","sort_trial",NA,"free-sort","17","599681","0.0-3.0-8.0","1","2020-1-6 9:5:43","SHEEP",NA,NA,NA,NA,NA,NA,NA,NA,"[{""cat"":32,""src"":13,""x"":13,""y"":146},{""cat"":13,""src"":5,""x"":77,""y"":12},{""cat"":7,""src"":10,""x"":7,""y"":426},{""cat"":7,""src"":9,""x"":75,""y"":376},{""cat"":32,""src"":12,""x"":23,""y"":62},{""cat"":13,""src"":17,""x"":27,""y"":252},{""cat"":32,""src"":11,""x"":82,""y"":483},{""cat"":13,""src"":10,""x"":18,""y"":199},{""cat"":7,""src"":15,""x"":18,""y"":299}]","[{""cat"":""32"",""src"":""11"",""x"":0,""y"":0},{""cat"":""7"",""src"":""10"",""x"":0,""y"":0},{""cat"":""13"",""src"":""5"",""x"":0,""y"":0},{""cat"":""13"",""src"":""10"",""x"":0,""y"":0},{""cat"":""13"",""src"":""17"",""x"":0,""y"":0},{""cat"":""32"",""src"":""13"",""x"":0,""y"":0},{""cat"":""7"",""src"":""15"",""x"":0,""y"":0},{""cat"":""32"",""src"":""12"",""x"":0,""y"":0},{""cat"":""7"",""src"":""9"",""x"":0,""y"":0}]","[{""cat"":32,""src"":11,""loc"":3},{""cat"":7,""src"":10,""loc"":4},{""cat"":13,""src"":5,""loc"":7},{""cat"":13,""src"":10,""loc"":2},{""cat"":13,""src"":17,""loc"":5},{""cat"":32,""src"":13,""loc"":8},{""cat"":7,""src"":15,""loc"":1},{""cat"":32,""src"":12,""loc"":0},{""cat"":7,""src"":9,""loc"":6}]","5","32,7,13,32,7,13,7,13,32,12,15,10,11,10,17,9,5,13,0,1,2,3,4,5,6,7,8,7,6,3,0,1,4,8,2,5",NA
"3893","sort_feedback","32","html-keyboard-response","18","603580","0.0-3.0-9.0","1","2020-1-6 9:5:43","SHEEP",NA,NA,NA,NA,NA,NA,NA,NA,NA,NA,NA,NA,NA,NA
"5349","finalInstructions",NA,"html-button-response","19","608934","0.0-4.0-0.0","1","2020-1-6 9:5:43","SHEEP","0",NA,NA,NA,NA,NA,NA,NA,NA,NA,NA,NA,NA,NA
"19945","setup1",NA,"animation","20","628882","0.0-4.0-1.0","1","2020-1-6 9:5:43","SHEEP",NA,NA,"[{""cat"":15,""src"":16,""loc"":2},{""cat"":15,""src"":5,""loc"":0},{""cat"":15,""src"":10,""loc"":1},{""cat"":5,""src"":2,""loc"":3},{""cat"":5,""src"":15,""loc"":4},{""cat"":5,""src"":12,""loc"":5},{""cat"":3,""src"":11,""loc"":7},{""cat"":3,""src"":8,""loc"":8},{""cat"":3,""src"":4,""loc"":6}]","1","1106,1104,1102,1104,1111,1105,1103,1104,1105,10001",NA,NA,NA,NA,NA,NA,NA,NA,NA
"7814","flanker_instructions","37","html-keyboard-response","21","636700","0.0-4.0-2.0","1","2020-1-6 9:5:43","SHEEP",NA,NA,NA,NA,NA,NA,NA,NA,NA,NA,NA,NA,NA,NA
NA,"flanker_test",NA,"image-keyboard-response","22","638608","0.0-4.0-3.0-0.0","1","2020-1-6 9:5:43","SHEEP",NA,NA,NA,NA,NA,"congruent","left","FALSE",NA,NA,NA,NA,NA,NA
NA,"flanker_test",NA,"image-keyboard-response","23","640433","0.0-4.0-3.0-0.1","1","2020-1-6 9:5:43","SHEEP",NA,NA,NA,NA,NA,"incongruent","left","FALSE",NA,NA,NA,NA,NA,NA
"704","flanker_test","39","image-keyboard-response","24","642246","0.0-4.0-3.0-0.2","1","2020-1-6 9:5:43","SHEEP",NA,NA,NA,NA,NA,"incongruent","right","TRUE",NA,NA,NA,NA,NA,NA
"611","flanker_test","39","image-keyboard-response","25","643795","0.0-4.0-3.0-0.3","1","2020-1-6 9:5:43","SHEEP",NA,NA,NA,NA,NA,"congruent","right","TRUE",NA,NA,NA,NA,NA,NA
"36519","sort_trial",NA,"free-sort","26","681446","0.0-4.0-4.0","1","2020-1-6 9:5:43","SHEEP",NA,NA,NA,NA,NA,NA,NA,NA,"[{""cat"":15,""src"":16,""x"":64,""y"":370},{""cat"":15,""src"":5,""x"":21,""y"":61},{""cat"":15,""src"":10,""x"":65,""y"":124},{""cat"":5,""src"":2,""x"":56,""y"":501},{""cat"":5,""src"":15,""x"":31,""y"":423},{""cat"":5,""src"":12,""x"":61,""y"":201},{""cat"":3,""src"":11,""x"":74,""y"":312},{""cat"":3,""src"":8,""x"":62,""y"":9},{""cat"":3,""src"":4,""x"":42,""y"":247}]","[{""cat"":""5"",""src"":""12"",""x"":0,""y"":0},{""cat"":""5"",""src"":""15"",""x"":0,""y"":0},{""cat"":""5"",""src"":""2"",""x"":0,""y"":0},{""cat"":""3"",""src"":""4"",""x"":0,""y"":0},{""cat"":""3"",""src"":""8"",""x"":0,""y"":0},{""cat"":""3"",""src"":""11"",""x"":0,""y"":0},{""cat"":""15"",""src"":""16"",""x"":0,""y"":0},{""cat"":""15"",""src"":""10"",""x"":0,""y"":0},{""cat"":""15"",""src"":""5"",""x"":0,""y"":0}]","[{""cat"":5,""src"":12,""loc"":5},{""cat"":5,""src"":15,""loc"":4},{""cat"":5,""src"":2,""loc"":3},{""cat"":3,""src"":4,""loc"":6},{""cat"":3,""src"":8,""loc"":7},{""cat"":3,""src"":11,""loc"":8},{""cat"":15,""src"":16,""loc"":0},{""cat"":15,""src"":10,""loc"":2},{""cat"":15,""src"":5,""loc"":1}]","4","15,15,15,5,5,5,3,3,3,16,5,10,2,15,12,4,8,11,0,1,2,3,4,5,6,7,8,6,8,7,2,1,0,3,4,5",NA
"6731","sort_feedback","32","html-keyboard-response","27","688181","0.0-4.0-5.0","1","2020-1-6 9:5:43","SHEEP",NA,NA,NA,NA,NA,NA,NA,NA,NA,NA,NA,NA,NA,NA
"19936","setup4",NA,"animation","28","708121","0.0-4.0-6.0","1","2020-1-6 9:5:43","SHEEP",NA,NA,"[{""cat"":10,""src"":8,""loc"":7},{""cat"":10,""src"":17,""loc"":5},{""cat"":10,""src"":10,""loc"":1},{""cat"":0,""src"":9,""loc"":8},{""cat"":0,""src"":6,""loc"":4},{""cat"":0,""src"":11,""loc"":0},{""cat"":11,""src"":16,""loc"":3},{""cat"":11,""src"":2,""loc"":2},{""cat"":11,""src"":15,""loc"":6}]","4","1104,1103,1104,1104,1104,1103,1104,1104,1104,10002",NA,NA,NA,NA,NA,NA,NA,NA,NA
"2813","flanker_instructions","39","html-keyboard-response","29","710939","0.0-4.0-7.0","1","2020-1-6 9:5:43","SHEEP",NA,NA,NA,NA,NA,NA,NA,NA,NA,NA,NA,NA,NA,NA
"721","flanker_test","37","image-keyboard-response","30","712666","0.0-4.0-8.0-0.0","1","2020-1-6 9:5:43","SHEEP",NA,NA,NA,NA,NA,"congruent","left","TRUE",NA,NA,NA,NA,NA,NA
"894","flanker_test","37","image-keyboard-response","31","714211","0.0-4.0-8.0-0.1","1","2020-1-6 9:5:43","SHEEP",NA,NA,NA,NA,NA,"incongruent","left","TRUE",NA,NA,NA,NA,NA,NA
"736","flanker_test","39","image-keyboard-response","32","715912","0.0-4.0-8.0-0.2","1","2020-1-6 9:5:43","SHEEP",NA,NA,NA,NA,NA,"incongruent","right","TRUE",NA,NA,NA,NA,NA,NA
"583","flanker_test","39","image-keyboard-response","33","717123","0.0-4.0-8.0-0.3","1","2020-1-6 9:5:43","SHEEP",NA,NA,NA,NA,NA,"congruent","right","TRUE",NA,NA,NA,NA,NA,NA
"37521","sort_trial",NA,"free-sort","34","755425","0.0-4.0-9.0","1","2020-1-6 9:5:43","SHEEP",NA,NA,NA,NA,NA,NA,NA,NA,"[{""cat"":10,""src"":8,""x"":63,""y"":21},{""cat"":10,""src"":17,""x"":61,""y"":377},{""cat"":10,""src"":10,""x"":39,""y"":483},{""cat"":0,""src"":9,""x"":4,""y"":63},{""cat"":0,""src"":6,""x"":19,""y"":260},{""cat"":0,""src"":11,""x"":56,""y"":310},{""cat"":11,""src"":16,""x"":45,""y"":180},{""cat"":11,""src"":2,""x"":34,""y"":148},{""cat"":11,""src"":15,""x"":46,""y"":434}]","[{""cat"":""11"",""src"":""16"",""x"":0,""y"":0},{""cat"":""11"",""src"":""2"",""x"":0,""y"":0},{""cat"":""0"",""src"":""9"",""x"":0,""y"":0},{""cat"":""10"",""src"":""17"",""x"":0,""y"":0},{""cat"":""10"",""src"":""10"",""x"":0,""y"":0},{""cat"":""11"",""src"":""15"",""x"":0,""y"":0},{""cat"":""0"",""src"":""6"",""x"":0,""y"":0},{""cat"":""10"",""src"":""8"",""x"":0,""y"":0},{""cat"":""0"",""src"":""11"",""x"":0,""y"":0}]","[{""cat"":11,""src"":16,""loc"":3},{""cat"":11,""src"":2,""loc"":2},{""cat"":0,""src"":9,""loc"":8},{""cat"":10,""src"":17,""loc"":6},{""cat"":10,""src"":10,""loc"":5},{""cat"":11,""src"":15,""loc"":7},{""cat"":0,""src"":6,""loc"":4},{""cat"":10,""src"":8,""loc"":1},{""cat"":0,""src"":11,""loc"":0}]","5","0,10,11,11,0,10,10,11,0,11,8,2,16,6,10,17,15,9,0,1,2,3,4,5,6,7,8,8,7,1,0,6,4,3,5,2",NA
"3086","sort_feedback","32","html-keyboard-response","35","758515","0.0-4.0-10.0","1","2020-1-6 9:5:43","SHEEP",NA,NA,NA,NA,NA,NA,NA,NA,NA,NA,NA,NA,NA,NA
"19938","setup5",NA,"animation","36","778456","0.0-4.0-11.0","1","2020-1-6 9:5:43","SHEEP",NA,NA,"[{""cat"":5,""src"":8,""loc"":4},{""cat"":30,""src"":16,""loc"":6},{""cat"":3,""src"":7,""loc"":0},{""cat"":5,""src"":12,""loc"":2},{""cat"":3,""src"":19,""loc"":7},{""cat"":30,""src"":9,""loc"":3},{""cat"":5,""src"":3,""loc"":8},{""cat"":3,""src"":14,""loc"":5},{""cat"":30,""src"":4,""loc"":1}]","5","1107,1104,1103,1104,1105,1103,1102,1104,1104,10002",NA,NA,NA,NA,NA,NA,NA,NA,NA
"2339","flanker_instructions","37","html-keyboard-response","37","780798","0.0-4.0-12.0","1","2020-1-6 9:5:43","SHEEP",NA,NA,NA,NA,NA,NA,NA,NA,NA,NA,NA,NA,NA,NA
NA,"flanker_test",NA,"image-keyboard-response","38","782704","0.0-4.0-13.0-0.0","1","2020-1-6 9:5:43","SHEEP",NA,NA,NA,NA,NA,"incongruent","right","FALSE",NA,NA,NA,NA,NA,NA
"579","flanker_test","39","image-keyboard-response","39","784028","0.0-4.0-13.0-0.1","1","2020-1-6 9:5:43","SHEEP",NA,NA,NA,NA,NA,"congruent","right","TRUE",NA,NA,NA,NA,NA,NA
"706","flanker_test","37","image-keyboard-response","40","785840","0.0-4.0-13.0-0.2","1","2020-1-6 9:5:43","SHEEP",NA,NA,NA,NA,NA,"congruent","left","TRUE",NA,NA,NA,NA,NA,NA
"848","flanker_test","37","image-keyboard-response","41","787002","0.0-4.0-13.0-0.3","1","2020-1-6 9:5:43","SHEEP",NA,NA,NA,NA,NA,"incongruent","left","TRUE",NA,NA,NA,NA,NA,NA
"42721","sort_trial",NA,"free-sort","42","830262","0.0-4.0-14.0","1","2020-1-6 9:5:43","SHEEP",NA,NA,NA,NA,NA,NA,NA,NA,"[{""cat"":5,""src"":8,""x"":38,""y"":209},{""cat"":30,""src"":16,""x"":46,""y"":429},{""cat"":3,""src"":7,""x"":20,""y"":302},{""cat"":5,""src"":12,""x"":75,""y"":129},{""cat"":3,""src"":19,""x"":15,""y"":508},{""cat"":30,""src"":9,""x"":32,""y"":87},{""cat"":5,""src"":3,""x"":62,""y"":21},{""cat"":3,""src"":14,""x"":38,""y"":261},{""cat"":30,""src"":4,""x"":20,""y"":361}]","[{""cat"":""30"",""src"":""16"",""x"":0,""y"":0},{""cat"":""5"",""src"":""12"",""x"":0,""y"":0},{""cat"":""3"",""src"":""7"",""x"":0,""y"":0},{""cat"":""3"",""src"":""14"",""x"":0,""y"":0},{""cat"":""3"",""src"":""19"",""x"":0,""y"":0},{""cat"":""30"",""src"":""4"",""x"":744,""y"":253},{""cat"":""30"",""src"":""4"",""x"":0,""y"":0},{""cat"":""30"",""src"":""9"",""x"":0,""y"":0},{""cat"":""5"",""src"":""3"",""x"":0,""y"":0},{""cat"":""5"",""src"":""8"",""x"":0,""y"":0}]","[{""cat"":30,""src"":16,""loc"":6},{""cat"":5,""src"":12,""loc"":4},{""cat"":3,""src"":7,""loc"":2},{""cat"":3,""src"":14,""loc"":5},{""cat"":3,""src"":19,""loc"":7},{""cat"":30,""src"":4,""loc"":3},{""cat"":30,""src"":9,""loc"":1},{""cat"":5,""src"":3,""loc"":8},{""cat"":5,""src"":8,""loc"":0}]","4","5,30,3,30,5,3,30,3,5,8,9,7,4,12,14,16,19,3,0,1,2,3,4,5,6,7,8,8,6,2,5,1,3,0,4,7",NA
"3625","sort_feedback","32","html-keyboard-response","43","833891","0.0-4.0-15.0","1","2020-1-6 9:5:43","SHEEP",NA,NA,NA,NA,NA,NA,NA,NA,NA,NA,NA,NA,NA,NA
"19941","setup2",NA,"animation","44","853834","0.0-4.0-16.0","1","2020-1-6 9:5:43","SHEEP",NA,NA,"[{""cat"":5,""src"":12,""loc"":5},{""cat"":16,""src"":5,""loc"":3},{""cat"":22,""src"":0,""loc"":4},{""cat"":5,""src"":11,""loc"":1},{""cat"":22,""src"":19,""loc"":2},{""cat"":16,""src"":2,""loc"":0},{""cat"":5,""src"":17,""loc"":7},{""cat"":16,""src"":13,""loc"":8},{""cat"":22,""src"":8,""loc"":6}]","2","1106,1103,1103,1103,1105,1103,1104,1105,1104,10004",NA,NA,NA,NA,NA,NA,NA,NA,NA
"1740","flanker_instructions","37","html-keyboard-response","45","855578","0.0-4.0-17.0","1","2020-1-6 9:5:43","SHEEP",NA,NA,NA,NA,NA,NA,NA,NA,NA,NA,NA,NA,NA,NA
NA,"flanker_test",NA,"image-keyboard-response","46","857484","0.0-4.0-18.0-0.0","1","2020-1-6 9:5:43","SHEEP",NA,NA,NA,NA,NA,"incongruent","right","FALSE",NA,NA,NA,NA,NA,NA
"680","flanker_test","37","image-keyboard-response","47","859282","0.0-4.0-18.0-0.1","1","2020-1-6 9:5:43","SHEEP",NA,NA,NA,NA,NA,"congruent","left","TRUE",NA,NA,NA,NA,NA,NA
"826","flanker_test","37","image-keyboard-response","48","860451","0.0-4.0-18.0-0.2","1","2020-1-6 9:5:43","SHEEP",NA,NA,NA,NA,NA,"incongruent","left","TRUE",NA,NA,NA,NA,NA,NA
"625","flanker_test","39","image-keyboard-response","49","862277","0.0-4.0-18.0-0.3","1","2020-1-6 9:5:43","SHEEP",NA,NA,NA,NA,NA,"congruent","right","TRUE",NA,NA,NA,NA,NA,NA
"36510","sort_trial",NA,"free-sort","50","899697","0.0-4.0-19.0","1","2020-1-6 9:5:43","SHEEP",NA,NA,NA,NA,NA,NA,NA,NA,"[{""cat"":5,""src"":12,""x"":65,""y"":142},{""cat"":16,""src"":5,""x"":21,""y"":28},{""cat"":22,""src"":0,""x"":62,""y"":264},{""cat"":5,""src"":11,""x"":8,""y"":70},{""cat"":22,""src"":19,""x"":60,""y"":304},{""cat"":16,""src"":2,""x"":27,""y"":446},{""cat"":5,""src"":17,""x"":39,""y"":383},{""cat"":16,""src"":13,""x"":61,""y"":204},{""cat"":22,""src"":8,""x"":28,""y"":506}]","[{""cat"":""22"",""src"":""19"",""x"":0,""y"":0},{""cat"":""22"",""src"":""0"",""x"":0,""y"":0},{""cat"":""5"",""src"":""11"",""x"":0,""y"":0},{""cat"":""16"",""src"":""5"",""x"":0,""y"":0},{""cat"":""16"",""src"":""13"",""x"":61,""y"":204},{""cat"":""16"",""src"":""2"",""x"":0,""y"":0},{""cat"":""5"",""src"":""12"",""x"":0,""y"":0},{""cat"":""16"",""src"":""13"",""x"":61,""y"":204},{""cat"":""22"",""src"":""8"",""x"":0,""y"":0},{""cat"":""5"",""src"":""17"",""x"":0,""y"":0},{""cat"":""16"",""src"":""13"",""x"":0,""y"":0}]","[{""cat"":22,""src"":19,""loc"":2},{""cat"":22,""src"":0,""loc"":4},{""cat"":5,""src"":11,""loc"":1},{""cat"":16,""src"":5,""loc"":3},{""cat"":16,""src"":2,""loc"":7},{""cat"":5,""src"":12,""loc"":0},{""cat"":22,""src"":8,""loc"":6},{""cat"":5,""src"":17,""loc"":8},{""cat"":16,""src"":13,""loc"":5}]","5","5,5,22,16,22,16,22,16,5,12,11,19,5,0,13,8,2,17,0,1,2,3,4,5,6,7,8,5,2,0,3,1,8,6,4,7",NA
"3698","sort_feedback","32","html-keyboard-response","51","903400","0.0-4.0-20.0","1","2020-1-6 9:5:43","SHEEP",NA,NA,NA,NA,NA,NA,NA,NA,NA,NA,NA,NA,NA,NA
"19935","setup3",NA,"animation","52","923339","0.0-4.0-21.0","1","2020-1-6 9:5:43","SHEEP",NA,NA,"[{""cat"":31,""src"":8,""loc"":4},{""cat"":15,""src"":0,""loc"":7},{""cat"":28,""src"":15,""loc"":2},{""cat"":31,""src"":1,""loc"":5},{""cat"":28,""src"":11,""loc"":1},{""cat"":15,""src"":12,""loc"":8},{""cat"":31,""src"":11,""loc"":3},{""cat"":28,""src"":7,""loc"":0},{""cat"":15,""src"":15,""loc"":6}]","3","1106,1104,1104,1104,1102,1104,1103,1103,1104,10001",NA,NA,NA,NA,NA,NA,NA,NA,NA
"1706","flanker_instructions","37","html-keyboard-response","53","925050","0.0-4.0-22.0","1","2020-1-6 9:5:43","SHEEP",NA,NA,NA,NA,NA,NA,NA,NA,NA,NA,NA,NA,NA,NA
"711","flanker_test","39","image-keyboard-response","54","926767","0.0-4.0-23.0-0.0","1","2020-1-6 9:5:43","SHEEP",NA,NA,NA,NA,NA,"congruent","right","TRUE",NA,NA,NA,NA,NA,NA
"668","flanker_test","37","image-keyboard-response","55","928586","0.0-4.0-23.0-0.1","1","2020-1-6 9:5:43","SHEEP",NA,NA,NA,NA,NA,"incongruent","left","TRUE",NA,NA,NA,NA,NA,NA
"834","flanker_test","39","image-keyboard-response","56","929871","0.0-4.0-23.0-0.2","1","2020-1-6 9:5:43","SHEEP",NA,NA,NA,NA,NA,"incongruent","right","TRUE",NA,NA,NA,NA,NA,NA
"675","flanker_test","37","image-keyboard-response","57","931307","0.0-4.0-23.0-0.3","1","2020-1-6 9:5:43","SHEEP",NA,NA,NA,NA,NA,"congruent","left","TRUE",NA,NA,NA,NA,NA,NA
"36087","sort_trial",NA,"free-sort","58","967727","0.0-4.0-24.0","1","2020-1-6 9:5:43","SHEEP",NA,NA,NA,NA,NA,NA,NA,NA,"[{""cat"":31,""src"":8,""x"":32,""y"":144},{""cat"":15,""src"":0,""x"":66,""y"":323},{""cat"":28,""src"":15,""x"":40,""y"":259},{""cat"":31,""src"":1,""x"":61,""y"":428},{""cat"":28,""src"":11,""x"":56,""y"":497},{""cat"":15,""src"":12,""x"":80,""y"":384},{""cat"":31,""src"":11,""x"":18,""y"":88},{""cat"":28,""src"":7,""x"":36,""y"":196},{""cat"":15,""src"":15,""x"":34,""y"":24}]","[{""cat"":""31"",""src"":""1"",""x"":0,""y"":0},{""cat"":""31"",""src"":""8"",""x"":0,""y"":0},{""cat"":""31"",""src"":""11"",""x"":0,""y"":0},{""cat"":""15"",""src"":""12"",""x"":0,""y"":0},{""cat"":""28"",""src"":""15"",""x"":0,""y"":0},{""cat"":""28"",""src"":""11"",""x"":0,""y"":0},{""cat"":""28"",""src"":""7"",""x"":0,""y"":0},{""cat"":""15"",""src"":""15"",""x"":0,""y"":0},{""cat"":""15"",""src"":""0"",""x"":0,""y"":0}]","[{""cat"":31,""src"":1,""loc"":5},{""cat"":31,""src"":8,""loc"":4},{""cat"":31,""src"":11,""loc"":3},{""cat"":15,""src"":12,""loc"":8},{""cat"":28,""src"":15,""loc"":2},{""cat"":28,""src"":11,""loc"":1},{""cat"":28,""src"":7,""loc"":0},{""cat"":15,""src"":15,""loc"":6},{""cat"":15,""src"":0,""loc"":7}]","9","28,28,28,31,31,31,15,15,15,7,11,15,11,8,1,15,0,12,0,1,2,3,4,5,6,7,8,6,5,4,2,1,0,7,8,3",NA
"4048","sort_feedback","32","html-keyboard-response","59","971779","0.0-4.0-25.0","1","2020-1-6 9:5:43","SHEEP",NA,NA,NA,NA,NA,NA,NA,NA,NA,NA,NA,NA,NA,NA
"19943","setup5",NA,"animation","60","991724","0.0-4.0-26.0","1","2020-1-6 9:5:43","SHEEP",NA,NA,"[{""cat"":6,""src"":3,""loc"":4},{""cat"":20,""src"":5,""loc"":7},{""cat"":19,""src"":1,""loc"":0},{""cat"":6,""src"":0,""loc"":8},{""cat"":20,""src"":7,""loc"":1},{""cat"":19,""src"":8,""loc"":3},{""cat"":6,""src"":6,""loc"":2},{""cat"":20,""src"":18,""loc"":5},{""cat"":19,""src"":14,""loc"":6}]","5","1109,1103,1102,1103,1103,1103,1107,1103,1105,10005",NA,NA,NA,NA,NA,NA,NA,NA,NA
"1855","flanker_instructions","37","html-keyboard-response","61","993584","0.0-4.0-27.0","1","2020-1-6 9:5:43","SHEEP",NA,NA,NA,NA,NA,NA,NA,NA,NA,NA,NA,NA,NA,NA
NA,"flanker_test",NA,"image-keyboard-response","62","995490","0.0-4.0-28.0-0.0","1","2020-1-6 9:5:43","SHEEP",NA,NA,NA,NA,NA,"congruent","left","FALSE",NA,NA,NA,NA,NA,NA
"794","flanker_test","37","image-keyboard-response","63","996714","0.0-4.0-28.0-0.1","1","2020-1-6 9:5:43","SHEEP",NA,NA,NA,NA,NA,"incongruent","left","TRUE",NA,NA,NA,NA,NA,NA
"774","flanker_test","39","image-keyboard-response","64","998676","0.0-4.0-28.0-0.2","1","2020-1-6 9:5:43","SHEEP",NA,NA,NA,NA,NA,"incongruent","right","TRUE",NA,NA,NA,NA,NA,NA
"684","flanker_test","39","image-keyboard-response","65","1000458","0.0-4.0-28.0-0.3","1","2020-1-6 9:5:43","SHEEP",NA,NA,NA,NA,NA,"congruent","right","TRUE",NA,NA,NA,NA,NA,NA
"39178","sort_trial",NA,"free-sort","66","1040727","0.0-4.0-29.0","1","2020-1-6 9:5:43","SHEEP",NA,NA,NA,NA,NA,NA,NA,NA,"[{""cat"":6,""src"":3,""x"":12,""y"":449},{""cat"":20,""src"":5,""x"":36,""y"":63},{""cat"":19,""src"":1,""x"":43,""y"":12},{""cat"":6,""src"":0,""x"":53,""y"":142},{""cat"":20,""src"":7,""x"":54,""y"":382},{""cat"":19,""src"":8,""x"":40,""y"":246},{""cat"":6,""src"":6,""x"":76,""y"":497},{""cat"":20,""src"":18,""x"":34,""y"":189},{""cat"":19,""src"":14,""x"":58,""y"":309}]","[{""cat"":""20"",""src"":""5"",""x"":0,""y"":0},{""cat"":""19"",""src"":""1"",""x"":0,""y"":0},{""cat"":""19"",""src"":""14"",""x"":0,""y"":0},{""cat"":""6"",""src"":""6"",""x"":0,""y"":0},{""cat"":""20"",""src"":""7"",""x"":0,""y"":0},{""cat"":""20"",""src"":""18"",""x"":0,""y"":0},{""cat"":""6"",""src"":""0"",""x"":0,""y"":0},{""cat"":""19"",""src"":""8"",""x"":0,""y"":0},{""cat"":""6"",""src"":""3"",""x"":0,""y"":0}]","[{""cat"":20,""src"":5,""loc"":7},{""cat"":19,""src"":1,""loc"":2},{""cat"":19,""src"":14,""loc"":6},{""cat"":6,""src"":6,""loc"":8},{""cat"":20,""src"":7,""loc"":1},{""cat"":20,""src"":18,""loc"":0},{""cat"":6,""src"":0,""loc"":5},{""cat"":19,""src"":8,""loc"":3},{""cat"":6,""src"":3,""loc"":4}]","5","20,20,19,19,6,6,19,20,6,18,7,1,8,3,0,14,5,6,0,1,2,3,4,5,6,7,8,5,4,1,7,8,6,2,0,3",NA
"2953","sort_feedback","32","html-keyboard-response","67","1043685","0.0-4.0-30.0","1","2020-1-6 9:5:43","SHEEP",NA,NA,NA,NA,NA,NA,NA,NA,NA,NA,NA,NA,NA,NA
"19941","setup2",NA,"animation","68","1063629","0.0-4.0-31.0","1","2020-1-6 9:5:43","SHEEP",NA,NA,"[{""cat"":10,""src"":18,""loc"":2},{""cat"":5,""src"":12,""loc"":1},{""cat"":30,""src"":18,""loc"":0},{""cat"":5,""src"":14,""loc"":4},{""cat"":10,""src"":3,""loc"":5},{""cat"":30,""src"":17,""loc"":3},{""cat"":5,""src"":8,""loc"":8},{""cat"":30,""src"":9,""loc"":7},{""cat"":10,""src"":15,""loc"":6}]","2","1106,1104,1103,1102,1104,1103,1105,1105,1105,10004",NA,NA,NA,NA,NA,NA,NA,NA,NA
"1768","flanker_instructions","37","html-keyboard-response","69","1065401","0.0-4.0-32.0","1","2020-1-6 9:5:43","SHEEP",NA,NA,NA,NA,NA,NA,NA,NA,NA,NA,NA,NA,NA,NA
"793","flanker_test","37","image-keyboard-response","70","1067197","0.0-4.0-33.0-0.0","1","2020-1-6 9:5:43","SHEEP",NA,NA,NA,NA,NA,"congruent","left","TRUE",NA,NA,NA,NA,NA,NA
"596","flanker_test","39","image-keyboard-response","71","1068499","0.0-4.0-33.0-0.1","1","2020-1-6 9:5:43","SHEEP",NA,NA,NA,NA,NA,"congruent","right","TRUE",NA,NA,NA,NA,NA,NA
"762","flanker_test","37","image-keyboard-response","72","1069812","0.0-4.0-33.0-0.2","1","2020-1-6 9:5:43","SHEEP",NA,NA,NA,NA,NA,"incongruent","left","TRUE",NA,NA,NA,NA,NA,NA
"738","flanker_test","39","image-keyboard-response","73","1071458","0.0-4.0-33.0-0.3","1","2020-1-6 9:5:43","SHEEP",NA,NA,NA,NA,NA,"incongruent","right","TRUE",NA,NA,NA,NA,NA,NA
"46482","sort_trial",NA,"free-sort","74","1118643","0.0-4.0-34.0","1","2020-1-6 9:5:43","SHEEP",NA,NA,NA,NA,NA,NA,NA,NA,"[{""cat"":10,""src"":18,""x"":48,""y"":500},{""cat"":5,""src"":12,""x"":4,""y"":84},{""cat"":30,""src"":18,""x"":75,""y"":427},{""cat"":5,""src"":14,""x"":7,""y"":11},{""cat"":10,""src"":3,""x"":5,""y"":243},{""cat"":30,""src"":17,""x"":49,""y"":327},{""cat"":5,""src"":8,""x"":24,""y"":382},{""cat"":30,""src"":9,""x"":51,""y"":131},{""cat"":10,""src"":15,""x"":75,""y"":187}]","[{""cat"":""30"",""src"":""18"",""x"":0,""y"":0},{""cat"":""10"",""src"":""18"",""x"":0,""y"":0},{""cat"":""10"",""src"":""3"",""x"":0,""y"":0},{""cat"":""10"",""src"":""15"",""x"":0,""y"":0},{""cat"":""30"",""src"":""9"",""x"":0,""y"":0},{""cat"":""5"",""src"":""12"",""x"":0,""y"":0},{""cat"":""5"",""src"":""14"",""x"":0,""y"":0},{""cat"":""5"",""src"":""8"",""x"":0,""y"":0},{""cat"":""30"",""src"":""17"",""x"":0,""y"":0}]","[{""cat"":30,""src"":18,""loc"":0},{""cat"":10,""src"":18,""loc"":2},{""cat"":10,""src"":3,""loc"":5},{""cat"":10,""src"":15,""loc"":6},{""cat"":30,""src"":9,""loc"":7},{""cat"":5,""src"":12,""loc"":1},{""cat"":5,""src"":14,""loc"":4},{""cat"":5,""src"":8,""loc"":8},{""cat"":30,""src"":17,""loc"":3}]","9","30,5,10,30,5,10,10,30,5,18,12,18,17,14,3,15,9,8,0,1,2,3,4,5,6,7,8,0,5,1,8,6,2,3,4,7",NA
"3116","sort_feedback","32","html-keyboard-response","75","1121764","0.0-4.0-35.0","1","2020-1-6 9:5:43","SHEEP",NA,NA,NA,NA,NA,NA,NA,NA,NA,NA,NA,NA,NA,NA
"19937","setup1",NA,"animation","76","1141702","0.0-4.0-36.0","1","2020-1-6 9:5:43","SHEEP",NA,NA,"[{""cat"":27,""src"":3,""loc"":7},{""cat"":27,""src"":17,""loc"":6},{""cat"":27,""src"":12,""loc"":8},{""cat"":12,""src"":0,""loc"":5},{""cat"":12,""src"":8,""loc"":3},{""cat"":12,""src"":11,""loc"":4},{""cat"":13,""src"":13,""loc"":2},{""cat"":13,""src"":15,""loc"":1},{""cat"":13,""src"":14,""loc"":0}]","1","1105,1104,1104,1102,1103,1104,1106,1103,1104,10002",NA,NA,NA,NA,NA,NA,NA,NA,NA
"1671","flanker_instructions","37","html-keyboard-response","77","1143377","0.0-4.0-37.0","1","2020-1-6 9:5:43","SHEEP",NA,NA,NA,NA,NA,NA,NA,NA,NA,NA,NA,NA,NA,NA
"840","flanker_test","39","image-keyboard-response","78","1145221","0.0-4.0-38.0-0.0","1","2020-1-6 9:5:43","SHEEP",NA,NA,NA,NA,NA,"incongruent","right","TRUE",NA,NA,NA,NA,NA,NA
"629","flanker_test","39","image-keyboard-response","79","1146941","0.0-4.0-38.0-0.1","1","2020-1-6 9:5:43","SHEEP",NA,NA,NA,NA,NA,"congruent","right","TRUE",NA,NA,NA,NA,NA,NA
"733","flanker_test","37","image-keyboard-response","80","1148505","0.0-4.0-38.0-0.2","1","2020-1-6 9:5:43","SHEEP",NA,NA,NA,NA,NA,"congruent","left","TRUE",NA,NA,NA,NA,NA,NA
"883","flanker_test","37","image-keyboard-response","81","1150555","0.0-4.0-38.0-0.3","1","2020-1-6 9:5:43","SHEEP",NA,NA,NA,NA,NA,"incongruent","left","TRUE",NA,NA,NA,NA,NA,NA
"30014","sort_trial",NA,"free-sort","82","1181370","0.0-4.0-39.0","1","2020-1-6 9:5:43","SHEEP",NA,NA,NA,NA,NA,NA,NA,NA,"[{""cat"":27,""src"":3,""x"":1,""y"":319},{""cat"":27,""src"":17,""x"":70,""y"":433},{""cat"":27,""src"":12,""x"":9,""y"":3},{""cat"":12,""src"":0,""x"":75,""y"":126},{""cat"":12,""src"":8,""x"":79,""y"":64},{""cat"":12,""src"":11,""x"":51,""y"":184},{""cat"":13,""src"":13,""x"":14,""y"":489},{""cat"":13,""src"":15,""x"":60,""y"":367},{""cat"":13,""src"":14,""x"":15,""y"":258}]","[{""cat"":""12"",""src"":""11"",""x"":0,""y"":0},{""cat"":""27"",""src"":""3"",""x"":0,""y"":0},{""cat"":""13"",""src"":""14"",""x"":0,""y"":0},{""cat"":""13"",""src"":""13"",""x"":0,""y"":0},{""cat"":""13"",""src"":""15"",""x"":0,""y"":0},{""cat"":""12"",""src"":""8"",""x"":0,""y"":0},{""cat"":""27"",""src"":""17"",""x"":0,""y"":0},{""cat"":""27"",""src"":""12"",""x"":0,""y"":0},{""cat"":""12"",""src"":""0"",""x"":0,""y"":0}]","[{""cat"":12,""src"":11,""loc"":4},{""cat"":27,""src"":3,""loc"":7},{""cat"":13,""src"":14,""loc"":0},{""cat"":13,""src"":13,""loc"":2},{""cat"":13,""src"":15,""loc"":1},{""cat"":12,""src"":8,""loc"":3},{""cat"":27,""src"":17,""loc"":6},{""cat"":27,""src"":12,""loc"":8},{""cat"":12,""src"":0,""loc"":5}]","9","13,13,13,12,12,12,27,27,27,14,15,13,8,11,0,17,3,12,0,1,2,3,4,5,6,7,8,2,4,3,5,0,8,6,1,7",NA
"2105","sort_feedback","32","html-keyboard-response","83","1183481","0.0-4.0-40.0","1","2020-1-6 9:5:43","SHEEP",NA,NA,NA,NA,NA,NA,NA,NA,NA,NA,NA,NA,NA,NA
"19933","setup4",NA,"animation","84","1203416","0.0-4.0-41.0","1","2020-1-6 9:5:43","SHEEP",NA,NA,"[{""cat"":0,""src"":14,""loc"":2},{""cat"":0,""src"":18,""loc"":4},{""cat"":0,""src"":10,""loc"":8},{""cat"":27,""src"":8,""loc"":0},{""cat"":27,""src"":4,""loc"":7},{""cat"":27,""src"":3,""loc"":5},{""cat"":6,""src"":7,""loc"":1},{""cat"":6,""src"":18,""loc"":6},{""cat"":6,""src"":13,""loc"":3}]","4","1104,1104,1102,1104,1104,1102,1104,1102,1105,10002",NA,NA,NA,NA,NA,NA,NA,NA,NA
"1641","flanker_instructions","37","html-keyboard-response","85","1205062","0.0-4.0-42.0","1","2020-1-6 9:5:43","SHEEP",NA,NA,NA,NA,NA,NA,NA,NA,NA,NA,NA,NA,NA,NA
"716","flanker_test","39","image-keyboard-response","86","1206793","0.0-4.0-43.0-0.0","1","2020-1-6 9:5:43","SHEEP",NA,NA,NA,NA,NA,"congruent","right","TRUE",NA,NA,NA,NA,NA,NA
"746","flanker_test","39","image-keyboard-response","87","1208083","0.0-4.0-43.0-0.1","1","2020-1-6 9:5:43","SHEEP",NA,NA,NA,NA,NA,"incongruent","right","TRUE",NA,NA,NA,NA,NA,NA
"759","flanker_test","37","image-keyboard-response","88","1209506","0.0-4.0-43.0-0.2","1","2020-1-6 9:5:43","SHEEP",NA,NA,NA,NA,NA,"incongruent","left","TRUE",NA,NA,NA,NA,NA,NA
"652","flanker_test","37","image-keyboard-response","89","1211204","0.0-4.0-43.0-0.3","1","2020-1-6 9:5:43","SHEEP",NA,NA,NA,NA,NA,"congruent","left","TRUE",NA,NA,NA,NA,NA,NA
"31410","sort_trial",NA,"free-sort","90","1242976","0.0-4.0-44.0","1","2020-1-6 9:5:43","SHEEP",NA,NA,NA,NA,NA,NA,NA,NA,"[{""cat"":0,""src"":14,""x"":81,""y"":120},{""cat"":0,""src"":18,""x"":12,""y"":83},{""cat"":0,""src"":10,""x"":60,""y"":253},{""cat"":27,""src"":8,""x"":62,""y"":15},{""cat"":27,""src"":4,""x"":78,""y"":445},{""cat"":27,""src"":3,""x"":20,""y"":500},{""cat"":6,""src"":7,""x"":68,""y"":371},{""cat"":6,""src"":18,""x"":30,""y"":304},{""cat"":6,""src"":13,""x"":68,""y"":192}]","[{""cat"":""6"",""src"":""18"",""x"":0,""y"":0},{""cat"":""6"",""src"":""7"",""x"":0,""y"":0},{""cat"":""0"",""src"":""18"",""x"":0,""y"":0},{""cat"":""27"",""src"":""3"",""x"":0,""y"":0},{""cat"":""6"",""src"":""13"",""x"":0,""y"":0},{""cat"":""27"",""src"":""8"",""x"":0,""y"":0},{""cat"":""27"",""src"":""4"",""x"":0,""y"":0},{""cat"":""0"",""src"":""10"",""x"":0,""y"":0},{""cat"":""0"",""src"":""14"",""x"":0,""y"":0}]","[{""cat"":6,""src"":18,""loc"":2},{""cat"":6,""src"":7,""loc"":1},{""cat"":0,""src"":18,""loc"":4},{""cat"":27,""src"":3,""loc"":7},{""cat"":6,""src"":13,""loc"":3},{""cat"":27,""src"":8,""loc"":0},{""cat"":27,""src"":4,""loc"":8},{""cat"":0,""src"":10,""loc"":6},{""cat"":0,""src"":14,""loc"":5}]","4","27,6,6,6,0,0,0,27,27,8,7,18,13,18,14,10,3,4,0,1,2,3,4,5,6,7,8,5,1,0,4,2,8,7,3,6",NA
"3343","sort_feedback","32","html-keyboard-response","91","1246324","0.0-4.0-45.0","1","2020-1-6 9:5:43","SHEEP",NA,NA,NA,NA,NA,NA,NA,NA,NA,NA,NA,NA,NA,NA
"19938","setup3",NA,"animation","92","1266263","0.0-4.0-46.0","1","2020-1-6 9:5:43","SHEEP",NA,NA,"[{""cat"":7,""src"":8,""loc"":3},{""cat"":17,""src"":16,""loc"":6},{""cat"":25,""src"":14,""loc"":0},{""cat"":25,""src"":8,""loc"":1},{""cat"":7,""src"":18,""loc"":4},{""cat"":17,""src"":11,""loc"":8},{""cat"":17,""src"":18,""loc"":7},{""cat"":7,""src"":0,""loc"":5},{""cat"":25,""src"":16,""loc"":2}]","3","1108,1102,1104,1103,1104,1103,1103,1104,1104,10002",NA,NA,NA,NA,NA,NA,NA,NA,NA
"1370","flanker_instructions","37","html-keyboard-response","93","1267639","0.0-4.0-47.0","1","2020-1-6 9:5:43","SHEEP",NA,NA,NA,NA,NA,NA,NA,NA,NA,NA,NA,NA,NA,NA
NA,"flanker_test",NA,"image-keyboard-response","94","1269546","0.0-4.0-48.0-0.0","1","2020-1-6 9:5:43","SHEEP",NA,NA,NA,NA,NA,"incongruent","left","FALSE",NA,NA,NA,NA,NA,NA
"654","flanker_test","37","image-keyboard-response","95","1270974","0.0-4.0-48.0-0.1","1","2020-1-6 9:5:43","SHEEP",NA,NA,NA,NA,NA,"congruent","left","TRUE",NA,NA,NA,NA,NA,NA
"658","flanker_test","39","image-keyboard-response","96","1272718","0.0-4.0-48.0-0.2","1","2020-1-6 9:5:43","SHEEP",NA,NA,NA,NA,NA,"congruent","right","TRUE",NA,NA,NA,NA,NA,NA
"702","flanker_test","39","image-keyboard-response","97","1274103","0.0-4.0-48.0-0.3","1","2020-1-6 9:5:43","SHEEP",NA,NA,NA,NA,NA,"incongruent","right","TRUE",NA,NA,NA,NA,NA,NA
"33370","sort_trial",NA,"free-sort","98","1307923","0.0-4.0-49.0","1","2020-1-6 9:5:43","SHEEP",NA,NA,NA,NA,NA,NA,NA,NA,"[{""cat"":7,""src"":8,""x"":47,""y"":265},{""cat"":17,""src"":16,""x"":67,""y"":206},{""cat"":25,""src"":14,""x"":45,""y"":311},{""cat"":25,""src"":8,""x"":81,""y"":149},{""cat"":7,""src"":18,""x"":27,""y"":488},{""cat"":17,""src"":11,""x"":49,""y"":371},{""cat"":17,""src"":18,""x"":55,""y"":9},{""cat"":7,""src"":0,""x"":34,""y"":66},{""cat"":25,""src"":16,""x"":5,""y"":425}]","[{""cat"":""25"",""src"":""16"",""x"":0,""y"":0},{""cat"":""25"",""src"":""8"",""x"":422,""y"":77},{""cat"":""25"",""src"":""8"",""x"":0,""y"":0},{""cat"":""25"",""src"":""14"",""x"":0,""y"":0},{""cat"":""7"",""src"":""18"",""x"":0,""y"":0},{""cat"":""7"",""src"":""8"",""x"":0,""y"":0},{""cat"":""7"",""src"":""0"",""x"":0,""y"":0},{""cat"":""17"",""src"":""16"",""x"":0,""y"":0},{""cat"":""17"",""src"":""11"",""x"":0,""y"":0},{""cat"":""17"",""src"":""18"",""x"":0,""y"":0}]","[{""cat"":25,""src"":16,""loc"":2},{""cat"":25,""src"":8,""loc"":1},{""cat"":25,""src"":14,""loc"":0},{""cat"":7,""src"":18,""loc"":4},{""cat"":7,""src"":8,""loc"":3},{""cat"":7,""src"":0,""loc"":5},{""cat"":17,""src"":16,""loc"":8},{""cat"":17,""src"":11,""loc"":7},{""cat"":17,""src"":18,""loc"":6}]","6","25,25,25,7,7,7,17,17,17,14,8,16,8,18,0,18,11,16,0,1,2,3,4,5,6,7,8,2,1,0,4,3,5,8,7,6",NA
"395193","sort_feedback","32","html-keyboard-response","99","1703121","0.0-4.0-50.0","1","2020-1-6 9:5:43","SHEEP",NA,NA,NA,NA,NA,NA,NA,NA,NA,NA,NA,NA,NA,NA
"19961","setup1",NA,"animation","100","1723085","0.0-4.0-51.0","1","2020-1-6 9:5:43","SHEEP",NA,NA,"[{""cat"":18,""src"":15,""loc"":0},{""cat"":18,""src"":0,""loc"":2},{""cat"":18,""src"":4,""loc"":1},{""cat"":11,""src"":19,""loc"":4},{""cat"":11,""src"":4,""loc"":5},{""cat"":11,""src"":3,""loc"":3},{""cat"":25,""src"":9,""loc"":7},{""cat"":25,""src"":16,""loc"":8},{""cat"":25,""src"":3,""loc"":6}]","1","1107,1103,1105,1123,1105,1104,1104,1105,1103,10002",NA,NA,NA,NA,NA,NA,NA,NA,NA
"1287","flanker_instructions","37","html-keyboard-response","101","1724375","0.0-4.0-52.0","1","2020-1-6 9:5:43","SHEEP",NA,NA,NA,NA,NA,NA,NA,NA,NA,NA,NA,NA,NA,NA
NA,"flanker_test",NA,"image-keyboard-response","102","1726285","0.0-4.0-53.0-0.0","1","2020-1-6 9:5:43","SHEEP",NA,NA,NA,NA,NA,"incongruent","right","FALSE",NA,NA,NA,NA,NA,NA
"566","flanker_test","39","image-keyboard-response","103","1727494","0.0-4.0-53.0-0.1","1","2020-1-6 9:5:43","SHEEP",NA,NA,NA,NA,NA,"congruent","right","TRUE",NA,NA,NA,NA,NA,NA
"761","flanker_test","37","image-keyboard-response","104","1729469","0.0-4.0-53.0-0.2","1","2020-1-6 9:5:43","SHEEP",NA,NA,NA,NA,NA,"incongruent","left","TRUE",NA,NA,NA,NA,NA,NA
"567","flanker_test","37","image-keyboard-response","105","1730643","0.0-4.0-53.0-0.3","1","2020-1-6 9:5:43","SHEEP",NA,NA,NA,NA,NA,"congruent","left","TRUE",NA,NA,NA,NA,NA,NA
"38199","sort_trial",NA,"free-sort","106","1769539","0.0-4.0-54.0","1","2020-1-6 9:5:43","SHEEP",NA,NA,NA,NA,NA,NA,NA,NA,"[{""cat"":18,""src"":15,""x"":66,""y"":485},{""cat"":18,""src"":0,""x"":83,""y"":436},{""cat"":18,""src"":4,""x"":6,""y"":370},{""cat"":11,""src"":19,""x"":17,""y"":312},{""cat"":11,""src"":4,""x"":10,""y"":205},{""cat"":11,""src"":3,""x"":81,""y"":268},{""cat"":25,""src"":9,""x"":36,""y"":3},{""cat"":25,""src"":16,""x"":46,""y"":74},{""cat"":25,""src"":3,""x"":36,""y"":149}]","[{""cat"":""11"",""src"":""4"",""x"":10,""y"":205},{""cat"":""18"",""src"":""0"",""x"":0,""y"":0},{""cat"":""18"",""src"":""15"",""x"":0,""y"":0},{""cat"":""18"",""src"":""4"",""x"":0,""y"":0},{""cat"":""25"",""src"":""3"",""x"":0,""y"":0},{""cat"":""11"",""src"":""19"",""x"":0,""y"":0},{""cat"":""11"",""src"":""3"",""x"":0,""y"":0},{""cat"":""11"",""src"":""4"",""x"":0,""y"":0},{""cat"":""25"",""src"":""9"",""x"":0,""y"":0},{""cat"":""25"",""src"":""16"",""x"":0,""y"":0}]","[{""cat"":18,""src"":0,""loc"":2},{""cat"":18,""src"":15,""loc"":0},{""cat"":18,""src"":4,""loc"":1},{""cat"":25,""src"":3,""loc"":6},{""cat"":11,""src"":19,""loc"":4},{""cat"":11,""src"":3,""loc"":3},{""cat"":11,""src"":4,""loc"":5},{""cat"":25,""src"":9,""loc"":7},{""cat"":25,""src"":16,""loc"":8}]","9","18,18,18,11,11,11,25,25,25,15,4,0,3,19,4,3,9,16,0,1,2,3,4,5,6,7,8,1,2,0,5,4,6,3,7,8",NA
"1746","sort_feedback","32","html-keyboard-response","107","1771291","0.0-4.0-55.0","1","2020-1-6 9:5:43","SHEEP",NA,NA,NA,NA,NA,NA,NA,NA,NA,NA,NA,NA,NA,NA
"19949","setup2",NA,"animation","108","1791241","0.0-4.0-56.0","1","2020-1-6 9:5:43","SHEEP",NA,NA,"[{""cat"":8,""src"":16,""loc"":1},{""cat"":15,""src"":7,""loc"":2},{""cat"":21,""src"":11,""loc"":0},{""cat"":8,""src"":3,""loc"":3},{""cat"":15,""src"":14,""loc"":5},{""cat"":21,""src"":13,""loc"":4},{""cat"":15,""src"":17,""loc"":7},{""cat"":21,""src"":14,""loc"":6},{""cat"":8,""src"":0,""loc"":8}]","2","1107,1102,1111,1105,1104,1104,1105,1104,1104,10003",NA,NA,NA,NA,NA,NA,NA,NA,NA
"1933","flanker_instructions","37","html-keyboard-response","109","1793178","0.0-4.0-57.0","1","2020-1-6 9:5:43","SHEEP",NA,NA,NA,NA,NA,NA,NA,NA,NA,NA,NA,NA,NA,NA
NA,"flanker_test",NA,"image-keyboard-response","110","1795083","0.0-4.0-58.0-0.0","1","2020-1-6 9:5:43","SHEEP",NA,NA,NA,NA,NA,"incongruent","right","FALSE",NA,NA,NA,NA,NA,NA
"592","flanker_test","37","image-keyboard-response","111","1796063","0.0-4.0-58.0-0.1","1","2020-1-6 9:5:43","SHEEP",NA,NA,NA,NA,NA,"congruent","left","TRUE",NA,NA,NA,NA,NA,NA
"557","flanker_test","39","image-keyboard-response","112","1797472","0.0-4.0-58.0-0.2","1","2020-1-6 9:5:43","SHEEP",NA,NA,NA,NA,NA,"congruent","right","TRUE",NA,NA,NA,NA,NA,NA
"598","flanker_test","37","image-keyboard-response","113","1798946","0.0-4.0-58.0-0.3","1","2020-1-6 9:5:43","SHEEP",NA,NA,NA,NA,NA,"incongruent","left","TRUE",NA,NA,NA,NA,NA,NA
"34518","sort_trial",NA,"free-sort","114","1834343","0.0-4.0-59.0","1","2020-1-6 9:5:43","SHEEP",NA,NA,NA,NA,NA,NA,NA,NA,"[{""cat"":8,""src"":16,""x"":36,""y"":306},{""cat"":15,""src"":7,""x"":48,""y"":192},{""cat"":21,""src"":11,""x"":30,""y"":70},{""cat"":8,""src"":3,""x"":69,""y"":246},{""cat"":15,""src"":14,""x"":64,""y"":444},{""cat"":21,""src"":13,""x"":17,""y"":493},{""cat"":15,""src"":17,""x"":47,""y"":24},{""cat"":21,""src"":14,""x"":1,""y"":125},{""cat"":8,""src"":0,""x"":71,""y"":362}]","[{""cat"":""21"",""src"":""14"",""x"":0,""y"":0},{""cat"":""8"",""src"":""3"",""x"":0,""y"":0},{""cat"":""8"",""src"":""0"",""x"":0,""y"":0},{""cat"":""15"",""src"":""7"",""x"":0,""y"":0},{""cat"":""21"",""src"":""13"",""x"":17,""y"":491},{""cat"":""15"",""src"":""14"",""x"":0,""y"":0},{""cat"":""15"",""src"":""17"",""x"":0,""y"":0},{""cat"":""21"",""src"":""13"",""x"":0,""y"":0},{""cat"":""21"",""src"":""11"",""x"":0,""y"":0},{""cat"":""8"",""src"":""16"",""x"":0,""y"":0}]","[{""cat"":21,""src"":14,""loc"":6},{""cat"":8,""src"":3,""loc"":3},{""cat"":8,""src"":0,""loc"":8},{""cat"":15,""src"":7,""loc"":2},{""cat"":15,""src"":14,""loc"":5},{""cat"":15,""src"":17,""loc"":7},{""cat"":21,""src"":13,""loc"":4},{""cat"":21,""src"":11,""loc"":0},{""cat"":8,""src"":16,""loc"":1}]","9","21,8,15,8,21,15,21,15,8,11,16,7,3,13,14,14,17,0,0,1,2,3,4,5,6,7,8,7,8,3,1,6,4,0,5,2",NA
"1881","sort_feedback","32","html-keyboard-response","115","1836228","0.0-4.0-60.0","1","2020-1-6 9:5:43","SHEEP",NA,NA,NA,NA,NA,NA,NA,NA,NA,NA,NA,NA,NA,NA
"19935","setup5",NA,"animation","116","1856164","0.0-4.0-61.0","1","2020-1-6 9:5:43","SHEEP",NA,NA,"[{""cat"":15,""src"":19,""loc"":8},{""cat"":2,""src"":18,""loc"":5},{""cat"":9,""src"":7,""loc"":0},{""cat"":2,""src"":11,""loc"":7},{""cat"":15,""src"":7,""loc"":2},{""cat"":9,""src"":11,""loc"":3},{""cat"":2,""src"":8,""loc"":1},{""cat"":15,""src"":1,""loc"":4},{""cat"":9,""src"":10,""loc"":6}]","5","1108,1103,1103,1103,1104,1103,1102,1103,1104,10002",NA,NA,NA,NA,NA,NA,NA,NA,NA
"1821","flanker_instructions","37","html-keyboard-response","117","1857990","0.0-4.0-62.0","1","2020-1-6 9:5:43","SHEEP",NA,NA,NA,NA,NA,NA,NA,NA,NA,NA,NA,NA,NA,NA
"717","flanker_test","39","image-keyboard-response","118","1859713","0.0-4.0-63.0-0.0","1","2020-1-6 9:5:43","SHEEP",NA,NA,NA,NA,NA,"congruent","right","TRUE",NA,NA,NA,NA,NA,NA
"695","flanker_test","39","image-keyboard-response","119","1861288","0.0-4.0-63.0-0.1","1","2020-1-6 9:5:43","SHEEP",NA,NA,NA,NA,NA,"incongruent","right","TRUE",NA,NA,NA,NA,NA,NA
"728","flanker_test","37","image-keyboard-response","120","1862874","0.0-4.0-63.0-0.2","1","2020-1-6 9:5:43","SHEEP",NA,NA,NA,NA,NA,"incongruent","left","TRUE",NA,NA,NA,NA,NA,NA
"482","flanker_test","37","image-keyboard-response","121","1863662","0.0-4.0-63.0-0.3","1","2020-1-6 9:5:43","SHEEP",NA,NA,NA,NA,NA,"congruent","left","TRUE",NA,NA,NA,NA,NA,NA
"33858","sort_trial",NA,"free-sort","122","1897983","0.0-4.0-64.0","1","2020-1-6 9:5:43","SHEEP",NA,NA,NA,NA,NA,NA,NA,NA,"[{""cat"":15,""src"":19,""x"":59,""y"":375},{""cat"":2,""src"":18,""x"":2,""y"":267},{""cat"":9,""src"":7,""x"":75,""y"":301},{""cat"":2,""src"":11,""x"":26,""y"":438},{""cat"":15,""src"":7,""x"":60,""y"":9},{""cat"":9,""src"":11,""x"":77,""y"":123},{""cat"":2,""src"":8,""x"":7,""y"":502},{""cat"":15,""src"":1,""x"":25,""y"":185},{""cat"":9,""src"":10,""x"":41,""y"":73}]","[{""cat"":""2"",""src"":""11"",""x"":0,""y"":0},{""cat"":""15"",""src"":""19"",""x"":0,""y"":0},{""cat"":""2"",""src"":""18"",""x"":0,""y"":0},{""cat"":""15"",""src"":""1"",""x"":0,""y"":0},{""cat"":""9"",""src"":""11"",""x"":0,""y"":0},{""cat"":""2"",""src"":""8"",""x"":0,""y"":0},{""cat"":""9"",""src"":""10"",""x"":0,""y"":0},{""cat"":""15"",""src"":""7"",""x"":0,""y"":0},{""cat"":""9"",""src"":""7"",""x"":0,""y"":0}]","[{""cat"":2,""src"":11,""loc"":7},{""cat"":15,""src"":19,""loc"":8},{""cat"":2,""src"":18,""loc"":5},{""cat"":15,""src"":1,""loc"":4},{""cat"":9,""src"":11,""loc"":3},{""cat"":2,""src"":8,""loc"":1},{""cat"":9,""src"":10,""loc"":6},{""cat"":15,""src"":7,""loc"":2},{""cat"":9,""src"":7,""loc"":0}]","9","9,2,15,9,15,2,9,2,15,7,8,7,11,1,18,10,11,19,0,1,2,3,4,5,6,7,8,8,5,7,4,3,2,6,0,1",NA
"1917","sort_feedback","32","html-keyboard-response","123","1899908","0.0-4.0-65.0","1","2020-1-6 9:5:43","SHEEP",NA,NA,NA,NA,NA,NA,NA,NA,NA,NA,NA,NA,NA,NA
"19939","setup4",NA,"animation","124","1919848","0.0-4.0-66.0","1","2020-1-6 9:5:43","SHEEP",NA,NA,"[{""cat"":14,""src"":15,""loc"":2},{""cat"":14,""src"":19,""loc"":7},{""cat"":14,""src"":8,""loc"":3},{""cat"":11,""src"":1,""loc"":6},{""cat"":11,""src"":14,""loc"":4},{""cat"":11,""src"":5,""loc"":1},{""cat"":4,""src"":5,""loc"":0},{""cat"":4,""src"":12,""loc"":8},{""cat"":4,""src"":8,""loc"":5}]","4","1106,1102,1104,1103,1105,1103,1104,1106,1104,10001",NA,NA,NA,NA,NA,NA,NA,NA,NA
"1536","flanker_instructions","37","html-keyboard-response","125","1921388","0.0-4.0-67.0","1","2020-1-6 9:5:43","SHEEP",NA,NA,NA,NA,NA,NA,NA,NA,NA,NA,NA,NA,NA,NA
"683","flanker_test","37","image-keyboard-response","126","1923077","0.0-4.0-68.0-0.0","1","2020-1-6 9:5:43","SHEEP",NA,NA,NA,NA,NA,"congruent","left","TRUE",NA,NA,NA,NA,NA,NA
"595","flanker_test","39","image-keyboard-response","127","1924081","0.0-4.0-68.0-0.1","1","2020-1-6 9:5:43","SHEEP",NA,NA,NA,NA,NA,"incongruent","right","TRUE",NA,NA,NA,NA,NA,NA
"746","flanker_test","37","image-keyboard-response","128","1925227","0.0-4.0-68.0-0.2","1","2020-1-6 9:5:43","SHEEP",NA,NA,NA,NA,NA,"incongruent","left","TRUE",NA,NA,NA,NA,NA,NA
"523","flanker_test","39","image-keyboard-response","129","1926500","0.0-4.0-68.0-0.3","1","2020-1-6 9:5:43","SHEEP",NA,NA,NA,NA,NA,"congruent","right","TRUE",NA,NA,NA,NA,NA,NA
"32796","sort_trial",NA,"free-sort","130","1960385","0.0-4.0-69.0","1","2020-1-6 9:5:43","SHEEP",NA,NA,NA,NA,NA,NA,NA,NA,"[{""cat"":14,""src"":15,""x"":15,""y"":64},{""cat"":14,""src"":19,""x"":10,""y"":493},{""cat"":14,""src"":8,""x"":73,""y"":301},{""cat"":11,""src"":1,""x"":8,""y"":360},{""cat"":11,""src"":14,""x"":77,""y"":438},{""cat"":11,""src"":5,""x"":24,""y"":208},{""cat"":4,""src"":5,""x"":17,""y"":12},{""cat"":4,""src"":12,""x"":39,""y"":240},{""cat"":4,""src"":8,""x"":41,""y"":143}]","[{""cat"":""4"",""src"":""5"",""x"":0,""y"":0},{""cat"":""14"",""src"":""8"",""x"":73,""y"":301},{""cat"":""11"",""src"":""1"",""x"":0,""y"":0},{""cat"":""11"",""src"":""14"",""x"":0,""y"":0},{""cat"":""14"",""src"":""15"",""x"":0,""y"":0},{""cat"":""11"",""src"":""5"",""x"":0,""y"":0},{""cat"":""14"",""src"":""19"",""x"":0,""y"":0},{""cat"":""14"",""src"":""8"",""x"":0,""y"":0},{""cat"":""4"",""src"":""12"",""x"":0,""y"":0},{""cat"":""4"",""src"":""8"",""x"":0,""y"":0}]","[{""cat"":4,""src"":5,""loc"":0},{""cat"":11,""src"":1,""loc"":6},{""cat"":11,""src"":14,""loc"":4},{""cat"":14,""src"":15,""loc"":2},{""cat"":11,""src"":5,""loc"":1},{""cat"":14,""src"":19,""loc"":7},{""cat"":14,""src"":8,""loc"":3},{""cat"":4,""src"":12,""loc"":8},{""cat"":4,""src"":8,""loc"":5}]","9","4,11,14,14,11,4,11,14,4,5,5,15,8,14,8,1,19,12,0,1,2,3,4,5,6,7,8,0,4,3,6,2,8,1,5,7",NA
"2765","sort_feedback","32","html-keyboard-response","131","1963155","0.0-4.0-70.0","1","2020-1-6 9:5:43","SHEEP",NA,NA,NA,NA,NA,NA,NA,NA,NA,NA,NA,NA,NA,NA
"19938","setup3",NA,"animation","132","1983094","0.0-4.0-71.0","1","2020-1-6 9:5:43","SHEEP",NA,NA,"[{""cat"":31,""src"":6,""loc"":6},{""cat"":13,""src"":2,""loc"":0},{""cat"":18,""src"":16,""loc"":4},{""cat"":18,""src"":5,""loc"":5},{""cat"":13,""src"":18,""loc"":2},{""cat"":31,""src"":8,""loc"":8},{""cat"":31,""src"":9,""loc"":7},{""cat"":13,""src"":4,""loc"":1},{""cat"":18,""src"":11,""loc"":3}]","3","1105,1104,1103,1104,1104,1103,1104,1105,1103,10003",NA,NA,NA,NA,NA,NA,NA,NA,NA
"1793","flanker_instructions","37","html-keyboard-response","133","1984890","0.0-4.0-72.0","1","2020-1-6 9:5:43","SHEEP",NA,NA,NA,NA,NA,NA,NA,NA,NA,NA,NA,NA,NA,NA
"761","flanker_test","39","image-keyboard-response","134","1986657","0.0-4.0-73.0-0.0","1","2020-1-6 9:5:43","SHEEP",NA,NA,NA,NA,NA,"congruent","right","TRUE",NA,NA,NA,NA,NA,NA
"569","flanker_test","37","image-keyboard-response","135","1987589","0.0-4.0-73.0-0.1","1","2020-1-6 9:5:43","SHEEP",NA,NA,NA,NA,NA,"congruent","left","TRUE",NA,NA,NA,NA,NA,NA
"689","flanker_test","39","image-keyboard-response","136","1989148","0.0-4.0-73.0-0.2","1","2020-1-6 9:5:43","SHEEP",NA,NA,NA,NA,NA,"incongruent","right","TRUE",NA,NA,NA,NA,NA,NA
"639","flanker_test","37","image-keyboard-response","137","1990777","0.0-4.0-73.0-0.3","1","2020-1-6 9:5:43","SHEEP",NA,NA,NA,NA,NA,"incongruent","left","TRUE",NA,NA,NA,NA,NA,NA
"33151","sort_trial",NA,"free-sort","138","2024919","0.0-4.0-74.0","1","2020-1-6 9:5:43","SHEEP",NA,NA,NA,NA,NA,NA,NA,NA,"[{""cat"":31,""src"":6,""x"":46,""y"":135},{""cat"":13,""src"":2,""x"":38,""y"":60},{""cat"":18,""src"":16,""x"":47,""y"":208},{""cat"":18,""src"":5,""x"":50,""y"":303},{""cat"":13,""src"":18,""x"":49,""y"":494},{""cat"":31,""src"":8,""x"":2,""y"":440},{""cat"":31,""src"":9,""x"":23,""y"":10},{""cat"":13,""src"":4,""x"":61,""y"":245},{""cat"":18,""src"":11,""x"":11,""y"":389}]","[{""cat"":""13"",""src"":""2"",""x"":0,""y"":0},{""cat"":""31"",""src"":""6"",""x"":0,""y"":0},{""cat"":""18"",""src"":""11"",""x"":0,""y"":0},{""cat"":""13"",""src"":""18"",""x"":0,""y"":0},{""cat"":""13"",""src"":""4"",""x"":0,""y"":0},{""cat"":""31"",""src"":""9"",""x"":0,""y"":0},{""cat"":""31"",""src"":""8"",""x"":0,""y"":0},{""cat"":""18"",""src"":""16"",""x"":0,""y"":0},{""cat"":""18"",""src"":""5"",""x"":0,""y"":0}]","[{""cat"":13,""src"":2,""loc"":0},{""cat"":31,""src"":6,""loc"":6},{""cat"":18,""src"":11,""loc"":3},{""cat"":13,""src"":18,""loc"":2},{""cat"":13,""src"":4,""loc"":1},{""cat"":31,""src"":9,""loc"":7},{""cat"":31,""src"":8,""loc"":8},{""cat"":18,""src"":16,""loc"":4},{""cat"":18,""src"":5,""loc"":5}]","9","13,13,13,18,18,18,31,31,31,2,4,18,11,16,5,6,9,8,0,1,2,3,4,5,6,7,8,0,4,3,2,7,8,1,5,6",NA
"1764","sort_feedback","32","html-keyboard-response","139","2026688","0.0-4.0-75.0","1","2020-1-6 9:5:43","SHEEP",NA,NA,NA,NA,NA,NA,NA,NA,NA,NA,NA,NA,NA,NA
"19937","setup4",NA,"animation","140","2046628","0.0-4.0-76.0","1","2020-1-6 9:5:43","SHEEP",NA,NA,"[{""cat"":23,""src"":3,""loc"":0},{""cat"":23,""src"":6,""loc"":8},{""cat"":23,""src"":12,""loc"":5},{""cat"":25,""src"":8,""loc"":1},{""cat"":25,""src"":11,""loc"":3},{""cat"":25,""src"":2,""loc"":6},{""cat"":4,""src"":3,""loc"":4},{""cat"":4,""src"":5,""loc"":2},{""cat"":4,""src"":9,""loc"":7}]","4","1106,1103,1104,1103,1102,1104,1104,1105,1104,10002",NA,NA,NA,NA,NA,NA,NA,NA,NA
"1158","flanker_instructions","37","html-keyboard-response","141","2047791","0.0-4.0-77.0","1","2020-1-6 9:5:43","SHEEP",NA,NA,NA,NA,NA,NA,NA,NA,NA,NA,NA,NA,NA,NA
"806","flanker_test","39","image-keyboard-response","142","2049604","0.0-4.0-78.0-0.0","1","2020-1-6 9:5:43","SHEEP",NA,NA,NA,NA,NA,"congruent","right","TRUE",NA,NA,NA,NA,NA,NA
"626","flanker_test","37","image-keyboard-response","143","2050812","0.0-4.0-78.0-0.1","1","2020-1-6 9:5:43","SHEEP",NA,NA,NA,NA,NA,"congruent","left","TRUE",NA,NA,NA,NA,NA,NA
"678","flanker_test","39","image-keyboard-response","144","2051921","0.0-4.0-78.0-0.2","1","2020-1-6 9:5:43","SHEEP",NA,NA,NA,NA,NA,"incongruent","right","TRUE",NA,NA,NA,NA,NA,NA
"765","flanker_test","37","image-keyboard-response","145","2053107","0.0-4.0-78.0-0.3","1","2020-1-6 9:5:43","SHEEP",NA,NA,NA,NA,NA,"incongruent","left","TRUE",NA,NA,NA,NA,NA,NA
"31476","sort_trial",NA,"free-sort","146","2085509","0.0-4.0-79.0","1","2020-1-6 9:5:43","SHEEP",NA,NA,NA,NA,NA,NA,NA,NA,"[{""cat"":23,""src"":3,""x"":65,""y"":252},{""cat"":23,""src"":6,""x"":78,""y"":507},{""cat"":23,""src"":12,""x"":44,""y"":67},{""cat"":25,""src"":8,""x"":12,""y"":22},{""cat"":25,""src"":11,""x"":70,""y"":423},{""cat"":25,""src"":2,""x"":3,""y"":380},{""cat"":4,""src"":3,""x"":82,""y"":312},{""cat"":4,""src"":5,""x"":36,""y"":184},{""cat"":4,""src"":9,""x"":7,""y"":138}]","[{""cat"":""23"",""src"":""12"",""x"":0,""y"":0},{""cat"":""23"",""src"":""6"",""x"":0,""y"":0},{""cat"":""25"",""src"":""11"",""x"":0,""y"":0},{""cat"":""25"",""src"":""8"",""x"":0,""y"":0},{""cat"":""4"",""src"":""5"",""x"":0,""y"":0},{""cat"":""25"",""src"":""2"",""x"":0,""y"":0},{""cat"":""4"",""src"":""3"",""x"":0,""y"":0},{""cat"":""4"",""src"":""9"",""x"":0,""y"":0},{""cat"":""23"",""src"":""3"",""x"":0,""y"":0}]","[{""cat"":23,""src"":12,""loc"":5},{""cat"":23,""src"":6,""loc"":8},{""cat"":25,""src"":11,""loc"":3},{""cat"":25,""src"":8,""loc"":1},{""cat"":4,""src"":5,""loc"":2},{""cat"":25,""src"":2,""loc"":6},{""cat"":4,""src"":3,""loc"":4},{""cat"":4,""src"":9,""loc"":7},{""cat"":23,""src"":3,""loc"":0}]","9","23,25,4,25,4,23,25,4,23,3,8,5,11,3,12,2,9,6,0,1,2,3,4,5,6,7,8,8,3,4,2,6,0,5,7,1",NA
"4978","sort_feedback","32","html-keyboard-response","147","2090491","0.0-4.0-80.0","1","2020-1-6 9:5:43","SHEEP",NA,NA,NA,NA,NA,NA,NA,NA,NA,NA,NA,NA,NA,NA
"19956","setup3",NA,"animation","148","2110449","0.0-4.0-81.0","1","2020-1-6 9:5:43","SHEEP",NA,NA,"[{""cat"":20,""src"":6,""loc"":1},{""cat"":27,""src"":9,""loc"":4},{""cat"":12,""src"":17,""loc"":8},{""cat"":27,""src"":17,""loc"":5},{""cat"":12,""src"":13,""loc"":6},{""cat"":20,""src"":9,""loc"":0},{""cat"":12,""src"":1,""loc"":7},{""cat"":27,""src"":2,""loc"":3},{""cat"":20,""src"":1,""loc"":2}]","3","1106,1120,1103,1105,1105,1102,1103,1104,1105,10003",NA,NA,NA,NA,NA,NA,NA,NA,NA
"1624","flanker_instructions","37","html-keyboard-response","149","2112078","0.0-4.0-82.0","1","2020-1-6 9:5:43","SHEEP",NA,NA,NA,NA,NA,NA,NA,NA,NA,NA,NA,NA,NA,NA
"643","flanker_test","39","image-keyboard-response","150","2113725","0.0-4.0-83.0-0.0","1","2020-1-6 9:5:43","SHEEP",NA,NA,NA,NA,NA,"congruent","right","TRUE",NA,NA,NA,NA,NA,NA
"583","flanker_test","37","image-keyboard-response","151","2115426","0.0-4.0-83.0-0.1","1","2020-1-6 9:5:43","SHEEP",NA,NA,NA,NA,NA,"incongruent","left","TRUE",NA,NA,NA,NA,NA,NA
"729","flanker_test","37","image-keyboard-response","152","2116615","0.0-4.0-83.0-0.2","1","2020-1-6 9:5:43","SHEEP",NA,NA,NA,NA,NA,"congruent","left","TRUE",NA,NA,NA,NA,NA,NA
"715","flanker_test","39","image-keyboard-response","153","2118301","0.0-4.0-83.0-0.3","1","2020-1-6 9:5:43","SHEEP",NA,NA,NA,NA,NA,"incongruent","right","TRUE",NA,NA,NA,NA,NA,NA
"48278","sort_trial",NA,"free-sort","154","2167459","0.0-4.0-84.0","1","2020-1-6 9:5:43","SHEEP",NA,NA,NA,NA,NA,NA,NA,NA,"[{""cat"":20,""src"":6,""x"":41,""y"":241},{""cat"":27,""src"":9,""x"":22,""y"":425},{""cat"":12,""src"":17,""x"":29,""y"":181},{""cat"":27,""src"":17,""x"":59,""y"":481},{""cat"":12,""src"":13,""x"":47,""y"":5},{""cat"":20,""src"":9,""x"":34,""y"":145},{""cat"":12,""src"":1,""x"":29,""y"":311},{""cat"":27,""src"":2,""x"":66,""y"":79},{""cat"":20,""src"":1,""x"":16,""y"":379}]","[{""cat"":""27"",""src"":""9"",""x"":0,""y"":0},{""cat"":""12"",""src"":""13"",""x"":0,""y"":0},{""cat"":""20"",""src"":""1"",""x"":0,""y"":0},{""cat"":""27"",""src"":""2"",""x"":0,""y"":0},{""cat"":""12"",""src"":""17"",""x"":0,""y"":0},{""cat"":""12"",""src"":""1"",""x"":0,""y"":0},{""cat"":""27"",""src"":""17"",""x"":0,""y"":0},{""cat"":""20"",""src"":""9"",""x"":0,""y"":0},{""cat"":""20"",""src"":""6"",""x"":0,""y"":0}]","[{""cat"":27,""src"":9,""loc"":4},{""cat"":12,""src"":13,""loc"":6},{""cat"":20,""src"":1,""loc"":2},{""cat"":27,""src"":2,""loc"":3},{""cat"":12,""src"":17,""loc"":8},{""cat"":12,""src"":1,""loc"":7},{""cat"":27,""src"":17,""loc"":5},{""cat"":20,""src"":9,""loc"":0},{""cat"":20,""src"":6,""loc"":1}]","9","20,20,20,27,27,27,12,12,12,9,6,1,2,9,17,13,1,17,0,1,2,3,4,5,6,7,8,7,8,2,3,0,6,1,5,4",NA
"2758","sort_feedback","32","html-keyboard-response","155","2170222","0.0-4.0-85.0","1","2020-1-6 9:5:43","SHEEP",NA,NA,NA,NA,NA,NA,NA,NA,NA,NA,NA,NA,NA,NA
"19938","setup5",NA,"animation","156","2190162","0.0-4.0-86.0","1","2020-1-6 9:5:43","SHEEP",NA,NA,"[{""cat"":32,""src"":0,""loc"":6},{""cat"":29,""src"":13,""loc"":2},{""cat"":11,""src"":15,""loc"":4},{""cat"":32,""src"":16,""loc"":0},{""cat"":11,""src"":16,""loc"":7},{""cat"":29,""src"":4,""loc"":3},{""cat"":32,""src"":2,""loc"":5},{""cat"":29,""src"":2,""loc"":8},{""cat"":11,""src"":8,""loc"":1}]","5","1107,1103,1102,1104,1103,1104,1105,1104,1104,10002",NA,NA,NA,NA,NA,NA,NA,NA,NA
"1480","flanker_instructions","37","html-keyboard-response","157","2191646","0.0-4.0-87.0","1","2020-1-6 9:5:43","SHEEP",NA,NA,NA,NA,NA,NA,NA,NA,NA,NA,NA,NA,NA,NA
"602","flanker_test","39","image-keyboard-response","158","2193253","0.0-4.0-88.0-0.0","1","2020-1-6 9:5:43","SHEEP",NA,NA,NA,NA,NA,"congruent","right","TRUE",NA,NA,NA,NA,NA,NA
"614","flanker_test","37","image-keyboard-response","159","2194459","0.0-4.0-88.0-0.1","1","2020-1-6 9:5:43","SHEEP",NA,NA,NA,NA,NA,"incongruent","left","TRUE",NA,NA,NA,NA,NA,NA
"547","flanker_test","37","image-keyboard-response","160","2195911","0.0-4.0-88.0-0.2","1","2020-1-6 9:5:43","SHEEP",NA,NA,NA,NA,NA,"congruent","left","TRUE",NA,NA,NA,NA,NA,NA
"575","flanker_test","39","image-keyboard-response","161","2197171","0.0-4.0-88.0-0.3","1","2020-1-6 9:5:43","SHEEP",NA,NA,NA,NA,NA,"incongruent","right","TRUE",NA,NA,NA,NA,NA,NA
"44583","sort_trial",NA,"free-sort","162","2242345","0.0-4.0-89.0","1","2020-1-6 9:5:43","SHEEP",NA,NA,NA,NA,NA,NA,NA,NA,"[{""cat"":32,""src"":0,""x"":66,""y"":145},{""cat"":29,""src"":13,""x"":53,""y"":264},{""cat"":11,""src"":15,""x"":60,""y"":61},{""cat"":32,""src"":16,""x"":15,""y"":443},{""cat"":11,""src"":16,""x"":10,""y"":505},{""cat"":29,""src"":4,""x"":45,""y"":203},{""cat"":32,""src"":2,""x"":30,""y"":313},{""cat"":29,""src"":2,""x"":38,""y"":359},{""cat"":11,""src"":8,""x"":23,""y"":8}]","[{""cat"":""11"",""src"":""16"",""x"":0,""y"":0},{""cat"":""32"",""src"":""0"",""x"":0,""y"":0},{""cat"":""11"",""src"":""15"",""x"":0,""y"":0},{""cat"":""11"",""src"":""8"",""x"":0,""y"":0},{""cat"":""29"",""src"":""4"",""x"":0,""y"":0},{""cat"":""32"",""src"":""16"",""x"":0,""y"":0},{""cat"":""29"",""src"":""13"",""x"":0,""y"":0},{""cat"":""32"",""src"":""2"",""x"":0,""y"":0},{""cat"":""29"",""src"":""2"",""x"":0,""y"":0}]","[{""cat"":11,""src"":16,""loc"":7},{""cat"":32,""src"":0,""loc"":2},{""cat"":11,""src"":15,""loc"":8},{""cat"":11,""src"":8,""loc"":6},{""cat"":29,""src"":4,""loc"":3},{""cat"":32,""src"":16,""loc"":5},{""cat"":29,""src"":13,""loc"":0},{""cat"":32,""src"":2,""loc"":1},{""cat"":29,""src"":2,""loc"":4}]","2","29,32,32,29,29,32,11,11,11,13,2,0,4,2,16,8,16,15,0,1,2,3,4,5,6,7,8,6,7,1,4,8,5,3,0,2",NA
"3866","sort_feedback","32","html-keyboard-response","163","2246215","0.0-4.0-90.0","1","2020-1-6 9:5:43","SHEEP",NA,NA,NA,NA,NA,NA,NA,NA,NA,NA,NA,NA,NA,NA
"19943","setup1",NA,"animation","164","2266160","0.0-4.0-91.0","1","2020-1-6 9:5:43","SHEEP",NA,NA,"[{""cat"":29,""src"":3,""loc"":8},{""cat"":29,""src"":14,""loc"":7},{""cat"":29,""src"":18,""loc"":6},{""cat"":33,""src"":5,""loc"":2},{""cat"":33,""src"":10,""loc"":1},{""cat"":33,""src"":9,""loc"":0},{""cat"":5,""src"":19,""loc"":3},{""cat"":5,""src"":6,""loc"":5},{""cat"":5,""src"":3,""loc"":4}]","1","1107,1104,1104,1103,1105,1105,1106,1104,1103,10002",NA,NA,NA,NA,NA,NA,NA,NA,NA
"1205","flanker_instructions","39","html-keyboard-response","165","2267370","0.0-4.0-92.0","1","2020-1-6 9:5:43","SHEEP",NA,NA,NA,NA,NA,NA,NA,NA,NA,NA,NA,NA,NA,NA
"601","flanker_test","39","image-keyboard-response","166","2268976","0.0-4.0-93.0-0.0","1","2020-1-6 9:5:43","SHEEP",NA,NA,NA,NA,NA,"congruent","right","TRUE",NA,NA,NA,NA,NA,NA
"713","flanker_test","39","image-keyboard-response","167","2270188","0.0-4.0-93.0-0.1","1","2020-1-6 9:5:43","SHEEP",NA,NA,NA,NA,NA,"incongruent","right","TRUE",NA,NA,NA,NA,NA,NA
"537","flanker_test","37","image-keyboard-response","168","2271131","0.0-4.0-93.0-0.2","1","2020-1-6 9:5:43","SHEEP",NA,NA,NA,NA,NA,"congruent","left","TRUE",NA,NA,NA,NA,NA,NA
"791","flanker_test","37","image-keyboard-response","169","2272414","0.0-4.0-93.0-0.3","1","2020-1-6 9:5:43","SHEEP",NA,NA,NA,NA,NA,"incongruent","left","TRUE",NA,NA,NA,NA,NA,NA
"29960","sort_trial",NA,"free-sort","170","2302963","0.0-4.0-94.0","1","2020-1-6 9:5:43","SHEEP",NA,NA,NA,NA,NA,NA,NA,NA,"[{""cat"":29,""src"":3,""x"":27,""y"":68},{""cat"":29,""src"":14,""x"":55,""y"":485},{""cat"":29,""src"":18,""x"":82,""y"":132},{""cat"":33,""src"":5,""x"":75,""y"":19},{""cat"":33,""src"":10,""x"":70,""y"":311},{""cat"":33,""src"":9,""x"":30,""y"":434},{""cat"":5,""src"":19,""x"":8,""y"":388},{""cat"":5,""src"":6,""x"":10,""y"":190},{""cat"":5,""src"":3,""x"":32,""y"":249}]","[{""cat"":""5"",""src"":""6"",""x"":0,""y"":0},{""cat"":""5"",""src"":""3"",""x"":0,""y"":0},{""cat"":""5"",""src"":""19"",""x"":0,""y"":0},{""cat"":""33"",""src"":""9"",""x"":250,""y"":148},{""cat"":""33"",""src"":""9"",""x"":0,""y"":0},{""cat"":""29"",""src"":""18"",""x"":0,""y"":0},{""cat"":""33"",""src"":""10"",""x"":0,""y"":0},{""cat"":""33"",""src"":""5"",""x"":0,""y"":0},{""cat"":""29"",""src"":""14"",""x"":0,""y"":0},{""cat"":""29"",""src"":""3"",""x"":0,""y"":0}]","[{""cat"":5,""src"":6,""loc"":5},{""cat"":5,""src"":3,""loc"":4},{""cat"":5,""src"":19,""loc"":3},{""cat"":33,""src"":9,""loc"":0},{""cat"":29,""src"":18,""loc"":6},{""cat"":33,""src"":10,""loc"":1},{""cat"":33,""src"":5,""loc"":2},{""cat"":29,""src"":14,""loc"":7},{""cat"":29,""src"":3,""loc"":8}]","9","33,33,33,5,5,5,29,29,29,9,10,5,19,3,6,18,14,3,0,1,2,3,4,5,6,7,8,3,5,6,2,1,0,4,7,8",NA
"1596","sort_feedback","32","html-keyboard-response","171","2304564","0.0-4.0-95.0","1","2020-1-6 9:5:43","SHEEP",NA,NA,NA,NA,NA,NA,NA,NA,NA,NA,NA,NA,NA,NA
"19931","setup2",NA,"animation","172","2324498","0.0-4.0-96.0","1","2020-1-6 9:5:43","SHEEP",NA,NA,"[{""cat"":29,""src"":14,""loc"":3},{""cat"":2,""src"":14,""loc"":5},{""cat"":18,""src"":12,""loc"":4},{""cat"":18,""src"":9,""loc"":7},{""cat"":29,""src"":15,""loc"":6},{""cat"":2,""src"":12,""loc"":8},{""cat"":2,""src"":3,""loc"":2},{""cat"":18,""src"":0,""loc"":0},{""cat"":29,""src"":4,""loc"":1}]","2","1105,1102,1102,1103,1103,1103,1102,1102,1106,10003",NA,NA,NA,NA,NA,NA,NA,NA,NA
"1593","flanker_instructions","37","html-keyboard-response","173","2326095","0.0-4.0-97.0","1","2020-1-6 9:5:43","SHEEP",NA,NA,NA,NA,NA,NA,NA,NA,NA,NA,NA,NA,NA,NA
"581","flanker_test","37","image-keyboard-response","174","2327681","0.0-4.0-98.0-0.0","1","2020-1-6 9:5:43","SHEEP",NA,NA,NA,NA,NA,"congruent","left","TRUE",NA,NA,NA,NA,NA,NA
"594","flanker_test","39","image-keyboard-response","175","2329143","0.0-4.0-98.0-0.1","1","2020-1-6 9:5:43","SHEEP",NA,NA,NA,NA,NA,"congruent","right","TRUE",NA,NA,NA,NA,NA,NA
"669","flanker_test","37","image-keyboard-response","176","2330818","0.0-4.0-98.0-0.2","1","2020-1-6 9:5:43","SHEEP",NA,NA,NA,NA,NA,"incongruent","left","TRUE",NA,NA,NA,NA,NA,NA
NA,"flanker_test",NA,"image-keyboard-response","177","2332663","0.0-4.0-98.0-0.3","1","2020-1-6 9:5:43","SHEEP",NA,NA,NA,NA,NA,"incongruent","right","FALSE",NA,NA,NA,NA,NA,NA
"40782","sort_trial",NA,"free-sort","178","2374278","0.0-4.0-99.0","1","2020-1-6 9:5:43","SHEEP",NA,NA,NA,NA,NA,NA,NA,NA,"[{""cat"":29,""src"":14,""x"":29,""y"":198},{""cat"":2,""src"":14,""x"":13,""y"":421},{""cat"":18,""src"":12,""x"":2,""y"":121},{""cat"":18,""src"":9,""x"":71,""y"":377},{""cat"":29,""src"":15,""x"":55,""y"":500},{""cat"":2,""src"":12,""x"":11,""y"":251},{""cat"":2,""src"":3,""x"":34,""y"":301},{""cat"":18,""src"":0,""x"":60,""y"":28},{""cat"":29,""src"":4,""x"":59,""y"":73}]","[{""cat"":""18"",""src"":""0"",""x"":60,""y"":28},{""cat"":""18"",""src"":""12"",""x"":0,""y"":0},{""cat"":""2"",""src"":""3"",""x"":0,""y"":0},{""cat"":""18"",""src"":""0"",""x"":0,""y"":0},{""cat"":""2"",""src"":""12"",""x"":0,""y"":0},{""cat"":""29"",""src"":""15"",""x"":0,""y"":0},{""cat"":""18"",""src"":""9"",""x"":0,""y"":0},{""cat"":""2"",""src"":""14"",""x"":0,""y"":0},{""cat"":""29"",""src"":""4"",""x"":0,""y"":0},{""cat"":""29"",""src"":""14"",""x"":0,""y"":0}]","[{""cat"":18,""src"":12,""loc"":4},{""cat"":2,""src"":3,""loc"":2},{""cat"":18,""src"":0,""loc"":7},{""cat"":2,""src"":12,""loc"":8},{""cat"":29,""src"":15,""loc"":6},{""cat"":18,""src"":9,""loc"":0},{""cat"":2,""src"":14,""loc"":1},{""cat"":29,""src"":4,""loc"":5},{""cat"":29,""src"":14,""loc"":3}]","5","18,2,2,29,18,29,29,18,2,9,14,3,14,12,4,15,0,12,0,1,2,3,4,5,6,7,8,5,6,1,8,0,7,4,2,3",NA
"2624","sort_feedback","32","html-keyboard-response","179","2376906","0.0-4.0-100.0","1","2020-1-6 9:5:43","SHEEP",NA,NA,NA,NA,NA,NA,NA,NA,NA,NA,NA,NA,NA,NA
NA,"breakStart",NA,"html-keyboard-response","180","2406910","0.0-5.0-0.0","1","2020-1-6 9:5:43","SHEEP",NA,NA,NA,NA,NA,NA,NA,NA,NA,NA,NA,NA,NA,NA
"2412","breakEnd",NA,"html-button-response","181","2409326","0.0-5.0-1.0","1","2020-1-6 9:5:43","SHEEP","0",NA,NA,NA,NA,NA,NA,NA,NA,NA,NA,NA,NA,NA
"19934","setup2",NA,"animation","182","2429262","0.0-6.0-0.0","1","2020-1-6 9:5:43","SHEEP",NA,NA,"[{""cat"":14,""src"":17,""loc"":0},{""cat"":5,""src"":5,""loc"":2},{""cat"":31,""src"":16,""loc"":1},{""cat"":31,""src"":18,""loc"":3},{""cat"":14,""src"":3,""loc"":4},{""cat"":5,""src"":11,""loc"":5},{""cat"":14,""src"":6,""loc"":8},{""cat"":31,""src"":3,""loc"":7},{""cat"":5,""src"":15,""loc"":6}]","2","1104,1103,1104,1102,1104,1104,1104,1103,1104,10001",NA,NA,NA,NA,NA,NA,NA,NA,NA
"1552","flanker_instructions","37","html-keyboard-response","183","2430818","0.0-6.0-1.0","1","2020-1-6 9:5:43","SHEEP",NA,NA,NA,NA,NA,NA,NA,NA,NA,NA,NA,NA,NA,NA
"841","flanker_test","37","image-keyboard-response","184","2432668","0.0-6.0-2.0-0.0","1","2020-1-6 9:5:43","SHEEP",NA,NA,NA,NA,NA,"congruent","left","TRUE",NA,NA,NA,NA,NA,NA
"675","flanker_test","39","image-keyboard-response","185","2434216","0.0-6.0-2.0-0.1","1","2020-1-6 9:5:43","SHEEP",NA,NA,NA,NA,NA,"incongruent","right","TRUE",NA,NA,NA,NA,NA,NA
"715","flanker_test","37","image-keyboard-response","186","2436044","0.0-6.0-2.0-0.2","1","2020-1-6 9:5:43","SHEEP",NA,NA,NA,NA,NA,"incongruent","left","TRUE",NA,NA,NA,NA,NA,NA
"529","flanker_test","39","image-keyboard-response","187","2437093","0.0-6.0-2.0-0.3","1","2020-1-6 9:5:43","SHEEP",NA,NA,NA,NA,NA,"congruent","right","TRUE",NA,NA,NA,NA,NA,NA
"44027","sort_trial",NA,"free-sort","188","2482280","0.0-6.0-3.0","1","2020-1-6 9:5:43","SHEEP",NA,NA,NA,NA,NA,NA,NA,NA,"[{""cat"":14,""src"":17,""x"":45,""y"":387},{""cat"":5,""src"":5,""x"":48,""y"":183},{""cat"":31,""src"":16,""x"":50,""y"":241},{""cat"":31,""src"":18,""x"":12,""y"":500},{""cat"":14,""src"":3,""x"":78,""y"":327},{""cat"":5,""src"":11,""x"":79,""y"":86},{""cat"":14,""src"":6,""x"":52,""y"":138},{""cat"":31,""src"":3,""x"":81,""y"":19},{""cat"":5,""src"":15,""x"":45,""y"":447}]","[{""cat"":""5"",""src"":""5"",""x"":0,""y"":0},{""cat"":""31"",""src"":""16"",""x"":0,""y"":0},{""cat"":""14"",""src"":""17"",""x"":0,""y"":0},{""cat"":""31"",""src"":""18"",""x"":0,""y"":0},{""cat"":""31"",""src"":""3"",""x"":0,""y"":0},{""cat"":""5"",""src"":""11"",""x"":0,""y"":0},{""cat"":""14"",""src"":""3"",""x"":0,""y"":0},{""cat"":""14"",""src"":""6"",""x"":0,""y"":0},{""cat"":""5"",""src"":""15"",""x"":0,""y"":0}]","[{""cat"":5,""src"":5,""loc"":2},{""cat"":31,""src"":16,""loc"":6},{""cat"":14,""src"":17,""loc"":0},{""cat"":31,""src"":18,""loc"":7},{""cat"":31,""src"":3,""loc"":8},{""cat"":5,""src"":11,""loc"":5},{""cat"":14,""src"":3,""loc"":1},{""cat"":14,""src"":6,""loc"":4},{""cat"":5,""src"":15,""loc"":3}]","3","14,14,5,5,14,5,31,31,31,17,3,5,15,6,11,16,18,3,0,1,2,3,4,5,6,7,8,2,6,0,8,7,5,1,3,4",NA
"4295","sort_feedback","32","html-keyboard-response","189","2486579","0.0-6.0-4.0","1","2020-1-6 9:5:43","SHEEP",NA,NA,NA,NA,NA,NA,NA,NA,NA,NA,NA,NA,NA,NA
"19970","setup5",NA,"animation","190","2506552","0.0-6.0-5.0","1","2020-1-6 9:5:43","SHEEP",NA,NA,"[{""cat"":13,""src"":5,""loc"":6},{""cat"":21,""src"":4,""loc"":2},{""cat"":27,""src"":12,""loc"":3},{""cat"":27,""src"":13,""loc"":7},{""cat"":13,""src"":3,""loc"":0},{""cat"":21,""src"":8,""loc"":5},{""cat"":13,""src"":9,""loc"":4},{""cat"":21,""src"":15,""loc"":8},{""cat"":27,""src"":17,""loc"":1}]","5","1107,1133,1102,1104,1104,1103,1104,1105,1104,10004",NA,NA,NA,NA,NA,NA,NA,NA,NA
"1743","flanker_instructions","39","html-keyboard-response","191","2508300","0.0-6.0-6.0","1","2020-1-6 9:5:43","SHEEP",NA,NA,NA,NA,NA,NA,NA,NA,NA,NA,NA,NA,NA,NA
"807","flanker_test","37","image-keyboard-response","192","2510112","0.0-6.0-7.0-0.0","1","2020-1-6 9:5:43","SHEEP",NA,NA,NA,NA,NA,"incongruent","left","TRUE",NA,NA,NA,NA,NA,NA
"599","flanker_test","39","image-keyboard-response","193","2511456","0.0-6.0-7.0-0.1","1","2020-1-6 9:5:43","SHEEP",NA,NA,NA,NA,NA,"congruent","right","TRUE",NA,NA,NA,NA,NA,NA
"532","flanker_test","37","image-keyboard-response","194","2512684","0.0-6.0-7.0-0.2","1","2020-1-6 9:5:43","SHEEP",NA,NA,NA,NA,NA,"congruent","left","TRUE",NA,NA,NA,NA,NA,NA
"690","flanker_test","39","image-keyboard-response","195","2514417","0.0-6.0-7.0-0.3","1","2020-1-6 9:5:43","SHEEP",NA,NA,NA,NA,NA,"incongruent","right","TRUE",NA,NA,NA,NA,NA,NA
"43979","sort_trial",NA,"free-sort","196","2558726","0.0-6.0-8.0","1","2020-1-6 9:5:43","SHEEP",NA,NA,NA,NA,NA,NA,NA,NA,"[{""cat"":13,""src"":5,""x"":67,""y"":494},{""cat"":21,""src"":4,""x"":39,""y"":362},{""cat"":27,""src"":12,""x"":67,""y"":75},{""cat"":27,""src"":13,""x"":82,""y"":256},{""cat"":13,""src"":3,""x"":70,""y"":20},{""cat"":21,""src"":8,""x"":36,""y"":207},{""cat"":13,""src"":9,""x"":59,""y"":131},{""cat"":21,""src"":15,""x"":26,""y"":436},{""cat"":27,""src"":17,""x"":16,""y"":307}]","[{""cat"":""21"",""src"":""4"",""x"":0,""y"":0},{""cat"":""13"",""src"":""5"",""x"":0,""y"":0},{""cat"":""27"",""src"":""17"",""x"":0,""y"":0},{""cat"":""27"",""src"":""13"",""x"":0,""y"":0},{""cat"":""21"",""src"":""8"",""x"":0,""y"":0},{""cat"":""27"",""src"":""12"",""x"":0,""y"":0},{""cat"":""21"",""src"":""15"",""x"":0,""y"":0},{""cat"":""13"",""src"":""9"",""x"":0,""y"":0},{""cat"":""13"",""src"":""3"",""x"":0,""y"":0}]","[{""cat"":21,""src"":4,""loc"":2},{""cat"":13,""src"":5,""loc"":7},{""cat"":27,""src"":17,""loc"":1},{""cat"":27,""src"":13,""loc"":0},{""cat"":21,""src"":8,""loc"":5},{""cat"":27,""src"":12,""loc"":3},{""cat"":21,""src"":15,""loc"":8},{""cat"":13,""src"":9,""loc"":4},{""cat"":13,""src"":3,""loc"":6}]","6","27,27,21,27,13,21,13,13,21,13,17,4,12,9,8,3,5,15,0,1,2,3,4,5,6,7,8,3,2,0,5,7,4,8,1,6",NA
"2185","sort_feedback","32","html-keyboard-response","197","2560916","0.0-6.0-9.0","1","2020-1-6 9:5:43","SHEEP",NA,NA,NA,NA,NA,NA,NA,NA,NA,NA,NA,NA,NA,NA
"19938","setup4",NA,"animation","198","2580857","0.0-6.0-10.0","1","2020-1-6 9:5:43","SHEEP",NA,NA,"[{""cat"":31,""src"":19,""loc"":6},{""cat"":31,""src"":0,""loc"":1},{""cat"":31,""src"":8,""loc"":3},{""cat"":9,""src"":15,""loc"":0},{""cat"":9,""src"":2,""loc"":5},{""cat"":9,""src"":7,""loc"":8},{""cat"":32,""src"":14,""loc"":2},{""cat"":32,""src"":11,""loc"":7},{""cat"":32,""src"":12,""loc"":4}]","4","1106,1104,1103,1104,1104,1104,1104,1102,1104,10003",NA,NA,NA,NA,NA,NA,NA,NA,NA
"1451","flanker_instructions","37","html-keyboard-response","199","2582312","0.0-6.0-11.0","1","2020-1-6 9:5:43","SHEEP",NA,NA,NA,NA,NA,NA,NA,NA,NA,NA,NA,NA,NA,NA
"806","flanker_test","37","image-keyboard-response","200","2584123","0.0-6.0-12.0-0.0","1","2020-1-6 9:5:43","SHEEP",NA,NA,NA,NA,NA,"congruent","left","TRUE",NA,NA,NA,NA,NA,NA
"674","flanker_test","39","image-keyboard-response","201","2585467","0.0-6.0-12.0-0.1","1","2020-1-6 9:5:43","SHEEP",NA,NA,NA,NA,NA,"incongruent","right","TRUE",NA,NA,NA,NA,NA,NA
"670","flanker_test","37","image-keyboard-response","202","2586626","0.0-6.0-12.0-0.2","1","2020-1-6 9:5:43","SHEEP",NA,NA,NA,NA,NA,"incongruent","left","TRUE",NA,NA,NA,NA,NA,NA
"457","flanker_test","39","image-keyboard-response","203","2587850","0.0-6.0-12.0-0.3","1","2020-1-6 9:5:43","SHEEP",NA,NA,NA,NA,NA,"congruent","right","TRUE",NA,NA,NA,NA,NA,NA
"33996","sort_trial",NA,"free-sort","204","2622597","0.0-6.0-13.0","1","2020-1-6 9:5:43","SHEEP",NA,NA,NA,NA,NA,NA,NA,NA,"[{""cat"":31,""src"":19,""x"":26,""y"":419},{""cat"":31,""src"":0,""x"":63,""y"":125},{""cat"":31,""src"":8,""x"":82,""y"":500},{""cat"":9,""src"":15,""x"":17,""y"":182},{""cat"":9,""src"":2,""x"":4,""y"":75},{""cat"":9,""src"":7,""x"":8,""y"":388},{""cat"":32,""src"":14,""x"":60,""y"":318},{""cat"":32,""src"":11,""x"":37,""y"":240},{""cat"":32,""src"":12,""x"":44,""y"":8}]","[{""cat"":""31"",""src"":""19"",""x"":0,""y"":0},{""cat"":""9"",""src"":""7"",""x"":0,""y"":0},{""cat"":""31"",""src"":""8"",""x"":0,""y"":0},{""cat"":""31"",""src"":""0"",""x"":0,""y"":0},{""cat"":""9"",""src"":""15"",""x"":0,""y"":0},{""cat"":""9"",""src"":""2"",""x"":0,""y"":0},{""cat"":""32"",""src"":""12"",""x"":0,""y"":0},{""cat"":""32"",""src"":""11"",""x"":0,""y"":0},{""cat"":""32"",""src"":""14"",""x"":0,""y"":0}]","[{""cat"":31,""src"":19,""loc"":6},{""cat"":9,""src"":7,""loc"":8},{""cat"":31,""src"":8,""loc"":7},{""cat"":31,""src"":0,""loc"":1},{""cat"":9,""src"":15,""loc"":0},{""cat"":9,""src"":2,""loc"":5},{""cat"":32,""src"":12,""loc"":2},{""cat"":32,""src"":11,""loc"":3},{""cat"":32,""src"":14,""loc"":4}]","5","9,31,32,32,32,9,31,31,9,15,0,12,11,14,2,19,8,7,0,1,2,3,4,5,6,7,8,4,3,6,7,8,5,0,2,1",NA
"2065","sort_feedback","32","html-keyboard-response","205","2624667","0.0-6.0-14.0","1","2020-1-6 9:5:43","SHEEP",NA,NA,NA,NA,NA,NA,NA,NA,NA,NA,NA,NA,NA,NA
"19943","setup1",NA,"animation","206","2644611","0.0-6.0-15.0","1","2020-1-6 9:5:43","SHEEP",NA,NA,"[{""cat"":25,""src"":12,""loc"":0},{""cat"":25,""src"":10,""loc"":2},{""cat"":25,""src"":9,""loc"":1},{""cat"":17,""src"":18,""loc"":4},{""cat"":17,""src"":1,""loc"":3},{""cat"":17,""src"":19,""loc"":5},{""cat"":6,""src"":10,""loc"":8},{""cat"":6,""src"":5,""loc"":6},{""cat"":6,""src"":13,""loc"":7}]","1","1108,1103,1104,1104,1104,1103,1104,1103,1105,10005",NA,NA,NA,NA,NA,NA,NA,NA,NA
"1386","flanker_instructions","37","html-keyboard-response","207","2646002","0.0-6.0-16.0","1","2020-1-6 9:5:43","SHEEP",NA,NA,NA,NA,NA,NA,NA,NA,NA,NA,NA,NA,NA,NA
"834","flanker_test","37","image-keyboard-response","208","2647841","0.0-6.0-17.0-0.0","1","2020-1-6 9:5:43","SHEEP",NA,NA,NA,NA,NA,"incongruent","left","TRUE",NA,NA,NA,NA,NA,NA
"713","flanker_test","39","image-keyboard-response","209","2649702","0.0-6.0-17.0-0.1","1","2020-1-6 9:5:43","SHEEP",NA,NA,NA,NA,NA,"incongruent","right","TRUE",NA,NA,NA,NA,NA,NA
"574","flanker_test","39","image-keyboard-response","210","2650658","0.0-6.0-17.0-0.2","1","2020-1-6 9:5:43","SHEEP",NA,NA,NA,NA,NA,"congruent","right","TRUE",NA,NA,NA,NA,NA,NA
"481","flanker_test","37","image-keyboard-response","211","2651589","0.0-6.0-17.0-0.3","1","2020-1-6 9:5:43","SHEEP",NA,NA,NA,NA,NA,"congruent","left","TRUE",NA,NA,NA,NA,NA,NA
"37554","sort_trial",NA,"free-sort","212","2689508","0.0-6.0-18.0","1","2020-1-6 9:5:43","SHEEP",NA,NA,NA,NA,NA,NA,NA,NA,"[{""cat"":25,""src"":12,""x"":51,""y"":482},{""cat"":25,""src"":10,""x"":2,""y"":182},{""cat"":25,""src"":9,""x"":76,""y"":257},{""cat"":17,""src"":18,""x"":10,""y"":387},{""cat"":17,""src"":1,""x"":27,""y"":317},{""cat"":17,""src"":19,""x"":5,""y"":76},{""cat"":6,""src"":10,""x"":21,""y"":29},{""cat"":6,""src"":5,""x"":32,""y"":443},{""cat"":6,""src"":13,""x"":3,""y"":119}]","[{""cat"":""25"",""src"":""12"",""x"":0,""y"":0},{""cat"":""17"",""src"":""19"",""x"":0,""y"":0},{""cat"":""6"",""src"":""13"",""x"":19,""y"":84},{""cat"":""25"",""src"":""9"",""x"":0,""y"":0},{""cat"":""17"",""src"":""18"",""x"":0,""y"":0},{""cat"":""17"",""src"":""1"",""x"":0,""y"":0},{""cat"":""6"",""src"":""13"",""x"":0,""y"":0},{""cat"":""6"",""src"":""10"",""x"":0,""y"":0},{""cat"":""25"",""src"":""10"",""x"":0,""y"":0},{""cat"":""6"",""src"":""5"",""x"":0,""y"":0}]","[{""cat"":25,""src"":12,""loc"":8},{""cat"":17,""src"":19,""loc"":4},{""cat"":25,""src"":9,""loc"":1},{""cat"":17,""src"":18,""loc"":3},{""cat"":17,""src"":1,""loc"":5},{""cat"":6,""src"":13,""loc"":7},{""cat"":6,""src"":10,""loc"":6},{""cat"":25,""src"":10,""loc"":0},{""cat"":6,""src"":5,""loc"":2}]","2","25,25,6,17,17,17,6,6,25,10,9,5,18,19,1,10,13,12,0,1,2,3,4,5,6,7,8,7,2,8,3,1,4,6,5,0",NA
"2040","sort_feedback","32","html-keyboard-response","213","2691553","0.0-6.0-19.0","1","2020-1-6 9:5:43","SHEEP",NA,NA,NA,NA,NA,NA,NA,NA,NA,NA,NA,NA,NA,NA
"19950","setup3",NA,"animation","214","2711506","0.0-6.0-20.0","1","2020-1-6 9:5:43","SHEEP",NA,NA,"[{""cat"":2,""src"":13,""loc"":0},{""cat"":9,""src"":5,""loc"":6},{""cat"":13,""src"":1,""loc"":5},{""cat"":13,""src"":18,""loc"":4},{""cat"":9,""src"":6,""loc"":7},{""cat"":2,""src"":0,""loc"":2},{""cat"":9,""src"":11,""loc"":8},{""cat"":13,""src"":9,""loc"":3},{""cat"":2,""src"":7,""loc"":1}]","3","1106,1103,1103,1103,1109,1103,1103,1106,1108,10005",NA,NA,NA,NA,NA,NA,NA,NA,NA
"1404","flanker_instructions","37","html-keyboard-response","215","2712914","0.0-6.0-21.0","1","2020-1-6 9:5:43","SHEEP",NA,NA,NA,NA,NA,NA,NA,NA,NA,NA,NA,NA,NA,NA
NA,"flanker_test",NA,"image-keyboard-response","216","2714821","0.0-6.0-22.0-0.0","1","2020-1-6 9:5:43","SHEEP",NA,NA,NA,NA,NA,"incongruent","left","FALSE",NA,NA,NA,NA,NA,NA
"566","flanker_test","39","image-keyboard-response","217","2716351","0.0-6.0-22.0-0.1","1","2020-1-6 9:5:43","SHEEP",NA,NA,NA,NA,NA,"congruent","right","TRUE",NA,NA,NA,NA,NA,NA
"526","flanker_test","37","image-keyboard-response","218","2717756","0.0-6.0-22.0-0.2","1","2020-1-6 9:5:43","SHEEP",NA,NA,NA,NA,NA,"congruent","left","TRUE",NA,NA,NA,NA,NA,NA
"749","flanker_test","39","image-keyboard-response","219","2718843","0.0-6.0-22.0-0.3","1","2020-1-6 9:5:43","SHEEP",NA,NA,NA,NA,NA,"incongruent","right","TRUE",NA,NA,NA,NA,NA,NA
"45878","sort_trial",NA,"free-sort","220","2765915","0.0-6.0-23.0","1","2020-1-6 9:5:43","SHEEP",NA,NA,NA,NA,NA,NA,NA,NA,"[{""cat"":2,""src"":13,""x"":53,""y"":65},{""cat"":9,""src"":5,""x"":13,""y"":133},{""cat"":13,""src"":1,""x"":54,""y"":259},{""cat"":13,""src"":18,""x"":49,""y"":28},{""cat"":9,""src"":6,""x"":78,""y"":496},{""cat"":2,""src"":0,""x"":33,""y"":308},{""cat"":9,""src"":11,""x"":61,""y"":374},{""cat"":13,""src"":9,""x"":55,""y"":200},{""cat"":2,""src"":7,""x"":67,""y"":429}]","[{""cat"":""9"",""src"":""11"",""x"":0,""y"":0},{""cat"":""13"",""src"":""9"",""x"":0,""y"":0},{""cat"":""9"",""src"":""5"",""x"":0,""y"":0},{""cat"":""9"",""src"":""6"",""x"":0,""y"":0},{""cat"":""2"",""src"":""0"",""x"":0,""y"":0},{""cat"":""2"",""src"":""7"",""x"":0,""y"":0},{""cat"":""13"",""src"":""1"",""x"":0,""y"":0},{""cat"":""2"",""src"":""13"",""x"":0,""y"":0},{""cat"":""13"",""src"":""18"",""x"":0,""y"":0}]","[{""cat"":9,""src"":11,""loc"":2},{""cat"":13,""src"":9,""loc"":3},{""cat"":9,""src"":5,""loc"":8},{""cat"":9,""src"":6,""loc"":7},{""cat"":2,""src"":0,""loc"":0},{""cat"":2,""src"":7,""loc"":1},{""cat"":13,""src"":1,""loc"":4},{""cat"":2,""src"":13,""loc"":6},{""cat"":13,""src"":18,""loc"":5}]","3","2,2,9,13,13,13,2,9,9,0,7,11,9,1,18,13,6,5,0,1,2,3,4,5,6,7,8,4,5,0,1,6,8,7,3,2",NA
"1989","sort_feedback","32","html-keyboard-response","221","2767911","0.0-6.0-24.0","1","2020-1-6 9:5:43","SHEEP",NA,NA,NA,NA,NA,NA,NA,NA,NA,NA,NA,NA,NA,NA
"19935","setup4",NA,"animation","222","2787848","0.0-6.0-25.0","1","2020-1-6 9:5:43","SHEEP",NA,NA,"[{""cat"":19,""src"":14,""loc"":2},{""cat"":19,""src"":15,""loc"":7},{""cat"":19,""src"":18,""loc"":5},{""cat"":0,""src"":9,""loc"":1},{""cat"":0,""src"":2,""loc"":3},{""cat"":0,""src"":17,""loc"":6},{""cat"":7,""src"":11,""loc"":4},{""cat"":7,""src"":17,""loc"":8},{""cat"":7,""src"":1,""loc"":0}]","4","1106,1103,1103,1103,1104,1103,1104,1103,1104,10002",NA,NA,NA,NA,NA,NA,NA,NA,NA
"1294","flanker_instructions","37","html-keyboard-response","223","2789146","0.0-6.0-26.0","1","2020-1-6 9:5:43","SHEEP",NA,NA,NA,NA,NA,NA,NA,NA,NA,NA,NA,NA,NA,NA
"651","flanker_test","39","image-keyboard-response","224","2790803","0.0-6.0-27.0-0.0","1","2020-1-6 9:5:43","SHEEP",NA,NA,NA,NA,NA,"congruent","right","TRUE",NA,NA,NA,NA,NA,NA
"720","flanker_test","39","image-keyboard-response","225","2792657","0.0-6.0-27.0-0.1","1","2020-1-6 9:5:43","SHEEP",NA,NA,NA,NA,NA,"incongruent","right","TRUE",NA,NA,NA,NA,NA,NA
"585","flanker_test","37","image-keyboard-response","226","2794300","0.0-6.0-27.0-0.2","1","2020-1-6 9:5:43","SHEEP",NA,NA,NA,NA,NA,"congruent","left","TRUE",NA,NA,NA,NA,NA,NA
"838","flanker_test","37","image-keyboard-response","227","2795770","0.0-6.0-27.0-0.3","1","2020-1-6 9:5:43","SHEEP",NA,NA,NA,NA,NA,"incongruent","left","TRUE",NA,NA,NA,NA,NA,NA
"34455","sort_trial",NA,"free-sort","228","2831107","0.0-6.0-28.0","1","2020-1-6 9:5:43","SHEEP",NA,NA,NA,NA,NA,NA,NA,NA,"[{""cat"":19,""src"":14,""x"":83,""y"":302},{""cat"":19,""src"":15,""x"":10,""y"":445},{""cat"":19,""src"":18,""x"":44,""y"":380},{""cat"":0,""src"":9,""x"":55,""y"":206},{""cat"":0,""src"":2,""x"":35,""y"":6},{""cat"":0,""src"":17,""x"":68,""y"":481},{""cat"":7,""src"":11,""x"":65,""y"":139},{""cat"":7,""src"":17,""x"":81,""y"":265},{""cat"":7,""src"":1,""x"":11,""y"":65}]","[{""cat"":""19"",""src"":""18"",""x"":0,""y"":0},{""cat"":""7"",""src"":""11"",""x"":0,""y"":0},{""cat"":""0"",""src"":""2"",""x"":0,""y"":0},{""cat"":""0"",""src"":""9"",""x"":0,""y"":0},{""cat"":""7"",""src"":""17"",""x"":0,""y"":0},{""cat"":""19"",""src"":""15"",""x"":0,""y"":0},{""cat"":""19"",""src"":""14"",""x"":0,""y"":0},{""cat"":""0"",""src"":""17"",""x"":0,""y"":0},{""cat"":""7"",""src"":""1"",""x"":0,""y"":0}]","[{""cat"":19,""src"":18,""loc"":5},{""cat"":7,""src"":11,""loc"":4},{""cat"":0,""src"":2,""loc"":3},{""cat"":0,""src"":9,""loc"":1},{""cat"":7,""src"":17,""loc"":8},{""cat"":19,""src"":15,""loc"":7},{""cat"":19,""src"":14,""loc"":2},{""cat"":0,""src"":17,""loc"":6},{""cat"":7,""src"":1,""loc"":0}]","9","7,0,19,0,7,19,0,19,7,1,9,14,2,11,18,17,15,17,0,1,2,3,4,5,6,7,8,8,3,6,2,1,0,7,5,4",NA
"4886","sort_feedback","32","html-keyboard-response","229","2835996","0.0-6.0-29.0","1","2020-1-6 9:5:43","SHEEP",NA,NA,NA,NA,NA,NA,NA,NA,NA,NA,NA,NA,NA,NA
"19934","setup5",NA,"animation","230","2855933","0.0-6.0-30.0","1","2020-1-6 9:5:43","SHEEP",NA,NA,"[{""cat"":7,""src"":17,""loc"":1},{""cat"":17,""src"":13,""loc"":7},{""cat"":29,""src"":15,""loc"":4},{""cat"":7,""src"":1,""loc"":5},{""cat"":17,""src"":12,""loc"":0},{""cat"":29,""src"":11,""loc"":6},{""cat"":17,""src"":16,""loc"":3},{""cat"":7,""src"":6,""loc"":8},{""cat"":29,""src"":14,""loc"":2}]","5","1105,1102,1104,1103,1104,1104,1102,1104,1104,10002",NA,NA,NA,NA,NA,NA,NA,NA,NA
"1755","flanker_instructions","37","html-keyboard-response","231","2857692","0.0-6.0-31.0","1","2020-1-6 9:5:43","SHEEP",NA,NA,NA,NA,NA,NA,NA,NA,NA,NA,NA,NA,NA,NA
"698","flanker_test","37","image-keyboard-response","232","2859397","0.0-6.0-32.0-0.0","1","2020-1-6 9:5:43","SHEEP",NA,NA,NA,NA,NA,"congruent","left","TRUE",NA,NA,NA,NA,NA,NA
"687","flanker_test","37","image-keyboard-response","233","2860547","0.0-6.0-32.0-0.1","1","2020-1-6 9:5:43","SHEEP",NA,NA,NA,NA,NA,"incongruent","left","TRUE",NA,NA,NA,NA,NA,NA
"746","flanker_test","39","image-keyboard-response","234","2861920","0.0-6.0-32.0-0.2","1","2020-1-6 9:5:43","SHEEP",NA,NA,NA,NA,NA,"incongruent","right","TRUE",NA,NA,NA,NA,NA,NA
"563","flanker_test","39","image-keyboard-response","235","2862912","0.0-6.0-32.0-0.3","1","2020-1-6 9:5:43","SHEEP",NA,NA,NA,NA,NA,"congruent","right","TRUE",NA,NA,NA,NA,NA,NA
"38521","sort_trial",NA,"free-sort","236","2902305","0.0-6.0-33.0","1","2020-1-6 9:5:43","SHEEP",NA,NA,NA,NA,NA,NA,NA,NA,"[{""cat"":7,""src"":17,""x"":28,""y"":244},{""cat"":17,""src"":13,""x"":30,""y"":131},{""cat"":29,""src"":15,""x"":76,""y"":310},{""cat"":7,""src"":1,""x"":54,""y"":88},{""cat"":17,""src"":12,""x"":32,""y"":378},{""cat"":29,""src"":11,""x"":35,""y"":7},{""cat"":17,""src"":16,""x"":9,""y"":188},{""cat"":7,""src"":6,""x"":0,""y"":507},{""cat"":29,""src"":14,""x"":75,""y"":420}]","[{""cat"":""7"",""src"":""1"",""x"":0,""y"":0},{""cat"":""29"",""src"":""15"",""x"":0,""y"":0},{""cat"":""17"",""src"":""16"",""x"":0,""y"":0},{""cat"":""17"",""src"":""13"",""x"":30,""y"":131},{""cat"":""17"",""src"":""12"",""x"":0,""y"":0},{""cat"":""29"",""src"":""11"",""x"":0,""y"":0},{""cat"":""7"",""src"":""17"",""x"":0,""y"":0},{""cat"":""17"",""src"":""13"",""x"":30,""y"":131},{""cat"":""29"",""src"":""14"",""x"":0,""y"":0},{""cat"":""7"",""src"":""6"",""x"":0,""y"":0},{""cat"":""17"",""src"":""13"",""x"":0,""y"":0}]","[{""cat"":7,""src"":1,""loc"":5},{""cat"":29,""src"":15,""loc"":4},{""cat"":17,""src"":16,""loc"":3},{""cat"":17,""src"":12,""loc"":0},{""cat"":29,""src"":11,""loc"":6},{""cat"":7,""src"":17,""loc"":8},{""cat"":29,""src"":14,""loc"":7},{""cat"":7,""src"":6,""loc"":1},{""cat"":17,""src"":13,""loc"":2}]","5","17,7,17,17,29,7,29,29,7,12,6,13,16,15,1,11,14,17,0,1,2,3,4,5,6,7,8,3,7,8,2,1,0,4,6,5",NA
"1961","sort_feedback","32","html-keyboard-response","237","2904270","0.0-6.0-34.0","1","2020-1-6 9:5:43","SHEEP",NA,NA,NA,NA,NA,NA,NA,NA,NA,NA,NA,NA,NA,NA
"19936","setup1",NA,"animation","238","2924207","0.0-6.0-35.0","1","2020-1-6 9:5:43","SHEEP",NA,NA,"[{""cat"":3,""src"":10,""loc"":6},{""cat"":3,""src"":3,""loc"":8},{""cat"":3,""src"":15,""loc"":7},{""cat"":32,""src"":0,""loc"":5},{""cat"":32,""src"":10,""loc"":3},{""cat"":32,""src"":7,""loc"":4},{""cat"":12,""src"":1,""loc"":0},{""cat"":12,""src"":7,""loc"":2},{""cat"":12,""src"":19,""loc"":1}]","1","1106,1104,1104,1104,1103,1103,1104,1104,1103,10000",NA,NA,NA,NA,NA,NA,NA,NA,NA
"1241","flanker_instructions","37","html-keyboard-response","239","2925453","0.0-6.0-36.0","1","2020-1-6 9:5:43","SHEEP",NA,NA,NA,NA,NA,NA,NA,NA,NA,NA,NA,NA,NA,NA
"674","flanker_test","37","image-keyboard-response","240","2927132","0.0-6.0-37.0-0.0","1","2020-1-6 9:5:43","SHEEP",NA,NA,NA,NA,NA,"congruent","left","TRUE",NA,NA,NA,NA,NA,NA
"774","flanker_test","37","image-keyboard-response","241","2928437","0.0-6.0-37.0-0.1","1","2020-1-6 9:5:43","SHEEP",NA,NA,NA,NA,NA,"incongruent","left","TRUE",NA,NA,NA,NA,NA,NA
"665","flanker_test","39","image-keyboard-response","242","2929994","0.0-6.0-37.0-0.2","1","2020-1-6 9:5:43","SHEEP",NA,NA,NA,NA,NA,"incongruent","right","TRUE",NA,NA,NA,NA,NA,NA
"567","flanker_test","39","image-keyboard-response","243","2931630","0.0-6.0-37.0-0.3","1","2020-1-6 9:5:43","SHEEP",NA,NA,NA,NA,NA,"congruent","right","TRUE",NA,NA,NA,NA,NA,NA
"28225","sort_trial",NA,"free-sort","244","2960306","0.0-6.0-38.0","1","2020-1-6 9:5:43","SHEEP",NA,NA,NA,NA,NA,NA,NA,NA,"[{""cat"":3,""src"":10,""x"":60,""y"":495},{""cat"":3,""src"":3,""x"":82,""y"":191},{""cat"":3,""src"":15,""x"":70,""y"":136},{""cat"":32,""src"":0,""x"":15,""y"":15},{""cat"":32,""src"":10,""x"":81,""y"":66},{""cat"":32,""src"":7,""x"":28,""y"":423},{""cat"":12,""src"":1,""x"":45,""y"":324},{""cat"":12,""src"":7,""x"":33,""y"":248},{""cat"":12,""src"":19,""x"":64,""y"":370}]","[{""cat"":""32"",""src"":""0"",""x"":0,""y"":0},{""cat"":""32"",""src"":""10"",""x"":0,""y"":0},{""cat"":""32"",""src"":""7"",""x"":0,""y"":0},{""cat"":""3"",""src"":""10"",""x"":0,""y"":0},{""cat"":""3"",""src"":""15"",""x"":0,""y"":0},{""cat"":""3"",""src"":""3"",""x"":0,""y"":0},{""cat"":""12"",""src"":""19"",""x"":0,""y"":0},{""cat"":""12"",""src"":""1"",""x"":0,""y"":0},{""cat"":""12"",""src"":""7"",""x"":0,""y"":0}]","[{""cat"":32,""src"":0,""loc"":5},{""cat"":32,""src"":10,""loc"":4},{""cat"":32,""src"":7,""loc"":3},{""cat"":3,""src"":10,""loc"":6},{""cat"":3,""src"":15,""loc"":7},{""cat"":3,""src"":3,""loc"":8},{""cat"":12,""src"":19,""loc"":1},{""cat"":12,""src"":1,""loc"":2},{""cat"":12,""src"":7,""loc"":0}]","5","12,12,12,32,32,32,3,3,3,7,19,1,7,10,0,10,15,3,0,1,2,3,4,5,6,7,8,8,6,7,2,1,0,3,4,5",NA
"2485","sort_feedback","32","html-keyboard-response","245","2962794","0.0-6.0-39.0","1","2020-1-6 9:5:43","SHEEP",NA,NA,NA,NA,NA,NA,NA,NA,NA,NA,NA,NA,NA,NA
"19936","setup2",NA,"animation","246","2982733","0.0-6.0-40.0","1","2020-1-6 9:5:43","SHEEP",NA,NA,"[{""cat"":21,""src"":4,""loc"":7},{""cat"":32,""src"":17,""loc"":6},{""cat"":18,""src"":18,""loc"":8},{""cat"":32,""src"":1,""loc"":5},{""cat"":21,""src"":15,""loc"":4},{""cat"":18,""src"":13,""loc"":3},{""cat"":21,""src"":17,""loc"":2},{""cat"":18,""src"":6,""loc"":1},{""cat"":32,""src"":12,""loc"":0}]","2","1108,1105,1101,1102,1103,1104,1103,1104,1105,10001",NA,NA,NA,NA,NA,NA,NA,NA,NA
"1733","flanker_instructions","37","html-keyboard-response","247","2984469","0.0-6.0-41.0","1","2020-1-6 9:5:43","SHEEP",NA,NA,NA,NA,NA,NA,NA,NA,NA,NA,NA,NA,NA,NA
NA,"flanker_test",NA,"image-keyboard-response","248","2986376","0.0-6.0-42.0-0.0","1","2020-1-6 9:5:43","SHEEP",NA,NA,NA,NA,NA,"incongruent","left","FALSE",NA,NA,NA,NA,NA,NA
"663","flanker_test","39","image-keyboard-response","249","2987871","0.0-6.0-42.0-0.1","1","2020-1-6 9:5:43","SHEEP",NA,NA,NA,NA,NA,"incongruent","right","TRUE",NA,NA,NA,NA,NA,NA
"553","flanker_test","39","image-keyboard-response","250","2989223","0.0-6.0-42.0-0.2","1","2020-1-6 9:5:43","SHEEP",NA,NA,NA,NA,NA,"congruent","right","TRUE",NA,NA,NA,NA,NA,NA
"507","flanker_test","37","image-keyboard-response","251","2990809","0.0-6.0-42.0-0.3","1","2020-1-6 9:5:43","SHEEP",NA,NA,NA,NA,NA,"congruent","left","TRUE",NA,NA,NA,NA,NA,NA
"31689","sort_trial",NA,"free-sort","252","3023336","0.0-6.0-43.0","1","2020-1-6 9:5:43","SHEEP",NA,NA,NA,NA,NA,NA,NA,NA,"[{""cat"":21,""src"":4,""x"":37,""y"":1},{""cat"":32,""src"":17,""x"":23,""y"":66},{""cat"":18,""src"":18,""x"":29,""y"":306},{""cat"":32,""src"":1,""x"":12,""y"":207},{""cat"":21,""src"":15,""x"":22,""y"":435},{""cat"":18,""src"":13,""x"":71,""y"":240},{""cat"":21,""src"":17,""x"":14,""y"":120},{""cat"":18,""src"":6,""x"":79,""y"":386},{""cat"":32,""src"":12,""x"":58,""y"":487}]","[{""cat"":""32"",""src"":""1"",""x"":0,""y"":0},{""cat"":""18"",""src"":""13"",""x"":0,""y"":0},{""cat"":""18"",""src"":""18"",""x"":0,""y"":0},{""cat"":""21"",""src"":""15"",""x"":0,""y"":0},{""cat"":""32"",""src"":""17"",""x"":0,""y"":0},{""cat"":""21"",""src"":""4"",""x"":0,""y"":0},{""cat"":""32"",""src"":""12"",""x"":57,""y"":268},{""cat"":""18"",""src"":""6"",""x"":0,""y"":0},{""cat"":""32"",""src"":""12"",""x"":0,""y"":0},{""cat"":""21"",""src"":""17"",""x"":0,""y"":0}]","[{""cat"":32,""src"":1,""loc"":5},{""cat"":18,""src"":13,""loc"":3},{""cat"":18,""src"":18,""loc"":8},{""cat"":21,""src"":15,""loc"":4},{""cat"":32,""src"":17,""loc"":6},{""cat"":21,""src"":4,""loc"":2},{""cat"":18,""src"":6,""loc"":7},{""cat"":32,""src"":12,""loc"":1},{""cat"":21,""src"":17,""loc"":0}]","5","21,32,21,18,21,32,32,18,18,17,12,4,13,15,1,17,6,18,0,1,2,3,4,5,6,7,8,8,7,5,1,3,0,4,6,2",NA
"2433","sort_feedback","32","html-keyboard-response","253","3025774","0.0-6.0-44.0","1","2020-1-6 9:5:43","SHEEP",NA,NA,NA,NA,NA,NA,NA,NA,NA,NA,NA,NA,NA,NA
"19934","setup3",NA,"animation","254","3045709","0.0-6.0-45.0","1","2020-1-6 9:5:43","SHEEP",NA,NA,"[{""cat"":23,""src"":13,""loc"":2},{""cat"":24,""src"":8,""loc"":5},{""cat"":16,""src"":4,""loc"":6},{""cat"":24,""src"":1,""loc"":3},{""cat"":16,""src"":19,""loc"":8},{""cat"":23,""src"":3,""loc"":0},{""cat"":24,""src"":6,""loc"":4},{""cat"":23,""src"":0,""loc"":1},{""cat"":16,""src"":15,""loc"":7}]","3","1105,1103,1103,1103,1102,1104,1103,1105,1104,10001",NA,NA,NA,NA,NA,NA,NA,NA,NA
"1779","flanker_instructions","37","html-keyboard-response","255","3047490","0.0-6.0-46.0","1","2020-1-6 9:5:43","SHEEP",NA,NA,NA,NA,NA,NA,NA,NA,NA,NA,NA,NA,NA,NA
"740","flanker_test","39","image-keyboard-response","256","3049236","0.0-6.0-47.0-0.0","1","2020-1-6 9:5:43","SHEEP",NA,NA,NA,NA,NA,"congruent","right","TRUE",NA,NA,NA,NA,NA,NA
"583","flanker_test","37","image-keyboard-response","257","3050401","0.0-6.0-47.0-0.1","1","2020-1-6 9:5:43","SHEEP",NA,NA,NA,NA,NA,"congruent","left","TRUE",NA,NA,NA,NA,NA,NA
NA,"flanker_test",NA,"image-keyboard-response","258","3052103","0.0-6.0-47.0-0.2","1","2020-1-6 9:5:43","SHEEP",NA,NA,NA,NA,NA,"incongruent","left","FALSE",NA,NA,NA,NA,NA,NA
"696","flanker_test","39","image-keyboard-response","259","3053116","0.0-6.0-47.0-0.3","1","2020-1-6 9:5:43","SHEEP",NA,NA,NA,NA,NA,"incongruent","right","TRUE",NA,NA,NA,NA,NA,NA
"33940","sort_trial",NA,"free-sort","260","3087382","0.0-6.0-48.0","1","2020-1-6 9:5:43","SHEEP",NA,NA,NA,NA,NA,NA,NA,NA,"[{""cat"":23,""src"":13,""x"":31,""y"":59},{""cat"":24,""src"":8,""x"":56,""y"":321},{""cat"":16,""src"":4,""x"":13,""y"":250},{""cat"":24,""src"":1,""x"":44,""y"":432},{""cat"":16,""src"":19,""x"":6,""y"":362},{""cat"":23,""src"":3,""x"":82,""y"":137},{""cat"":24,""src"":6,""x"":42,""y"":13},{""cat"":23,""src"":0,""x"":38,""y"":196},{""cat"":16,""src"":15,""x"":61,""y"":489}]","[{""cat"":""23"",""src"":""0"",""x"":0,""y"":0},{""cat"":""23"",""src"":""3"",""x"":0,""y"":0},{""cat"":""23"",""src"":""13"",""x"":0,""y"":0},{""cat"":""16"",""src"":""4"",""x"":0,""y"":0},{""cat"":""16"",""src"":""19"",""x"":0,""y"":0},{""cat"":""24"",""src"":""8"",""x"":0,""y"":0},{""cat"":""16"",""src"":""15"",""x"":0,""y"":0},{""cat"":""24"",""src"":""6"",""x"":0,""y"":0},{""cat"":""24"",""src"":""1"",""x"":0,""y"":0}]","[{""cat"":23,""src"":0,""loc"":1},{""cat"":23,""src"":3,""loc"":2},{""cat"":23,""src"":13,""loc"":6},{""cat"":16,""src"":4,""loc"":8},{""cat"":16,""src"":19,""loc"":7},{""cat"":24,""src"":8,""loc"":5},{""cat"":16,""src"":15,""loc"":0},{""cat"":24,""src"":6,""loc"":4},{""cat"":24,""src"":1,""loc"":3}]","4","16,23,23,24,24,24,23,16,16,15,0,3,1,6,8,13,19,4,0,1,2,3,4,5,6,7,8,6,0,1,8,7,5,2,4,3",NA
"2773","sort_feedback","32","html-keyboard-response","261","3090161","0.0-6.0-49.0","1","2020-1-6 9:5:43","SHEEP",NA,NA,NA,NA,NA,NA,NA,NA,NA,NA,NA,NA,NA,NA
"3562","demographics",NA,"html-button-response","262","3093727","0.0-7.0-0.0","1","2020-1-6 9:5:43","SHEEP","0",NA,NA,NA,NA,NA,NA,NA,NA,NA,NA,NA,NA,NA
"12546","workerID",NA,"survey-text","263","3106277","0.0-7.0-1.0","1","2020-1-6 9:5:43","SHEEP",NA,NA,NA,NA,NA,NA,NA,NA,NA,NA,NA,NA,NA,"{""Q0"":""AOS2PVHT2HYTL""}"
"10632","attn_check",NA,"survey-multi-choice","264","3116923","0.0-7.0-2.0","1","2020-1-6 9:5:43","SHEEP",NA,NA,NA,NA,NA,NA,NA,NA,NA,NA,NA,NA,NA,"{""Q0"":""SHEEP""}"
"5726","age",NA,"survey-text","265","3122656","0.0-7.0-3.0","1","2020-1-6 9:5:43","SHEEP",NA,NA,NA,NA,NA,NA,NA,NA,NA,NA,NA,NA,NA,"{""Q0"":""65""}"
"3229","gender",NA,"survey-multi-choice","266","3125893","0.0-7.0-4.0","1","2020-1-6 9:5:43","SHEEP",NA,NA,NA,NA,NA,NA,NA,NA,NA,NA,NA,NA,NA,"{""Q0"":""Female""}"
"3992","ethnic",NA,"survey-multi-choice","267","3129891","0.0-7.0-5.0","1","2020-1-6 9:5:43","SHEEP",NA,NA,NA,NA,NA,NA,NA,NA,NA,NA,NA,NA,NA,"{""Q0"":""Not Hispanic or Latino""}"
"3570","race",NA,"survey-multi-select","268","3133472","0.0-7.0-6.0","1","2020-1-6 9:5:43","SHEEP",NA,NA,NA,NA,NA,NA,NA,NA,NA,NA,NA,NA,NA,"{""Q0"":[""White""]}"
"3345","english",NA,"survey-multi-choice","269","3136823","0.0-7.0-7.0","1","2020-1-6 9:5:43","SHEEP",NA,NA,NA,NA,NA,NA,NA,NA,NA,NA,NA,NA,NA,"{""Q0"":""Yes""}"
"4468","understand",NA,"survey-multi-choice","270","3141298","0.0-7.0-8.0","1","2020-1-6 9:5:43","SHEEP",NA,NA,NA,NA,NA,NA,NA,NA,NA,NA,NA,NA,NA,"{""Q0"":""No""}"
"92931","strategies",NA,"survey-text","271","3234236","0.0-7.0-9.0","1","2020-1-6 9:5:43","SHEEP",NA,NA,NA,NA,NA,NA,NA,NA,NA,NA,NA,NA,NA,"{""Q0"":""In some cases I tried to associate the word with where it was.  I also tried to see if they were grouped in any special way, and some seemed to be.  I also said the words aloud in a certain order and tried to remember them.""}"
"46556","comments",NA,"survey-text","272","3280797","0.0-7.0-10.0","1","2020-1-6 9:5:43","SHEEP",NA,NA,NA,NA,NA,NA,NA,NA,NA,NA,NA,NA,NA,"{""Q0"":""Well, I was definitely surprised at the ones that were 9/9.  Good guesswork in some cases!""}"
"3710","study_end",NA,"html-button-response","273","3284511","0.0-8.0","1","2020-1-6 9:5:43","SHEEP","0",NA,NA,NA,NA,NA,NA,NA,NA,NA,NA,NA,NA,NA
