"rt","stimulus","key_press","trial_type","trial_index","time_elapsed","internal_node_id","session","startTime","attn_word","button_pressed","view_history","animation_sequence","condition","time_sequence","stim_type","direction","correct","init_locations","moves","final_locations","sort_correct","finalLocations","responses"
"2847","welcome","32","html-keyboard-response","0","2871","0.0-0.0","1","2020-1-6 12:36:20","ELEPHANT",NA,NA,NA,NA,NA,NA,NA,NA,NA,NA,NA,NA,NA,NA
"6636","consent",NA,"html-button-response","1","9513","0.0-1.0","1","2020-1-6 12:36:20","ELEPHANT","0",NA,NA,NA,NA,NA,NA,NA,NA,NA,NA,NA,NA,NA
"188918","instructions",NA,"instructions","2","198433","0.0-2.0","1","2020-1-6 12:36:20","ELEPHANT",NA,"[{""page_index"":0,""viewing_time"":12297},{""page_index"":1,""viewing_time"":123923},{""page_index"":2,""viewing_time"":10039},{""page_index"":3,""viewing_time"":7319},{""page_index"":4,""viewing_time"":5811},{""page_index"":5,""viewing_time"":23957},{""page_index"":6,""viewing_time"":5571}]",NA,NA,NA,NA,NA,NA,NA,NA,NA,NA,NA,NA
"20025","setup5",NA,"animation","3","218461","0.0-3.0-0.0","1","2020-1-6 12:36:20","ELEPHANT",NA,NA,"[{""cat"":27,""src"":18,""loc"":2},{""cat"":18,""src"":11,""loc"":6},{""cat"":6,""src"":9,""loc"":4},{""cat"":6,""src"":0,""loc"":0},{""cat"":18,""src"":3,""loc"":5},{""cat"":27,""src"":14,""loc"":8},{""cat"":6,""src"":19,""loc"":7},{""cat"":27,""src"":1,""loc"":3},{""cat"":18,""src"":19,""loc"":1}]","5","1119,1119,1103,1114,1115,1128,1103,1103,1109,10011",NA,NA,NA,NA,NA,NA,NA,NA,NA
"9844","flanker_instructions","32","html-keyboard-response","4","228310","0.0-3.0-1.0","1","2020-1-6 12:36:20","ELEPHANT",NA,NA,NA,NA,NA,NA,NA,NA,NA,NA,NA,NA,NA,NA
NA,"flanker_test",NA,"image-keyboard-response","5","230218","0.0-3.0-2.0-0.0","1","2020-1-6 12:36:20","ELEPHANT",NA,NA,NA,NA,NA,"congruent","left","FALSE",NA,NA,NA,NA,NA,NA
NA,"flanker_test",NA,"image-keyboard-response","6","231544","0.0-3.0-2.0-0.1","1","2020-1-6 12:36:20","ELEPHANT",NA,NA,NA,NA,NA,"incongruent","right","FALSE",NA,NA,NA,NA,NA,NA
NA,"flanker_test",NA,"image-keyboard-response","7","233107","0.0-3.0-2.0-0.2","1","2020-1-6 12:36:20","ELEPHANT",NA,NA,NA,NA,NA,"incongruent","left","FALSE",NA,NA,NA,NA,NA,NA
NA,"flanker_test",NA,"image-keyboard-response","8","234695","0.0-3.0-2.0-0.3","1","2020-1-6 12:36:20","ELEPHANT",NA,NA,NA,NA,NA,"congruent","right","FALSE",NA,NA,NA,NA,NA,NA
"30385","sort_trial",NA,"free-sort","9","265913","0.0-3.0-3.0","1","2020-1-6 12:36:20","ELEPHANT",NA,NA,NA,NA,NA,NA,NA,NA,"[{""cat"":27,""src"":18,""x"":37,""y"":503},{""cat"":18,""src"":11,""x"":59,""y"":73},{""cat"":6,""src"":9,""x"":76,""y"":4},{""cat"":6,""src"":0,""x"":76,""y"":202},{""cat"":18,""src"":3,""x"":9,""y"":316},{""cat"":27,""src"":14,""x"":6,""y"":381},{""cat"":6,""src"":19,""x"":61,""y"":254},{""cat"":27,""src"":1,""x"":48,""y"":433},{""cat"":18,""src"":19,""x"":60,""y"":132}]","[{""cat"":""18"",""src"":""19"",""x"":0,""y"":0},{""cat"":""6"",""src"":""0"",""x"":0,""y"":0},{""cat"":""6"",""src"":""19"",""x"":0,""y"":0},{""cat"":""27"",""src"":""14"",""x"":0,""y"":0},{""cat"":""18"",""src"":""3"",""x"":0,""y"":0},{""cat"":""27"",""src"":""1"",""x"":630,""y"":171},{""cat"":""27"",""src"":""1"",""x"":640,""y"":124},{""cat"":""27"",""src"":""1"",""x"":0,""y"":0},{""cat"":""27"",""src"":""18"",""x"":0,""y"":0},{""cat"":""6"",""src"":""9"",""x"":0,""y"":0},{""cat"":""18"",""src"":""11"",""x"":0,""y"":0}]","[{""cat"":18,""src"":19,""loc"":0},{""cat"":6,""src"":0,""loc"":1},{""cat"":6,""src"":19,""loc"":2},{""cat"":27,""src"":14,""loc"":8},{""cat"":18,""src"":3,""loc"":6},{""cat"":27,""src"":1,""loc"":3},{""cat"":27,""src"":18,""loc"":4},{""cat"":6,""src"":9,""loc"":5},{""cat"":18,""src"":11,""loc"":7}]","2","18,6,6,27,27,6,18,18,27,19,0,19,1,18,9,3,11,14,0,1,2,3,4,5,6,7,8,0,1,2,5,6,7,4,8,3",NA
"5574","sort_feedback","32","html-keyboard-response","10","271491","0.0-3.0-4.0","1","2020-1-6 12:36:20","ELEPHANT",NA,NA,NA,NA,NA,NA,NA,NA,NA,NA,NA,NA,NA,NA
"20001","setup5",NA,"animation","11","291495","0.0-3.0-5.0","1","2020-1-6 12:36:20","ELEPHANT",NA,NA,"[{""cat"":30,""src"":0,""loc"":8},{""cat"":31,""src"":11,""loc"":5},{""cat"":13,""src"":11,""loc"":0},{""cat"":13,""src"":17,""loc"":3},{""cat"":31,""src"":19,""loc"":7},{""cat"":30,""src"":1,""loc"":2},{""cat"":13,""src"":1,""loc"":6},{""cat"":30,""src"":9,""loc"":4},{""cat"":31,""src"":7,""loc"":1}]","5","1106,1103,1105,1104,1107,1108,1128,1105,1117,10018",NA,NA,NA,NA,NA,NA,NA,NA,NA
"4776","flanker_instructions","37","html-keyboard-response","12","296280","0.0-3.0-6.0","1","2020-1-6 12:36:20","ELEPHANT",NA,NA,NA,NA,NA,NA,NA,NA,NA,NA,NA,NA,NA,NA
NA,"flanker_test",NA,"image-keyboard-response","13","298204","0.0-3.0-7.0-0.0","1","2020-1-6 12:36:20","ELEPHANT",NA,NA,NA,NA,NA,"incongruent","left","FALSE",NA,NA,NA,NA,NA,NA
"589","flanker_test","37","image-keyboard-response","14","299382","0.0-3.0-7.0-0.1","1","2020-1-6 12:36:20","ELEPHANT",NA,NA,NA,NA,NA,"congruent","left","TRUE",NA,NA,NA,NA,NA,NA
"618","flanker_test","39","image-keyboard-response","15","300718","0.0-3.0-7.0-0.2","1","2020-1-6 12:36:20","ELEPHANT",NA,NA,NA,NA,NA,"congruent","right","TRUE",NA,NA,NA,NA,NA,NA
"818","flanker_test","37","image-keyboard-response","16","302548","0.0-3.0-7.0-0.3","1","2020-1-6 12:36:20","ELEPHANT",NA,NA,NA,NA,NA,"incongruent","right","FALSE",NA,NA,NA,NA,NA,NA
"39717","sort_trial",NA,"free-sort","17","343359","0.0-3.0-8.0","1","2020-1-6 12:36:20","ELEPHANT",NA,NA,NA,NA,NA,NA,NA,NA,"[{""cat"":30,""src"":0,""x"":74,""y"":79},{""cat"":31,""src"":11,""x"":34,""y"":24},{""cat"":13,""src"":11,""x"":34,""y"":426},{""cat"":13,""src"":17,""x"":55,""y"":381},{""cat"":31,""src"":19,""x"":50,""y"":313},{""cat"":30,""src"":1,""x"":43,""y"":484},{""cat"":13,""src"":1,""x"":73,""y"":188},{""cat"":30,""src"":9,""x"":13,""y"":147},{""cat"":31,""src"":7,""x"":12,""y"":262}]","[{""cat"":""30"",""src"":""0"",""x"":0,""y"":0},{""cat"":""30"",""src"":""9"",""x"":0,""y"":0},{""cat"":""31"",""src"":""11"",""x"":0,""y"":0},{""cat"":""30"",""src"":""1"",""x"":0,""y"":0},{""cat"":""13"",""src"":""1"",""x"":0,""y"":0},{""cat"":""31"",""src"":""19"",""x"":0,""y"":0},{""cat"":""13"",""src"":""17"",""x"":0,""y"":0},{""cat"":""31"",""src"":""7"",""x"":0,""y"":0},{""cat"":""13"",""src"":""11"",""x"":0,""y"":0}]","[{""cat"":30,""src"":0,""loc"":6},{""cat"":30,""src"":9,""loc"":3},{""cat"":31,""src"":11,""loc"":5},{""cat"":30,""src"":1,""loc"":8},{""cat"":13,""src"":1,""loc"":7},{""cat"":31,""src"":19,""loc"":0},{""cat"":13,""src"":17,""loc"":2},{""cat"":31,""src"":7,""loc"":1},{""cat"":13,""src"":11,""loc"":4}]","2","31,31,13,30,13,31,30,13,30,19,7,17,9,11,11,0,1,1,0,1,2,3,4,5,6,7,8,5,7,6,1,8,2,0,4,3",NA
"3586","sort_feedback","32","html-keyboard-response","18","346949","0.0-3.0-9.0","1","2020-1-6 12:36:20","ELEPHANT",NA,NA,NA,NA,NA,NA,NA,NA,NA,NA,NA,NA,NA,NA
"16854","finalInstructions",NA,"html-button-response","19","363805","0.0-4.0-0.0","1","2020-1-6 12:36:20","ELEPHANT","0",NA,NA,NA,NA,NA,NA,NA,NA,NA,NA,NA,NA,NA
"20033","setup4",NA,"animation","20","383842","0.0-4.0-1.0","1","2020-1-6 12:36:20","ELEPHANT",NA,NA,"[{""cat"":12,""src"":0,""loc"":3},{""cat"":12,""src"":13,""loc"":2},{""cat"":12,""src"":7,""loc"":8},{""cat"":24,""src"":8,""loc"":0},{""cat"":24,""src"":6,""loc"":7},{""cat"":24,""src"":12,""loc"":4},{""cat"":3,""src"":10,""loc"":1},{""cat"":3,""src"":6,""loc"":5},{""cat"":3,""src"":14,""loc"":6}]","4","1113,1117,1117,1117,1116,1115,1103,1114,1115,10006",NA,NA,NA,NA,NA,NA,NA,NA,NA
"2163","flanker_instructions","37","html-keyboard-response","21","386009","0.0-4.0-2.0","1","2020-1-6 12:36:20","ELEPHANT",NA,NA,NA,NA,NA,NA,NA,NA,NA,NA,NA,NA,NA,NA
NA,"flanker_test",NA,"image-keyboard-response","22","387946","0.0-4.0-3.0-0.0","1","2020-1-6 12:36:20","ELEPHANT",NA,NA,NA,NA,NA,"incongruent","left","FALSE",NA,NA,NA,NA,NA,NA
"711","flanker_test","37","image-keyboard-response","23","389715","0.0-4.0-3.0-0.1","1","2020-1-6 12:36:20","ELEPHANT",NA,NA,NA,NA,NA,"incongruent","right","FALSE",NA,NA,NA,NA,NA,NA
"685","flanker_test","37","image-keyboard-response","24","391063","0.0-4.0-3.0-0.2","1","2020-1-6 12:36:20","ELEPHANT",NA,NA,NA,NA,NA,"congruent","left","TRUE",NA,NA,NA,NA,NA,NA
NA,"flanker_test",NA,"image-keyboard-response","25","392686","0.0-4.0-3.0-0.3","1","2020-1-6 12:36:20","ELEPHANT",NA,NA,NA,NA,NA,"congruent","right","FALSE",NA,NA,NA,NA,NA,NA
"36272","sort_trial",NA,"free-sort","26","429407","0.0-4.0-4.0","1","2020-1-6 12:36:20","ELEPHANT",NA,NA,NA,NA,NA,NA,NA,NA,"[{""cat"":12,""src"":0,""x"":5,""y"":25},{""cat"":12,""src"":13,""x"":63,""y"":379},{""cat"":12,""src"":7,""x"":13,""y"":121},{""cat"":24,""src"":8,""x"":50,""y"":262},{""cat"":24,""src"":6,""x"":25,""y"":448},{""cat"":24,""src"":12,""x"":44,""y"":486},{""cat"":3,""src"":10,""x"":52,""y"":306},{""cat"":3,""src"":6,""x"":36,""y"":68},{""cat"":3,""src"":14,""x"":23,""y"":180}]","[{""cat"":""3"",""src"":""6"",""x"":0,""y"":0},{""cat"":""12"",""src"":""7"",""x"":0,""y"":0},{""cat"":""24"",""src"":""6"",""x"":0,""y"":0},{""cat"":""24"",""src"":""12"",""x"":0,""y"":0},{""cat"":""3"",""src"":""10"",""x"":0,""y"":0},{""cat"":""12"",""src"":""0"",""x"":601,""y"":202},{""cat"":""12"",""src"":""0"",""x"":0,""y"":0},{""cat"":""12"",""src"":""13"",""x"":0,""y"":0},{""cat"":""3"",""src"":""14"",""x"":0,""y"":0},{""cat"":""24"",""src"":""8"",""x"":0,""y"":0}]","[{""cat"":3,""src"":6,""loc"":6},{""cat"":12,""src"":7,""loc"":8},{""cat"":24,""src"":6,""loc"":7},{""cat"":24,""src"":12,""loc"":5},{""cat"":3,""src"":10,""loc"":2},{""cat"":12,""src"":0,""loc"":3},{""cat"":12,""src"":13,""loc"":4},{""cat"":3,""src"":14,""loc"":0},{""cat"":24,""src"":8,""loc"":1}]","3","3,24,3,12,12,24,3,24,12,14,8,10,0,13,12,6,6,7,0,1,2,3,4,5,6,7,8,7,8,4,5,6,3,0,2,1",NA
"4618","sort_feedback","32","html-keyboard-response","27","434028","0.0-4.0-5.0","1","2020-1-6 12:36:20","ELEPHANT",NA,NA,NA,NA,NA,NA,NA,NA,NA,NA,NA,NA,NA,NA
"20088","setup1",NA,"animation","28","454118","0.0-4.0-6.0","1","2020-1-6 12:36:20","ELEPHANT",NA,NA,"[{""cat"":11,""src"":18,""loc"":6},{""cat"":11,""src"":10,""loc"":8},{""cat"":11,""src"":11,""loc"":7},{""cat"":9,""src"":0,""loc"":5},{""cat"":9,""src"":16,""loc"":3},{""cat"":9,""src"":10,""loc"":4},{""cat"":19,""src"":19,""loc"":1},{""cat"":19,""src"":9,""loc"":0},{""cat"":19,""src"":18,""loc"":2}]","1","1114,1117,1121,1123,1122,1118,1116,1117,1134,10006",NA,NA,NA,NA,NA,NA,NA,NA,NA
"8407","flanker_instructions","37","html-keyboard-response","29","462531","0.0-4.0-7.0","1","2020-1-6 12:36:20","ELEPHANT",NA,NA,NA,NA,NA,NA,NA,NA,NA,NA,NA,NA,NA,NA
NA,"flanker_test",NA,"image-keyboard-response","30","464448","0.0-4.0-8.0-0.0","1","2020-1-6 12:36:20","ELEPHANT",NA,NA,NA,NA,NA,"congruent","right","FALSE",NA,NA,NA,NA,NA,NA
"779","flanker_test","39","image-keyboard-response","31","466300","0.0-4.0-8.0-0.1","1","2020-1-6 12:36:20","ELEPHANT",NA,NA,NA,NA,NA,"incongruent","left","FALSE",NA,NA,NA,NA,NA,NA
"716","flanker_test","37","image-keyboard-response","32","467633","0.0-4.0-8.0-0.2","1","2020-1-6 12:36:20","ELEPHANT",NA,NA,NA,NA,NA,"congruent","left","TRUE",NA,NA,NA,NA,NA,NA
NA,"flanker_test",NA,"image-keyboard-response","33","469113","0.0-4.0-8.0-0.3","1","2020-1-6 12:36:20","ELEPHANT",NA,NA,NA,NA,NA,"incongruent","right","FALSE",NA,NA,NA,NA,NA,NA
"43774","sort_trial",NA,"free-sort","34","514005","0.0-4.0-9.0","1","2020-1-6 12:36:20","ELEPHANT",NA,NA,NA,NA,NA,NA,NA,NA,"[{""cat"":11,""src"":18,""x"":0,""y"":7},{""cat"":11,""src"":10,""x"":26,""y"":65},{""cat"":11,""src"":11,""x"":9,""y"":201},{""cat"":9,""src"":0,""x"":45,""y"":262},{""cat"":9,""src"":16,""x"":61,""y"":504},{""cat"":9,""src"":10,""x"":16,""y"":306},{""cat"":19,""src"":19,""x"":83,""y"":439},{""cat"":19,""src"":9,""x"":23,""y"":137},{""cat"":19,""src"":18,""x"":79,""y"":380}]","[{""cat"":""19"",""src"":""9"",""x"":0,""y"":0},{""cat"":""19"",""src"":""19"",""x"":0,""y"":0},{""cat"":""19"",""src"":""18"",""x"":0,""y"":0},{""cat"":""11"",""src"":""18"",""x"":188,""y"":219},{""cat"":""11"",""src"":""18"",""x"":0,""y"":0},{""cat"":""11"",""src"":""11"",""x"":0,""y"":0},{""cat"":""11"",""src"":""10"",""x"":0,""y"":0},{""cat"":""9"",""src"":""0"",""x"":0,""y"":0},{""cat"":""9"",""src"":""10"",""x"":0,""y"":0},{""cat"":""9"",""src"":""16"",""x"":0,""y"":0}]","[{""cat"":19,""src"":9,""loc"":0},{""cat"":19,""src"":19,""loc"":1},{""cat"":19,""src"":18,""loc"":2},{""cat"":11,""src"":18,""loc"":6},{""cat"":11,""src"":11,""loc"":7},{""cat"":11,""src"":10,""loc"":8},{""cat"":9,""src"":0,""loc"":5},{""cat"":9,""src"":10,""loc"":4},{""cat"":9,""src"":16,""loc"":3}]","9","19,19,19,9,9,9,11,11,11,9,19,18,16,10,0,18,11,10,0,1,2,3,4,5,6,7,8,0,1,2,8,7,6,3,4,5",NA
"2262","sort_feedback","32","html-keyboard-response","35","516272","0.0-4.0-10.0","1","2020-1-6 12:36:20","ELEPHANT",NA,NA,NA,NA,NA,NA,NA,NA,NA,NA,NA,NA,NA,NA
"19993","setup2",NA,"animation","36","536266","0.0-4.0-11.0","1","2020-1-6 12:36:20","ELEPHANT",NA,NA,"[{""cat"":9,""src"":16,""loc"":0},{""cat"":32,""src"":12,""loc"":1},{""cat"":11,""src"":17,""loc"":2},{""cat"":9,""src"":4,""loc"":6},{""cat"":32,""src"":15,""loc"":8},{""cat"":11,""src"":2,""loc"":7},{""cat"":32,""src"":0,""loc"":4},{""cat"":11,""src"":16,""loc"":3},{""cat"":9,""src"":18,""loc"":5}]","2","1107,1103,1110,1105,1115,1102,1106,1109,1118,10018",NA,NA,NA,NA,NA,NA,NA,NA,NA
"3252","flanker_instructions","37","html-keyboard-response","37","539521","0.0-4.0-12.0","1","2020-1-6 12:36:20","ELEPHANT",NA,NA,NA,NA,NA,NA,NA,NA,NA,NA,NA,NA,NA,NA
"892","flanker_test","37","image-keyboard-response","38","541418","0.0-4.0-13.0-0.0","1","2020-1-6 12:36:20","ELEPHANT",NA,NA,NA,NA,NA,"congruent","left","TRUE",NA,NA,NA,NA,NA,NA
"571","flanker_test","39","image-keyboard-response","39","542793","0.0-4.0-13.0-0.1","1","2020-1-6 12:36:20","ELEPHANT",NA,NA,NA,NA,NA,"congruent","right","TRUE",NA,NA,NA,NA,NA,NA
"885","flanker_test","39","image-keyboard-response","40","544810","0.0-4.0-13.0-0.2","1","2020-1-6 12:36:20","ELEPHANT",NA,NA,NA,NA,NA,"incongruent","left","FALSE",NA,NA,NA,NA,NA,NA
"898","flanker_test","37","image-keyboard-response","41","546885","0.0-4.0-13.0-0.3","1","2020-1-6 12:36:20","ELEPHANT",NA,NA,NA,NA,NA,"incongruent","right","FALSE",NA,NA,NA,NA,NA,NA
"51549","sort_trial",NA,"free-sort","42","598836","0.0-4.0-14.0","1","2020-1-6 12:36:20","ELEPHANT",NA,NA,NA,NA,NA,NA,NA,NA,"[{""cat"":9,""src"":16,""x"":2,""y"":484},{""cat"":32,""src"":12,""x"":54,""y"":314},{""cat"":11,""src"":17,""x"":47,""y"":442},{""cat"":9,""src"":4,""x"":12,""y"":206},{""cat"":32,""src"":15,""x"":6,""y"":145},{""cat"":11,""src"":2,""x"":47,""y"":20},{""cat"":32,""src"":0,""x"":59,""y"":83},{""cat"":11,""src"":16,""x"":24,""y"":258},{""cat"":9,""src"":18,""x"":63,""y"":378}]","[{""cat"":""9"",""src"":""16"",""x"":0,""y"":0},{""cat"":""32"",""src"":""12"",""x"":231,""y"":194},{""cat"":""32"",""src"":""12"",""x"":0,""y"":0},{""cat"":""11"",""src"":""17"",""x"":0,""y"":0},{""cat"":""9"",""src"":""18"",""x"":0,""y"":0},{""cat"":""11"",""src"":""16"",""x"":0,""y"":0},{""cat"":""9"",""src"":""4"",""x"":0,""y"":0},{""cat"":""32"",""src"":""15"",""x"":0,""y"":0},{""cat"":""11"",""src"":""2"",""x"":0,""y"":0},{""cat"":""32"",""src"":""0"",""x"":0,""y"":0}]","[{""cat"":9,""src"":16,""loc"":0},{""cat"":32,""src"":12,""loc"":1},{""cat"":11,""src"":17,""loc"":2},{""cat"":9,""src"":18,""loc"":5},{""cat"":11,""src"":16,""loc"":3},{""cat"":9,""src"":4,""loc"":6},{""cat"":32,""src"":15,""loc"":8},{""cat"":11,""src"":2,""loc"":7},{""cat"":32,""src"":0,""loc"":4}]","9","9,32,11,11,32,9,9,11,32,16,12,17,16,0,18,4,2,15,0,1,2,3,4,5,6,7,8,0,1,2,4,8,3,5,7,6",NA
"2372","sort_feedback","32","html-keyboard-response","43","601212","0.0-4.0-15.0","1","2020-1-6 12:36:20","ELEPHANT",NA,NA,NA,NA,NA,NA,NA,NA,NA,NA,NA,NA,NA,NA
"20065","setup5",NA,"animation","44","621278","0.0-4.0-16.0","1","2020-1-6 12:36:20","ELEPHANT",NA,NA,"[{""cat"":1,""src"":5,""loc"":6},{""cat"":21,""src"":6,""loc"":3},{""cat"":30,""src"":19,""loc"":2},{""cat"":1,""src"":17,""loc"":4},{""cat"":21,""src"":3,""loc"":0},{""cat"":30,""src"":17,""loc"":7},{""cat"":30,""src"":11,""loc"":5},{""cat"":1,""src"":7,""loc"":1},{""cat"":21,""src"":8,""loc"":8}]","5","1113,1108,1117,1118,1132,1118,1117,1116,1115,10011",NA,NA,NA,NA,NA,NA,NA,NA,NA
"1813","flanker_instructions","37","html-keyboard-response","45","623095","0.0-4.0-17.0","1","2020-1-6 12:36:20","ELEPHANT",NA,NA,NA,NA,NA,NA,NA,NA,NA,NA,NA,NA,NA,NA
NA,"flanker_test",NA,"image-keyboard-response","46","625009","0.0-4.0-18.0-0.0","1","2020-1-6 12:36:20","ELEPHANT",NA,NA,NA,NA,NA,"incongruent","right","FALSE",NA,NA,NA,NA,NA,NA
"623","flanker_test","39","image-keyboard-response","47","626144","0.0-4.0-18.0-0.1","1","2020-1-6 12:36:20","ELEPHANT",NA,NA,NA,NA,NA,"incongruent","left","FALSE",NA,NA,NA,NA,NA,NA
"793","flanker_test","39","image-keyboard-response","48","628057","0.0-4.0-18.0-0.2","1","2020-1-6 12:36:20","ELEPHANT",NA,NA,NA,NA,NA,"congruent","right","TRUE",NA,NA,NA,NA,NA,NA
"440","flanker_test","37","image-keyboard-response","49","629134","0.0-4.0-18.0-0.3","1","2020-1-6 12:36:20","ELEPHANT",NA,NA,NA,NA,NA,"congruent","left","TRUE",NA,NA,NA,NA,NA,NA
"40530","sort_trial",NA,"free-sort","50","670632","0.0-4.0-19.0","1","2020-1-6 12:36:20","ELEPHANT",NA,NA,NA,NA,NA,NA,NA,NA,"[{""cat"":1,""src"":5,""x"":32,""y"":312},{""cat"":21,""src"":6,""x"":83,""y"":505},{""cat"":30,""src"":19,""x"":65,""y"":122},{""cat"":1,""src"":17,""x"":83,""y"":74},{""cat"":21,""src"":3,""x"":62,""y"":193},{""cat"":30,""src"":17,""x"":3,""y"":375},{""cat"":30,""src"":11,""x"":7,""y"":438},{""cat"":1,""src"":7,""x"":62,""y"":6},{""cat"":21,""src"":8,""x"":36,""y"":261}]","[{""cat"":""1"",""src"":""7"",""x"":0,""y"":0},{""cat"":""21"",""src"":""3"",""x"":0,""y"":0},{""cat"":""30"",""src"":""19"",""x"":0,""y"":0},{""cat"":""21"",""src"":""8"",""x"":0,""y"":0},{""cat"":""1"",""src"":""5"",""x"":0,""y"":0},{""cat"":""30"",""src"":""17"",""x"":0,""y"":0},{""cat"":""30"",""src"":""11"",""x"":0,""y"":0},{""cat"":""1"",""src"":""17"",""x"":0,""y"":0},{""cat"":""21"",""src"":""6"",""x"":717,""y"":257},{""cat"":""21"",""src"":""6"",""x"":0,""y"":0}]","[{""cat"":1,""src"":7,""loc"":1},{""cat"":21,""src"":3,""loc"":0},{""cat"":30,""src"":19,""loc"":2},{""cat"":21,""src"":8,""loc"":8},{""cat"":1,""src"":5,""loc"":6},{""cat"":30,""src"":17,""loc"":7},{""cat"":30,""src"":11,""loc"":5},{""cat"":1,""src"":17,""loc"":4},{""cat"":21,""src"":6,""loc"":3}]","9","21,1,30,21,1,30,1,30,21,3,7,19,6,17,11,5,17,8,0,1,2,3,4,5,6,7,8,1,0,2,8,7,6,4,5,3",NA
"6701","sort_feedback","32","html-keyboard-response","51","677337","0.0-4.0-20.0","1","2020-1-6 12:36:20","ELEPHANT",NA,NA,NA,NA,NA,NA,NA,NA,NA,NA,NA,NA,NA,NA
"20056","setup3",NA,"animation","52","697396","0.0-4.0-21.0","1","2020-1-6 12:36:20","ELEPHANT",NA,NA,"[{""cat"":13,""src"":12,""loc"":4},{""cat"":26,""src"":2,""loc"":1},{""cat"":33,""src"":17,""loc"":7},{""cat"":26,""src"":4,""loc"":2},{""cat"":13,""src"":16,""loc"":3},{""cat"":33,""src"":8,""loc"":6},{""cat"":33,""src"":2,""loc"":8},{""cat"":26,""src"":16,""loc"":0},{""cat"":13,""src"":13,""loc"":5}]","3","1105,1110,1115,1116,1105,1116,1118,1122,1116,10033",NA,NA,NA,NA,NA,NA,NA,NA,NA
"2216","flanker_instructions","37","html-keyboard-response","53","699615","0.0-4.0-22.0","1","2020-1-6 12:36:20","ELEPHANT",NA,NA,NA,NA,NA,NA,NA,NA,NA,NA,NA,NA,NA,NA
"588","flanker_test","37","image-keyboard-response","54","701221","0.0-4.0-23.0-0.0","1","2020-1-6 12:36:20","ELEPHANT",NA,NA,NA,NA,NA,"congruent","left","TRUE",NA,NA,NA,NA,NA,NA
NA,"flanker_test",NA,"image-keyboard-response","55","703071","0.0-4.0-23.0-0.1","1","2020-1-6 12:36:20","ELEPHANT",NA,NA,NA,NA,NA,"incongruent","right","FALSE",NA,NA,NA,NA,NA,NA
"619","flanker_test","37","image-keyboard-response","56","704389","0.0-4.0-23.0-0.2","1","2020-1-6 12:36:20","ELEPHANT",NA,NA,NA,NA,NA,"congruent","right","FALSE",NA,NA,NA,NA,NA,NA
"389","flanker_test","39","image-keyboard-response","57","705880","0.0-4.0-23.0-0.3","1","2020-1-6 12:36:20","ELEPHANT",NA,NA,NA,NA,NA,"incongruent","left","FALSE",NA,NA,NA,NA,NA,NA
"44219","sort_trial",NA,"free-sort","58","751239","0.0-4.0-24.0","1","2020-1-6 12:36:20","ELEPHANT",NA,NA,NA,NA,NA,NA,NA,NA,"[{""cat"":13,""src"":12,""x"":53,""y"":18},{""cat"":26,""src"":2,""x"":55,""y"":440},{""cat"":33,""src"":17,""x"":42,""y"":487},{""cat"":26,""src"":4,""x"":16,""y"":183},{""cat"":13,""src"":16,""x"":23,""y"":306},{""cat"":33,""src"":8,""x"":53,""y"":372},{""cat"":33,""src"":2,""x"":43,""y"":79},{""cat"":26,""src"":16,""x"":43,""y"":142},{""cat"":13,""src"":13,""x"":34,""y"":248}]","[{""cat"":""13"",""src"":""12"",""x"":0,""y"":0},{""cat"":""13"",""src"":""13"",""x"":0,""y"":0},{""cat"":""13"",""src"":""16"",""x"":0,""y"":0},{""cat"":""33"",""src"":""17"",""x"":0,""y"":0},{""cat"":""26"",""src"":""2"",""x"":0,""y"":0},{""cat"":""33"",""src"":""8"",""x"":0,""y"":0},{""cat"":""26"",""src"":""4"",""x"":0,""y"":0},{""cat"":""26"",""src"":""16"",""x"":0,""y"":0},{""cat"":""33"",""src"":""2"",""x"":0,""y"":0}]","[{""cat"":13,""src"":12,""loc"":4},{""cat"":13,""src"":13,""loc"":5},{""cat"":13,""src"":16,""loc"":3},{""cat"":33,""src"":17,""loc"":7},{""cat"":26,""src"":2,""loc"":1},{""cat"":33,""src"":8,""loc"":6},{""cat"":26,""src"":4,""loc"":2},{""cat"":26,""src"":16,""loc"":0},{""cat"":33,""src"":2,""loc"":8}]","9","26,26,26,13,13,13,33,33,33,16,2,4,16,12,13,8,17,2,0,1,2,3,4,5,6,7,8,7,4,6,2,0,1,5,3,8",NA
"4783","sort_feedback","32","html-keyboard-response","59","756026","0.0-4.0-25.0","1","2020-1-6 12:36:20","ELEPHANT",NA,NA,NA,NA,NA,NA,NA,NA,NA,NA,NA,NA,NA,NA
"20059","setup5",NA,"animation","60","776089","0.0-4.0-26.0","1","2020-1-6 12:36:20","ELEPHANT",NA,NA,"[{""cat"":19,""src"":11,""loc"":7},{""cat"":4,""src"":1,""loc"":0},{""cat"":10,""src"":19,""loc"":3},{""cat"":4,""src"":10,""loc"":4},{""cat"":19,""src"":12,""loc"":1},{""cat"":10,""src"":4,""loc"":6},{""cat"":19,""src"":4,""loc"":5},{""cat"":4,""src"":4,""loc"":8},{""cat"":10,""src"":1,""loc"":2}]","5","1132,1108,1105,1121,1119,1115,1116,1117,1114,10012",NA,NA,NA,NA,NA,NA,NA,NA,NA
"10781","flanker_instructions","37","html-keyboard-response","61","786874","0.0-4.0-27.0","1","2020-1-6 12:36:20","ELEPHANT",NA,NA,NA,NA,NA,NA,NA,NA,NA,NA,NA,NA,NA,NA
NA,"flanker_test",NA,"image-keyboard-response","62","788795","0.0-4.0-28.0-0.0","1","2020-1-6 12:36:20","ELEPHANT",NA,NA,NA,NA,NA,"incongruent","right","FALSE",NA,NA,NA,NA,NA,NA
NA,"flanker_test",NA,"image-keyboard-response","63","790397","0.0-4.0-28.0-0.1","1","2020-1-6 12:36:20","ELEPHANT",NA,NA,NA,NA,NA,"incongruent","left","FALSE",NA,NA,NA,NA,NA,NA
NA,"flanker_test",NA,"image-keyboard-response","64","791701","0.0-4.0-28.0-0.2","1","2020-1-6 12:36:20","ELEPHANT",NA,NA,NA,NA,NA,"congruent","right","FALSE",NA,NA,NA,NA,NA,NA
"506","flanker_test","37","image-keyboard-response","65","792795","0.0-4.0-28.0-0.3","1","2020-1-6 12:36:20","ELEPHANT",NA,NA,NA,NA,NA,"congruent","left","TRUE",NA,NA,NA,NA,NA,NA
"53030","sort_trial",NA,"free-sort","66","846935","0.0-4.0-29.0","1","2020-1-6 12:36:20","ELEPHANT",NA,NA,NA,NA,NA,NA,NA,NA,"[{""cat"":19,""src"":11,""x"":44,""y"":495},{""cat"":4,""src"":1,""x"":72,""y"":387},{""cat"":10,""src"":19,""x"":20,""y"":88},{""cat"":4,""src"":10,""x"":7,""y"":303},{""cat"":19,""src"":12,""x"":80,""y"":201},{""cat"":10,""src"":4,""x"":11,""y"":262},{""cat"":19,""src"":4,""x"":50,""y"":0},{""cat"":4,""src"":4,""x"":66,""y"":432},{""cat"":10,""src"":1,""x"":33,""y"":135}]","[{""cat"":""19"",""src"":""12"",""x"":0,""y"":0},{""cat"":""4"",""src"":""1"",""x"":0,""y"":0},{""cat"":""10"",""src"":""1"",""x"":0,""y"":0},{""cat"":""19"",""src"":""4"",""x"":0,""y"":0},{""cat"":""10"",""src"":""19"",""x"":0,""y"":0},{""cat"":""10"",""src"":""4"",""x"":0,""y"":0},{""cat"":""19"",""src"":""11"",""x"":0,""y"":0},{""cat"":""4"",""src"":""4"",""x"":0,""y"":0},{""cat"":""4"",""src"":""10"",""x"":780,""y"":175},{""cat"":""4"",""src"":""10"",""x"":0,""y"":0}]","[{""cat"":19,""src"":12,""loc"":1},{""cat"":4,""src"":1,""loc"":0},{""cat"":10,""src"":1,""loc"":2},{""cat"":19,""src"":4,""loc"":5},{""cat"":10,""src"":19,""loc"":3},{""cat"":10,""src"":4,""loc"":6},{""cat"":19,""src"":11,""loc"":7},{""cat"":4,""src"":4,""loc"":8},{""cat"":4,""src"":10,""loc"":4}]","9","4,19,10,10,4,19,10,19,4,1,12,1,19,10,4,4,11,4,0,1,2,3,4,5,6,7,8,1,0,2,4,8,3,5,6,7",NA
"8712","sort_feedback","32","html-keyboard-response","67","855651","0.0-4.0-30.0","1","2020-1-6 12:36:20","ELEPHANT",NA,NA,NA,NA,NA,NA,NA,NA,NA,NA,NA,NA,NA,NA
"20028","setup4",NA,"animation","68","875680","0.0-4.0-31.0","1","2020-1-6 12:36:20","ELEPHANT",NA,NA,"[{""cat"":15,""src"":10,""loc"":7},{""cat"":15,""src"":19,""loc"":1},{""cat"":15,""src"":18,""loc"":5},{""cat"":24,""src"":14,""loc"":6},{""cat"":24,""src"":13,""loc"":0},{""cat"":24,""src"":3,""loc"":3},{""cat"":4,""src"":14,""loc"":8},{""cat"":4,""src"":17,""loc"":4},{""cat"":4,""src"":11,""loc"":2}]","4","1115,1102,1117,1116,1116,1117,1117,1103,1122,10003",NA,NA,NA,NA,NA,NA,NA,NA,NA
"2645","flanker_instructions","37","html-keyboard-response","69","878329","0.0-4.0-32.0","1","2020-1-6 12:36:20","ELEPHANT",NA,NA,NA,NA,NA,NA,NA,NA,NA,NA,NA,NA,NA,NA
"770","flanker_test","37","image-keyboard-response","70","880103","0.0-4.0-33.0-0.0","1","2020-1-6 12:36:20","ELEPHANT",NA,NA,NA,NA,NA,"congruent","left","TRUE",NA,NA,NA,NA,NA,NA
"643","flanker_test","37","image-keyboard-response","71","881818","0.0-4.0-33.0-0.1","1","2020-1-6 12:36:20","ELEPHANT",NA,NA,NA,NA,NA,"incongruent","left","TRUE",NA,NA,NA,NA,NA,NA
"807","flanker_test","39","image-keyboard-response","72","883182","0.0-4.0-33.0-0.2","1","2020-1-6 12:36:20","ELEPHANT",NA,NA,NA,NA,NA,"congruent","right","TRUE",NA,NA,NA,NA,NA,NA
NA,"flanker_test",NA,"image-keyboard-response","73","884527","0.0-4.0-33.0-0.3","1","2020-1-6 12:36:20","ELEPHANT",NA,NA,NA,NA,NA,"incongruent","right","FALSE",NA,NA,NA,NA,NA,NA
"51354","sort_trial",NA,"free-sort","74","936919","0.0-4.0-34.0","1","2020-1-6 12:36:20","ELEPHANT",NA,NA,NA,NA,NA,NA,NA,NA,"[{""cat"":15,""src"":10,""x"":35,""y"":241},{""cat"":15,""src"":19,""x"":56,""y"":123},{""cat"":15,""src"":18,""x"":50,""y"":310},{""cat"":24,""src"":14,""x"":65,""y"":381},{""cat"":24,""src"":13,""x"":81,""y"":192},{""cat"":24,""src"":3,""x"":47,""y"":499},{""cat"":4,""src"":14,""x"":18,""y"":28},{""cat"":4,""src"":17,""x"":62,""y"":81},{""cat"":4,""src"":11,""x"":22,""y"":422}]","[{""cat"":""24"",""src"":""13"",""x"":0,""y"":0},{""cat"":""4"",""src"":""14"",""x"":0,""y"":0},{""cat"":""15"",""src"":""19"",""x"":0,""y"":0},{""cat"":""4"",""src"":""11"",""x"":359,""y"":208},{""cat"":""4"",""src"":""11"",""x"":0,""y"":0},{""cat"":""15"",""src"":""10"",""x"":0,""y"":0},{""cat"":""24"",""src"":""14"",""x"":421,""y"":299},{""cat"":""24"",""src"":""14"",""x"":0,""y"":0},{""cat"":""15"",""src"":""18"",""x"":729,""y"":216},{""cat"":""15"",""src"":""18"",""x"":0,""y"":0},{""cat"":""4"",""src"":""17"",""x"":0,""y"":0},{""cat"":""24"",""src"":""3"",""x"":47,""y"":499},{""cat"":""24"",""src"":""3"",""x"":0,""y"":0}]","[{""cat"":24,""src"":13,""loc"":0},{""cat"":4,""src"":14,""loc"":8},{""cat"":15,""src"":19,""loc"":1},{""cat"":4,""src"":11,""loc"":2},{""cat"":15,""src"":10,""loc"":7},{""cat"":24,""src"":14,""loc"":6},{""cat"":15,""src"":18,""loc"":5},{""cat"":4,""src"":17,""loc"":4},{""cat"":24,""src"":3,""loc"":3}]","9","24,15,4,24,4,15,24,15,4,13,19,11,3,17,18,14,10,14,0,1,2,3,4,5,6,7,8,0,2,3,8,7,6,5,4,1",NA
"6593","sort_feedback","32","html-keyboard-response","75","943516","0.0-4.0-35.0","1","2020-1-6 12:36:20","ELEPHANT",NA,NA,NA,NA,NA,NA,NA,NA,NA,NA,NA,NA,NA,NA
"20037","setup3",NA,"animation","76","963554","0.0-4.0-36.0","1","2020-1-6 12:36:20","ELEPHANT",NA,NA,"[{""cat"":21,""src"":5,""loc"":7},{""cat"":16,""src"":19,""loc"":4},{""cat"":28,""src"":7,""loc"":1},{""cat"":28,""src"":17,""loc"":0},{""cat"":16,""src"":16,""loc"":3},{""cat"":21,""src"":14,""loc"":6},{""cat"":28,""src"":8,""loc"":2},{""cat"":16,""src"":0,""loc"":5},{""cat"":21,""src"":2,""loc"":8}]","3","1117,1113,1117,1115,1104,1102,1110,1117,1118,10024",NA,NA,NA,NA,NA,NA,NA,NA,NA
"6959","flanker_instructions","37","html-keyboard-response","77","970517","0.0-4.0-37.0","1","2020-1-6 12:36:20","ELEPHANT",NA,NA,NA,NA,NA,NA,NA,NA,NA,NA,NA,NA,NA,NA
NA,"flanker_test",NA,"image-keyboard-response","78","972445","0.0-4.0-38.0-0.0","1","2020-1-6 12:36:20","ELEPHANT",NA,NA,NA,NA,NA,"congruent","right","FALSE",NA,NA,NA,NA,NA,NA
"833","flanker_test","37","image-keyboard-response","79","974076","0.0-4.0-38.0-0.1","1","2020-1-6 12:36:20","ELEPHANT",NA,NA,NA,NA,NA,"incongruent","right","FALSE",NA,NA,NA,NA,NA,NA
"586","flanker_test","37","image-keyboard-response","80","975795","0.0-4.0-38.0-0.2","1","2020-1-6 12:36:20","ELEPHANT",NA,NA,NA,NA,NA,"congruent","left","TRUE",NA,NA,NA,NA,NA,NA
"657","flanker_test","39","image-keyboard-response","81","976861","0.0-4.0-38.0-0.3","1","2020-1-6 12:36:20","ELEPHANT",NA,NA,NA,NA,NA,"incongruent","left","FALSE",NA,NA,NA,NA,NA,NA
"60603","sort_trial",NA,"free-sort","82","1038105","0.0-4.0-39.0","1","2020-1-6 12:36:20","ELEPHANT",NA,NA,NA,NA,NA,NA,NA,NA,"[{""cat"":21,""src"":5,""x"":51,""y"":198},{""cat"":16,""src"":19,""x"":75,""y"":433},{""cat"":28,""src"":7,""x"":58,""y"":126},{""cat"":28,""src"":17,""x"":11,""y"":310},{""cat"":16,""src"":16,""x"":80,""y"":360},{""cat"":21,""src"":14,""x"":0,""y"":259},{""cat"":28,""src"":8,""x"":57,""y"":491},{""cat"":16,""src"":0,""x"":21,""y"":76},{""cat"":21,""src"":2,""x"":16,""y"":0}]","[{""cat"":""28"",""src"":""7"",""x"":0,""y"":0},{""cat"":""28"",""src"":""17"",""x"":0,""y"":0},{""cat"":""28"",""src"":""8"",""x"":249,""y"":201},{""cat"":""28"",""src"":""8"",""x"":67,""y"":476},{""cat"":""28"",""src"":""8"",""x"":0,""y"":0},{""cat"":""21"",""src"":""5"",""x"":0,""y"":0},{""cat"":""21"",""src"":""14"",""x"":0,""y"":259},{""cat"":""21"",""src"":""14"",""x"":433,""y"":298},{""cat"":""21"",""src"":""14"",""x"":0,""y"":0},{""cat"":""16"",""src"":""16"",""x"":87,""y"":360},{""cat"":""16"",""src"":""16"",""x"":736,""y"":240},{""cat"":""16"",""src"":""16"",""x"":0,""y"":0},{""cat"":""16"",""src"":""0"",""x"":0,""y"":0},{""cat"":""21"",""src"":""2"",""x"":0,""y"":0},{""cat"":""16"",""src"":""19"",""x"":0,""y"":0}]","[{""cat"":28,""src"":7,""loc"":1},{""cat"":28,""src"":17,""loc"":0},{""cat"":28,""src"":8,""loc"":2},{""cat"":21,""src"":5,""loc"":7},{""cat"":21,""src"":14,""loc"":6},{""cat"":16,""src"":16,""loc"":3},{""cat"":16,""src"":0,""loc"":5},{""cat"":21,""src"":2,""loc"":8},{""cat"":16,""src"":19,""loc"":4}]","9","28,28,28,16,16,16,21,21,21,17,7,8,16,19,0,14,5,2,0,1,2,3,4,5,6,7,8,1,0,2,5,8,6,4,3,7",NA
"83194","sort_feedback","32","html-keyboard-response","83","1121304","0.0-4.0-40.0","1","2020-1-6 12:36:20","ELEPHANT",NA,NA,NA,NA,NA,NA,NA,NA,NA,NA,NA,NA,NA,NA
"20040","setup2",NA,"animation","84","1141345","0.0-4.0-41.0","1","2020-1-6 12:36:20","ELEPHANT",NA,NA,"[{""cat"":16,""src"":13,""loc"":0},{""cat"":18,""src"":14,""loc"":1},{""cat"":12,""src"":11,""loc"":2},{""cat"":12,""src"":9,""loc"":4},{""cat"":16,""src"":14,""loc"":3},{""cat"":18,""src"":2,""loc"":5},{""cat"":18,""src"":19,""loc"":7},{""cat"":16,""src"":18,""loc"":6},{""cat"":12,""src"":0,""loc"":8}]","2","1118,1108,1111,1118,1116,1117,1116,1116,1117,10002",NA,NA,NA,NA,NA,NA,NA,NA,NA
"3715","flanker_instructions","37","html-keyboard-response","85","1145064","0.0-4.0-42.0","1","2020-1-6 12:36:20","ELEPHANT",NA,NA,NA,NA,NA,NA,NA,NA,NA,NA,NA,NA,NA,NA
"629","flanker_test","39","image-keyboard-response","86","1146713","0.0-4.0-43.0-0.0","1","2020-1-6 12:36:20","ELEPHANT",NA,NA,NA,NA,NA,"congruent","right","TRUE",NA,NA,NA,NA,NA,NA
"749","flanker_test","39","image-keyboard-response","87","1148617","0.0-4.0-43.0-0.1","1","2020-1-6 12:36:20","ELEPHANT",NA,NA,NA,NA,NA,"incongruent","right","TRUE",NA,NA,NA,NA,NA,NA
"559","flanker_test","37","image-keyboard-response","88","1150232","0.0-4.0-43.0-0.2","1","2020-1-6 12:36:20","ELEPHANT",NA,NA,NA,NA,NA,"congruent","left","TRUE",NA,NA,NA,NA,NA,NA
"738","flanker_test","37","image-keyboard-response","89","1151309","0.0-4.0-43.0-0.3","1","2020-1-6 12:36:20","ELEPHANT",NA,NA,NA,NA,NA,"incongruent","left","TRUE",NA,NA,NA,NA,NA,NA
"46070","sort_trial",NA,"free-sort","90","1198443","0.0-4.0-44.0","1","2020-1-6 12:36:20","ELEPHANT",NA,NA,NA,NA,NA,NA,NA,NA,"[{""cat"":16,""src"":13,""x"":26,""y"":307},{""cat"":18,""src"":14,""x"":55,""y"":432},{""cat"":12,""src"":11,""x"":19,""y"":183},{""cat"":12,""src"":9,""x"":53,""y"":387},{""cat"":16,""src"":14,""x"":80,""y"":145},{""cat"":18,""src"":2,""x"":43,""y"":250},{""cat"":18,""src"":19,""x"":6,""y"":489},{""cat"":16,""src"":18,""x"":32,""y"":63},{""cat"":12,""src"":0,""x"":41,""y"":7}]","[{""cat"":""18"",""src"":""14"",""x"":0,""y"":0},{""cat"":""16"",""src"":""13"",""x"":0,""y"":0},{""cat"":""12"",""src"":""11"",""x"":0,""y"":0},{""cat"":""16"",""src"":""14"",""x"":0,""y"":0},{""cat"":""16"",""src"":""18"",""x"":0,""y"":0},{""cat"":""12"",""src"":""0"",""x"":0,""y"":0},{""cat"":""18"",""src"":""2"",""x"":0,""y"":0},{""cat"":""18"",""src"":""19"",""x"":0,""y"":0},{""cat"":""12"",""src"":""9"",""x"":0,""y"":0}]","[{""cat"":18,""src"":14,""loc"":1},{""cat"":16,""src"":13,""loc"":0},{""cat"":12,""src"":11,""loc"":2},{""cat"":16,""src"":14,""loc"":3},{""cat"":16,""src"":18,""loc"":6},{""cat"":12,""src"":0,""loc"":8},{""cat"":18,""src"":2,""loc"":5},{""cat"":18,""src"":19,""loc"":7},{""cat"":12,""src"":9,""loc"":4}]","9","16,18,12,16,12,18,16,18,12,13,14,11,14,9,2,18,19,0,0,1,2,3,4,5,6,7,8,1,0,2,3,8,6,4,7,5",NA
"6525","sort_feedback","32","html-keyboard-response","91","1204971","0.0-4.0-45.0","1","2020-1-6 12:36:20","ELEPHANT",NA,NA,NA,NA,NA,NA,NA,NA,NA,NA,NA,NA,NA,NA
"19998","setup1",NA,"animation","92","1224970","0.0-4.0-46.0","1","2020-1-6 12:36:20","ELEPHANT",NA,NA,"[{""cat"":3,""src"":7,""loc"":1},{""cat"":3,""src"":16,""loc"":0},{""cat"":3,""src"":3,""loc"":2},{""cat"":16,""src"":4,""loc"":7},{""cat"":16,""src"":18,""loc"":6},{""cat"":16,""src"":9,""loc"":8},{""cat"":27,""src"":0,""loc"":3},{""cat"":27,""src"":16,""loc"":4},{""cat"":27,""src"":9,""loc"":5}]","1","1104,1104,1104,1115,1116,1116,1104,1112,1117,10006",NA,NA,NA,NA,NA,NA,NA,NA,NA
"1040","flanker_instructions","37","html-keyboard-response","93","1226013","0.0-4.0-47.0","1","2020-1-6 12:36:20","ELEPHANT",NA,NA,NA,NA,NA,NA,NA,NA,NA,NA,NA,NA,NA,NA
"772","flanker_test","39","image-keyboard-response","94","1227791","0.0-4.0-48.0-0.0","1","2020-1-6 12:36:20","ELEPHANT",NA,NA,NA,NA,NA,"incongruent","right","TRUE",NA,NA,NA,NA,NA,NA
"419","flanker_test","37","image-keyboard-response","95","1229402","0.0-4.0-48.0-0.1","1","2020-1-6 12:36:20","ELEPHANT",NA,NA,NA,NA,NA,"congruent","left","TRUE",NA,NA,NA,NA,NA,NA
"514","flanker_test","39","image-keyboard-response","96","1230794","0.0-4.0-48.0-0.2","1","2020-1-6 12:36:20","ELEPHANT",NA,NA,NA,NA,NA,"incongruent","left","FALSE",NA,NA,NA,NA,NA,NA
"564","flanker_test","39","image-keyboard-response","97","1232293","0.0-4.0-48.0-0.3","1","2020-1-6 12:36:20","ELEPHANT",NA,NA,NA,NA,NA,"congruent","right","TRUE",NA,NA,NA,NA,NA,NA
"53522","sort_trial",NA,"free-sort","98","1286383","0.0-4.0-49.0","1","2020-1-6 12:36:20","ELEPHANT",NA,NA,NA,NA,NA,NA,NA,NA,"[{""cat"":3,""src"":7,""x"":64,""y"":426},{""cat"":3,""src"":16,""x"":39,""y"":373},{""cat"":3,""src"":3,""x"":46,""y"":244},{""cat"":16,""src"":4,""x"":32,""y"":487},{""cat"":16,""src"":18,""x"":60,""y"":206},{""cat"":16,""src"":9,""x"":2,""y"":71},{""cat"":27,""src"":0,""x"":17,""y"":17},{""cat"":27,""src"":16,""x"":26,""y"":307},{""cat"":27,""src"":9,""x"":60,""y"":127}]","[{""cat"":""3"",""src"":""7"",""x"":0,""y"":0},{""cat"":""3"",""src"":""16"",""x"":0,""y"":0},{""cat"":""3"",""src"":""3"",""x"":0,""y"":0},{""cat"":""27"",""src"":""16"",""x"":0,""y"":0},{""cat"":""16"",""src"":""18"",""x"":62,""y"":206},{""cat"":""16"",""src"":""18"",""x"":434,""y"":283},{""cat"":""16"",""src"":""18"",""x"":0,""y"":0},{""cat"":""27"",""src"":""9"",""x"":0,""y"":0},{""cat"":""27"",""src"":""0"",""x"":0,""y"":0},{""cat"":""16"",""src"":""9"",""x"":0,""y"":0},{""cat"":""16"",""src"":""4"",""x"":0,""y"":0}]","[{""cat"":3,""src"":7,""loc"":1},{""cat"":3,""src"":16,""loc"":0},{""cat"":3,""src"":3,""loc"":2},{""cat"":27,""src"":16,""loc"":4},{""cat"":16,""src"":18,""loc"":6},{""cat"":27,""src"":9,""loc"":5},{""cat"":27,""src"":0,""loc"":3},{""cat"":16,""src"":9,""loc"":8},{""cat"":16,""src"":4,""loc"":7}]","9","3,3,3,27,27,27,16,16,16,16,7,3,0,16,9,18,4,9,0,1,2,3,4,5,6,7,8,1,0,2,6,3,5,4,8,7",NA
"6681","sort_feedback","32","html-keyboard-response","99","1293067","0.0-4.0-50.0","1","2020-1-6 12:36:20","ELEPHANT",NA,NA,NA,NA,NA,NA,NA,NA,NA,NA,NA,NA,NA,NA
"20039","setup4",NA,"animation","100","1313108","0.0-4.0-51.0","1","2020-1-6 12:36:20","ELEPHANT",NA,NA,"[{""cat"":15,""src"":2,""loc"":8},{""cat"":15,""src"":5,""loc"":0},{""cat"":15,""src"":10,""loc"":4},{""cat"":3,""src"":18,""loc"":2},{""cat"":3,""src"":19,""loc"":7},{""cat"":3,""src"":16,""loc"":5},{""cat"":18,""src"":17,""loc"":3},{""cat"":18,""src"":13,""loc"":6},{""cat"":18,""src"":12,""loc"":1}]","4","1116,1104,1115,1116,1142,1110,1114,1103,1115,10004",NA,NA,NA,NA,NA,NA,NA,NA,NA
"6838","flanker_instructions","37","html-keyboard-response","101","1319950","0.0-4.0-52.0","1","2020-1-6 12:36:20","ELEPHANT",NA,NA,NA,NA,NA,NA,NA,NA,NA,NA,NA,NA,NA,NA
"773","flanker_test","37","image-keyboard-response","102","1321744","0.0-4.0-53.0-0.0","1","2020-1-6 12:36:20","ELEPHANT",NA,NA,NA,NA,NA,"congruent","left","TRUE",NA,NA,NA,NA,NA,NA
"800","flanker_test","37","image-keyboard-response","103","1323195","0.0-4.0-53.0-0.1","1","2020-1-6 12:36:20","ELEPHANT",NA,NA,NA,NA,NA,"incongruent","left","TRUE",NA,NA,NA,NA,NA,NA
"646","flanker_test","39","image-keyboard-response","104","1324307","0.0-4.0-53.0-0.2","1","2020-1-6 12:36:20","ELEPHANT",NA,NA,NA,NA,NA,"incongruent","right","TRUE",NA,NA,NA,NA,NA,NA
"677","flanker_test","39","image-keyboard-response","105","1325681","0.0-4.0-53.0-0.3","1","2020-1-6 12:36:20","ELEPHANT",NA,NA,NA,NA,NA,"congruent","right","TRUE",NA,NA,NA,NA,NA,NA
"43019","sort_trial",NA,"free-sort","106","1369030","0.0-4.0-54.0","1","2020-1-6 12:36:20","ELEPHANT",NA,NA,NA,NA,NA,NA,NA,NA,"[{""cat"":15,""src"":2,""x"":77,""y"":26},{""cat"":15,""src"":5,""x"":74,""y"":148},{""cat"":15,""src"":10,""x"":19,""y"":500},{""cat"":3,""src"":18,""x"":56,""y"":366},{""cat"":3,""src"":19,""x"":20,""y"":313},{""cat"":3,""src"":16,""x"":61,""y"":249},{""cat"":18,""src"":17,""x"":37,""y"":205},{""cat"":18,""src"":13,""x"":0,""y"":436},{""cat"":18,""src"":12,""x"":21,""y"":63}]","[{""cat"":""18"",""src"":""12"",""x"":0,""y"":0},{""cat"":""15"",""src"":""5"",""x"":0,""y"":0},{""cat"":""3"",""src"":""18"",""x"":0,""y"":0},{""cat"":""15"",""src"":""2"",""x"":0,""y"":0},{""cat"":""18"",""src"":""17"",""x"":0,""y"":0},{""cat"":""3"",""src"":""16"",""x"":0,""y"":0},{""cat"":""15"",""src"":""10"",""x"":0,""y"":0},{""cat"":""3"",""src"":""19"",""x"":0,""y"":0},{""cat"":""18"",""src"":""13"",""x"":340,""y"":311},{""cat"":""18"",""src"":""13"",""x"":0,""y"":0}]","[{""cat"":18,""src"":12,""loc"":1},{""cat"":15,""src"":5,""loc"":0},{""cat"":3,""src"":18,""loc"":2},{""cat"":15,""src"":2,""loc"":8},{""cat"":18,""src"":17,""loc"":3},{""cat"":3,""src"":16,""loc"":5},{""cat"":15,""src"":10,""loc"":4},{""cat"":3,""src"":19,""loc"":7},{""cat"":18,""src"":13,""loc"":6}]","9","15,18,3,18,15,3,18,3,15,5,12,18,17,10,16,13,19,2,0,1,2,3,4,5,6,7,8,1,0,2,4,6,5,8,7,3",NA
"4937","sort_feedback","32","html-keyboard-response","107","1373970","0.0-4.0-55.0","1","2020-1-6 12:36:20","ELEPHANT",NA,NA,NA,NA,NA,NA,NA,NA,NA,NA,NA,NA,NA,NA
"20019","setup1",NA,"animation","108","1393991","0.0-4.0-56.0","1","2020-1-6 12:36:20","ELEPHANT",NA,NA,"[{""cat"":26,""src"":14,""loc"":1},{""cat"":26,""src"":2,""loc"":2},{""cat"":26,""src"":1,""loc"":0},{""cat"":32,""src"":0,""loc"":6},{""cat"":32,""src"":16,""loc"":7},{""cat"":32,""src"":11,""loc"":8},{""cat"":29,""src"":10,""loc"":5},{""cat"":29,""src"":16,""loc"":3},{""cat"":29,""src"":12,""loc"":4}]","1","1104,1113,1116,1104,1104,1114,1116,1117,1118,10013",NA,NA,NA,NA,NA,NA,NA,NA,NA
"1280","flanker_instructions","37","html-keyboard-response","109","1395277","0.0-4.0-57.0","1","2020-1-6 12:36:20","ELEPHANT",NA,NA,NA,NA,NA,NA,NA,NA,NA,NA,NA,NA,NA,NA
NA,"flanker_test",NA,"image-keyboard-response","110","1397208","0.0-4.0-58.0-0.0","1","2020-1-6 12:36:20","ELEPHANT",NA,NA,NA,NA,NA,"incongruent","left","FALSE",NA,NA,NA,NA,NA,NA
"658","flanker_test","39","image-keyboard-response","111","1398347","0.0-4.0-58.0-0.1","1","2020-1-6 12:36:20","ELEPHANT",NA,NA,NA,NA,NA,"congruent","right","TRUE",NA,NA,NA,NA,NA,NA
"547","flanker_test","37","image-keyboard-response","112","1399885","0.0-4.0-58.0-0.2","1","2020-1-6 12:36:20","ELEPHANT",NA,NA,NA,NA,NA,"congruent","left","TRUE",NA,NA,NA,NA,NA,NA
"675","flanker_test","39","image-keyboard-response","113","1401671","0.0-4.0-58.0-0.3","1","2020-1-6 12:36:20","ELEPHANT",NA,NA,NA,NA,NA,"incongruent","right","TRUE",NA,NA,NA,NA,NA,NA
"42037","sort_trial",NA,"free-sort","114","1444454","0.0-4.0-59.0","1","2020-1-6 12:36:20","ELEPHANT",NA,NA,NA,NA,NA,NA,NA,NA,"[{""cat"":26,""src"":14,""x"":28,""y"":137},{""cat"":26,""src"":2,""x"":21,""y"":306},{""cat"":26,""src"":1,""x"":32,""y"":371},{""cat"":32,""src"":0,""x"":21,""y"":481},{""cat"":32,""src"":16,""x"":16,""y"":430},{""cat"":32,""src"":11,""x"":43,""y"":3},{""cat"":29,""src"":10,""x"":55,""y"":77},{""cat"":29,""src"":16,""x"":12,""y"":257},{""cat"":29,""src"":12,""x"":31,""y"":199}]","[{""cat"":""26"",""src"":""2"",""x"":0,""y"":0},{""cat"":""26"",""src"":""1"",""x"":0,""y"":0},{""cat"":""26"",""src"":""14"",""x"":0,""y"":0},{""cat"":""32"",""src"":""16"",""x"":0,""y"":0},{""cat"":""32"",""src"":""0"",""x"":279,""y"":390},{""cat"":""32"",""src"":""0"",""x"":0,""y"":0},{""cat"":""32"",""src"":""11"",""x"":0,""y"":0},{""cat"":""29"",""src"":""10"",""x"":0,""y"":0},{""cat"":""29"",""src"":""12"",""x"":0,""y"":0},{""cat"":""29"",""src"":""16"",""x"":0,""y"":0}]","[{""cat"":26,""src"":2,""loc"":2},{""cat"":26,""src"":1,""loc"":0},{""cat"":26,""src"":14,""loc"":1},{""cat"":32,""src"":16,""loc"":7},{""cat"":32,""src"":0,""loc"":6},{""cat"":32,""src"":11,""loc"":8},{""cat"":29,""src"":10,""loc"":5},{""cat"":29,""src"":12,""loc"":4},{""cat"":29,""src"":16,""loc"":3}]","9","26,26,26,29,29,29,32,32,32,1,14,2,16,12,10,0,16,11,0,1,2,3,4,5,6,7,8,1,2,0,8,7,6,4,3,5",NA
"5645","sort_feedback","32","html-keyboard-response","115","1450103","0.0-4.0-60.0","1","2020-1-6 12:36:20","ELEPHANT",NA,NA,NA,NA,NA,NA,NA,NA,NA,NA,NA,NA,NA,NA
"20032","setup5",NA,"animation","116","1470137","0.0-4.0-61.0","1","2020-1-6 12:36:20","ELEPHANT",NA,NA,"[{""cat"":18,""src"":15,""loc"":2},{""cat"":30,""src"":2,""loc"":5},{""cat"":28,""src"":12,""loc"":6},{""cat"":30,""src"":9,""loc"":1},{""cat"":28,""src"":2,""loc"":3},{""cat"":18,""src"":17,""loc"":8},{""cat"":30,""src"":14,""loc"":7},{""cat"":18,""src"":0,""loc"":4},{""cat"":28,""src"":9,""loc"":0}]","5","1121,1102,1104,1115,1117,1117,1115,1103,1125,10013",NA,NA,NA,NA,NA,NA,NA,NA,NA
"7615","flanker_instructions","39","html-keyboard-response","117","1477757","0.0-4.0-62.0","1","2020-1-6 12:36:20","ELEPHANT",NA,NA,NA,NA,NA,NA,NA,NA,NA,NA,NA,NA,NA,NA
"718","flanker_test","37","image-keyboard-response","118","1479481","0.0-4.0-63.0-0.0","1","2020-1-6 12:36:20","ELEPHANT",NA,NA,NA,NA,NA,"congruent","left","TRUE",NA,NA,NA,NA,NA,NA
"550","flanker_test","39","image-keyboard-response","119","1480640","0.0-4.0-63.0-0.1","1","2020-1-6 12:36:20","ELEPHANT",NA,NA,NA,NA,NA,"incongruent","right","TRUE",NA,NA,NA,NA,NA,NA
"653","flanker_test","37","image-keyboard-response","120","1481682","0.0-4.0-63.0-0.2","1","2020-1-6 12:36:20","ELEPHANT",NA,NA,NA,NA,NA,"incongruent","left","TRUE",NA,NA,NA,NA,NA,NA
"714","flanker_test","39","image-keyboard-response","121","1482894","0.0-4.0-63.0-0.3","1","2020-1-6 12:36:20","ELEPHANT",NA,NA,NA,NA,NA,"congruent","right","TRUE",NA,NA,NA,NA,NA,NA
"46263","sort_trial",NA,"free-sort","122","1529705","0.0-4.0-64.0","1","2020-1-6 12:36:20","ELEPHANT",NA,NA,NA,NA,NA,NA,NA,NA,"[{""cat"":18,""src"":15,""x"":1,""y"":374},{""cat"":30,""src"":2,""x"":14,""y"":25},{""cat"":28,""src"":12,""x"":28,""y"":314},{""cat"":30,""src"":9,""x"":36,""y"":440},{""cat"":28,""src"":2,""x"":67,""y"":247},{""cat"":18,""src"":17,""x"":12,""y"":493},{""cat"":30,""src"":14,""x"":64,""y"":124},{""cat"":18,""src"":0,""x"":63,""y"":62},{""cat"":28,""src"":9,""x"":55,""y"":191}]","[{""cat"":""30"",""src"":""9"",""x"":0,""y"":0},{""cat"":""28"",""src"":""9"",""x"":0,""y"":0},{""cat"":""18"",""src"":""15"",""x"":0,""y"":0},{""cat"":""30"",""src"":""2"",""x"":0,""y"":0},{""cat"":""18"",""src"":""0"",""x"":563,""y"":73},{""cat"":""18"",""src"":""0"",""x"":68,""y"":62},{""cat"":""18"",""src"":""0"",""x"":825,""y"":150},{""cat"":""18"",""src"":""0"",""x"":0,""y"":0},{""cat"":""30"",""src"":""14"",""x"":0,""y"":0},{""cat"":""28"",""src"":""2"",""x"":0,""y"":0},{""cat"":""28"",""src"":""12"",""x"":0,""y"":0},{""cat"":""18"",""src"":""17"",""x"":0,""y"":0}]","[{""cat"":30,""src"":9,""loc"":1},{""cat"":28,""src"":9,""loc"":0},{""cat"":18,""src"":15,""loc"":2},{""cat"":30,""src"":2,""loc"":5},{""cat"":18,""src"":0,""loc"":4},{""cat"":30,""src"":14,""loc"":7},{""cat"":28,""src"":2,""loc"":3},{""cat"":28,""src"":12,""loc"":6},{""cat"":18,""src"":17,""loc"":8}]","9","28,30,18,28,18,30,28,30,18,9,9,15,2,0,2,12,14,17,0,1,2,3,4,5,6,7,8,1,0,2,6,4,3,7,5,8",NA
"5580","sort_feedback","32","html-keyboard-response","123","1535288","0.0-4.0-65.0","1","2020-1-6 12:36:20","ELEPHANT",NA,NA,NA,NA,NA,NA,NA,NA,NA,NA,NA,NA,NA,NA
"20016","setup3",NA,"animation","124","1555306","0.0-4.0-66.0","1","2020-1-6 12:36:20","ELEPHANT",NA,NA,"[{""cat"":15,""src"":10,""loc"":8},{""cat"":11,""src"":16,""loc"":4},{""cat"":3,""src"":7,""loc"":2},{""cat"":11,""src"":2,""loc"":3},{""cat"":15,""src"":9,""loc"":6},{""cat"":3,""src"":3,""loc"":1},{""cat"":3,""src"":0,""loc"":0},{""cat"":15,""src"":3,""loc"":7},{""cat"":11,""src"":11,""loc"":5}]","3","1105,1114,1103,1113,1117,1119,1114,1103,1114,10014",NA,NA,NA,NA,NA,NA,NA,NA,NA
"2131","flanker_instructions","37","html-keyboard-response","125","1557441","0.0-4.0-67.0","1","2020-1-6 12:36:20","ELEPHANT",NA,NA,NA,NA,NA,NA,NA,NA,NA,NA,NA,NA,NA,NA
"581","flanker_test","39","image-keyboard-response","126","1559028","0.0-4.0-68.0-0.0","1","2020-1-6 12:36:20","ELEPHANT",NA,NA,NA,NA,NA,"congruent","right","TRUE",NA,NA,NA,NA,NA,NA
"682","flanker_test","37","image-keyboard-response","127","1560119","0.0-4.0-68.0-0.1","1","2020-1-6 12:36:20","ELEPHANT",NA,NA,NA,NA,NA,"incongruent","left","TRUE",NA,NA,NA,NA,NA,NA
"586","flanker_test","39","image-keyboard-response","128","1561165","0.0-4.0-68.0-0.2","1","2020-1-6 12:36:20","ELEPHANT",NA,NA,NA,NA,NA,"incongruent","right","TRUE",NA,NA,NA,NA,NA,NA
"632","flanker_test","37","image-keyboard-response","129","1562229","0.0-4.0-68.0-0.3","1","2020-1-6 12:36:20","ELEPHANT",NA,NA,NA,NA,NA,"congruent","left","TRUE",NA,NA,NA,NA,NA,NA
"45198","sort_trial",NA,"free-sort","130","1608065","0.0-4.0-69.0","1","2020-1-6 12:36:20","ELEPHANT",NA,NA,NA,NA,NA,NA,NA,NA,"[{""cat"":15,""src"":10,""x"":56,""y"":87},{""cat"":11,""src"":16,""x"":3,""y"":484},{""cat"":3,""src"":7,""x"":21,""y"":447},{""cat"":11,""src"":2,""x"":68,""y"":365},{""cat"":15,""src"":9,""x"":65,""y"":141},{""cat"":3,""src"":3,""x"":73,""y"":255},{""cat"":3,""src"":0,""x"":62,""y"":304},{""cat"":15,""src"":3,""x"":14,""y"":29},{""cat"":11,""src"":11,""x"":24,""y"":181}]","[{""cat"":""3"",""src"":""3"",""x"":0,""y"":0},{""cat"":""3"",""src"":""0"",""x"":0,""y"":0},{""cat"":""3"",""src"":""7"",""x"":0,""y"":0},{""cat"":""15"",""src"":""3"",""x"":0,""y"":0},{""cat"":""15"",""src"":""9"",""x"":0,""y"":0},{""cat"":""15"",""src"":""10"",""x"":0,""y"":0},{""cat"":""11"",""src"":""11"",""x"":0,""y"":0},{""cat"":""11"",""src"":""2"",""x"":0,""y"":0},{""cat"":""11"",""src"":""16"",""x"":0,""y"":0}]","[{""cat"":3,""src"":3,""loc"":1},{""cat"":3,""src"":0,""loc"":0},{""cat"":3,""src"":7,""loc"":2},{""cat"":15,""src"":3,""loc"":8},{""cat"":15,""src"":9,""loc"":6},{""cat"":15,""src"":10,""loc"":7},{""cat"":11,""src"":11,""loc"":5},{""cat"":11,""src"":2,""loc"":3},{""cat"":11,""src"":16,""loc"":4}]","7","3,3,3,11,11,11,15,15,15,0,3,7,2,16,11,9,10,3,0,1,2,3,4,5,6,7,8,1,0,2,7,8,6,4,5,3",NA
"5623","sort_feedback","32","html-keyboard-response","131","1613692","0.0-4.0-70.0","1","2020-1-6 12:36:20","ELEPHANT",NA,NA,NA,NA,NA,NA,NA,NA,NA,NA,NA,NA,NA,NA
"20019","setup2",NA,"animation","132","1633712","0.0-4.0-71.0","1","2020-1-6 12:36:20","ELEPHANT",NA,NA,"[{""cat"":24,""src"":9,""loc"":6},{""cat"":19,""src"":8,""loc"":7},{""cat"":7,""src"":4,""loc"":8},{""cat"":19,""src"":17,""loc"":5},{""cat"":7,""src"":0,""loc"":4},{""cat"":24,""src"":3,""loc"":3},{""cat"":24,""src"":17,""loc"":0},{""cat"":7,""src"":16,""loc"":2},{""cat"":19,""src"":4,""loc"":1}]","2","1119,1111,1103,1111,1118,1103,1117,1112,1118,10007",NA,NA,NA,NA,NA,NA,NA,NA,NA
"2299","flanker_instructions","37","html-keyboard-response","133","1636015","0.0-4.0-72.0","1","2020-1-6 12:36:20","ELEPHANT",NA,NA,NA,NA,NA,NA,NA,NA,NA,NA,NA,NA,NA,NA
"594","flanker_test","39","image-keyboard-response","134","1637619","0.0-4.0-73.0-0.0","1","2020-1-6 12:36:20","ELEPHANT",NA,NA,NA,NA,NA,"congruent","right","TRUE",NA,NA,NA,NA,NA,NA
"550","flanker_test","37","image-keyboard-response","135","1638603","0.0-4.0-73.0-0.1","1","2020-1-6 12:36:20","ELEPHANT",NA,NA,NA,NA,NA,"incongruent","left","TRUE",NA,NA,NA,NA,NA,NA
"501","flanker_test","37","image-keyboard-response","136","1640296","0.0-4.0-73.0-0.2","1","2020-1-6 12:36:20","ELEPHANT",NA,NA,NA,NA,NA,"congruent","left","TRUE",NA,NA,NA,NA,NA,NA
"604","flanker_test","39","image-keyboard-response","137","1641551","0.0-4.0-73.0-0.3","1","2020-1-6 12:36:20","ELEPHANT",NA,NA,NA,NA,NA,"incongruent","right","TRUE",NA,NA,NA,NA,NA,NA
"50977","sort_trial",NA,"free-sort","138","1693018","0.0-4.0-74.0","1","2020-1-6 12:36:20","ELEPHANT",NA,NA,NA,NA,NA,NA,NA,NA,"[{""cat"":24,""src"":9,""x"":71,""y"":26},{""cat"":19,""src"":8,""x"":68,""y"":500},{""cat"":7,""src"":4,""x"":46,""y"":186},{""cat"":19,""src"":17,""x"":5,""y"":61},{""cat"":7,""src"":0,""x"":60,""y"":141},{""cat"":24,""src"":3,""x"":81,""y"":256},{""cat"":24,""src"":17,""x"":74,""y"":312},{""cat"":7,""src"":16,""x"":11,""y"":381},{""cat"":19,""src"":4,""x"":15,""y"":419}]","[{""cat"":""19"",""src"":""4"",""x"":0,""y"":0},{""cat"":""7"",""src"":""16"",""x"":0,""y"":0},{""cat"":""24"",""src"":""17"",""x"":0,""y"":0},{""cat"":""24"",""src"":""3"",""x"":0,""y"":0},{""cat"":""7"",""src"":""4"",""x"":0,""y"":0},{""cat"":""7"",""src"":""0"",""x"":0,""y"":0},{""cat"":""19"",""src"":""17"",""x"":5,""y"":61},{""cat"":""19"",""src"":""17"",""x"":0,""y"":0},{""cat"":""24"",""src"":""9"",""x"":283,""y"":256},{""cat"":""24"",""src"":""9"",""x"":0,""y"":0},{""cat"":""19"",""src"":""8"",""x"":239,""y"":399},{""cat"":""19"",""src"":""8"",""x"":70,""y"":500},{""cat"":""19"",""src"":""8"",""x"":0,""y"":0}]","[{""cat"":19,""src"":4,""loc"":1},{""cat"":7,""src"":16,""loc"":2},{""cat"":24,""src"":17,""loc"":0},{""cat"":24,""src"":3,""loc"":3},{""cat"":7,""src"":4,""loc"":8},{""cat"":7,""src"":0,""loc"":4},{""cat"":19,""src"":17,""loc"":5},{""cat"":24,""src"":9,""loc"":6},{""cat"":19,""src"":8,""loc"":7}]","9","24,19,7,24,7,19,24,19,7,17,4,16,3,0,17,9,8,4,0,1,2,3,4,5,6,7,8,2,0,1,3,5,6,7,8,4",NA
"4994","sort_feedback","32","html-keyboard-response","139","1698016","0.0-4.0-75.0","1","2020-1-6 12:36:20","ELEPHANT",NA,NA,NA,NA,NA,NA,NA,NA,NA,NA,NA,NA,NA,NA
"20039","setup4",NA,"animation","140","1718057","0.0-4.0-76.0","1","2020-1-6 12:36:20","ELEPHANT",NA,NA,"[{""cat"":0,""src"":0,""loc"":7},{""cat"":0,""src"":6,""loc"":3},{""cat"":0,""src"":16,""loc"":1},{""cat"":27,""src"":1,""loc"":2},{""cat"":27,""src"":5,""loc"":6},{""cat"":27,""src"":19,""loc"":4},{""cat"":32,""src"":10,""loc"":0},{""cat"":32,""src"":2,""loc"":8},{""cat"":32,""src"":12,""loc"":5}]","4","1105,1109,1118,1119,1113,1117,1118,1117,1112,10011",NA,NA,NA,NA,NA,NA,NA,NA,NA
"8996","flanker_instructions","37","html-keyboard-response","141","1727057","0.0-4.0-77.0","1","2020-1-6 12:36:20","ELEPHANT",NA,NA,NA,NA,NA,NA,NA,NA,NA,NA,NA,NA,NA,NA
"725","flanker_test","37","image-keyboard-response","142","1728795","0.0-4.0-78.0-0.0","1","2020-1-6 12:36:20","ELEPHANT",NA,NA,NA,NA,NA,"congruent","left","TRUE",NA,NA,NA,NA,NA,NA
"600","flanker_test","39","image-keyboard-response","143","1729806","0.0-4.0-78.0-0.1","1","2020-1-6 12:36:20","ELEPHANT",NA,NA,NA,NA,NA,"incongruent","right","TRUE",NA,NA,NA,NA,NA,NA
"642","flanker_test","39","image-keyboard-response","144","1730864","0.0-4.0-78.0-0.2","1","2020-1-6 12:36:20","ELEPHANT",NA,NA,NA,NA,NA,"congruent","right","TRUE",NA,NA,NA,NA,NA,NA
"585","flanker_test","37","image-keyboard-response","145","1732594","0.0-4.0-78.0-0.3","1","2020-1-6 12:36:20","ELEPHANT",NA,NA,NA,NA,NA,"incongruent","left","TRUE",NA,NA,NA,NA,NA,NA
"40497","sort_trial",NA,"free-sort","146","1774095","0.0-4.0-79.0","1","2020-1-6 12:36:20","ELEPHANT",NA,NA,NA,NA,NA,NA,NA,NA,"[{""cat"":0,""src"":0,""x"":63,""y"":505},{""cat"":0,""src"":6,""x"":36,""y"":376},{""cat"":0,""src"":16,""x"":32,""y"":325},{""cat"":27,""src"":1,""x"":50,""y"":131},{""cat"":27,""src"":5,""x"":41,""y"":438},{""cat"":27,""src"":19,""x"":19,""y"":69},{""cat"":32,""src"":10,""x"":81,""y"":243},{""cat"":32,""src"":2,""x"":26,""y"":200},{""cat"":32,""src"":12,""x"":56,""y"":24}]","[{""cat"":""0"",""src"":""16"",""x"":0,""y"":0},{""cat"":""32"",""src"":""10"",""x"":0,""y"":0},{""cat"":""27"",""src"":""1"",""x"":0,""y"":0},{""cat"":""0"",""src"":""0"",""x"":0,""y"":0},{""cat"":""27"",""src"":""5"",""x"":0,""y"":0},{""cat"":""32"",""src"":""2"",""x"":0,""y"":0},{""cat"":""32"",""src"":""12"",""x"":0,""y"":0},{""cat"":""27"",""src"":""19"",""x"":0,""y"":0},{""cat"":""0"",""src"":""6"",""x"":0,""y"":0}]","[{""cat"":0,""src"":16,""loc"":1},{""cat"":32,""src"":10,""loc"":0},{""cat"":27,""src"":1,""loc"":2},{""cat"":0,""src"":0,""loc"":7},{""cat"":27,""src"":5,""loc"":6},{""cat"":32,""src"":2,""loc"":8},{""cat"":32,""src"":12,""loc"":5},{""cat"":27,""src"":19,""loc"":4},{""cat"":0,""src"":6,""loc"":3}]","9","32,0,27,0,27,32,27,0,32,10,16,1,6,19,12,5,0,2,0,1,2,3,4,5,6,7,8,1,0,2,8,7,6,4,3,5",NA
"5320","sort_feedback","32","html-keyboard-response","147","1779418","0.0-4.0-80.0","1","2020-1-6 12:36:20","ELEPHANT",NA,NA,NA,NA,NA,NA,NA,NA,NA,NA,NA,NA,NA,NA
"20006","setup2",NA,"animation","148","1799425","0.0-4.0-81.0","1","2020-1-6 12:36:20","ELEPHANT",NA,NA,"[{""cat"":20,""src"":4,""loc"":4},{""cat"":13,""src"":8,""loc"":3},{""cat"":6,""src"":13,""loc"":5},{""cat"":20,""src"":8,""loc"":1},{""cat"":6,""src"":1,""loc"":2},{""cat"":13,""src"":7,""loc"":0},{""cat"":6,""src"":18,""loc"":8},{""cat"":20,""src"":14,""loc"":7},{""cat"":13,""src"":13,""loc"":6}]","2","1111,1103,1104,1113,1104,1106,1122,1116,1115,10012",NA,NA,NA,NA,NA,NA,NA,NA,NA
"2660","flanker_instructions","37","html-keyboard-response","149","1802088","0.0-4.0-82.0","1","2020-1-6 12:36:20","ELEPHANT",NA,NA,NA,NA,NA,NA,NA,NA,NA,NA,NA,NA,NA,NA
"881","flanker_test","39","image-keyboard-response","150","1803989","0.0-4.0-83.0-0.0","1","2020-1-6 12:36:20","ELEPHANT",NA,NA,NA,NA,NA,"incongruent","right","TRUE",NA,NA,NA,NA,NA,NA
"621","flanker_test","37","image-keyboard-response","151","1805130","0.0-4.0-83.0-0.1","1","2020-1-6 12:36:20","ELEPHANT",NA,NA,NA,NA,NA,"incongruent","left","TRUE",NA,NA,NA,NA,NA,NA
"551","flanker_test","37","image-keyboard-response","152","1806458","0.0-4.0-83.0-0.2","1","2020-1-6 12:36:20","ELEPHANT",NA,NA,NA,NA,NA,"congruent","left","TRUE",NA,NA,NA,NA,NA,NA
"450","flanker_test","39","image-keyboard-response","153","1807610","0.0-4.0-83.0-0.3","1","2020-1-6 12:36:20","ELEPHANT",NA,NA,NA,NA,NA,"congruent","right","TRUE",NA,NA,NA,NA,NA,NA
"46019","sort_trial",NA,"free-sort","154","1854762","0.0-4.0-84.0","1","2020-1-6 12:36:20","ELEPHANT",NA,NA,NA,NA,NA,NA,NA,NA,"[{""cat"":20,""src"":4,""x"":83,""y"":481},{""cat"":13,""src"":8,""x"":6,""y"":8},{""cat"":6,""src"":13,""x"":5,""y"":256},{""cat"":20,""src"":8,""x"":80,""y"":124},{""cat"":6,""src"":1,""x"":77,""y"":186},{""cat"":13,""src"":7,""x"":31,""y"":325},{""cat"":6,""src"":18,""x"":20,""y"":368},{""cat"":20,""src"":14,""x"":35,""y"":79},{""cat"":13,""src"":13,""x"":79,""y"":442}]","[{""cat"":""20"",""src"":""8"",""x"":0,""y"":0},{""cat"":""13"",""src"":""7"",""x"":0,""y"":0},{""cat"":""6"",""src"":""1"",""x"":0,""y"":0},{""cat"":""6"",""src"":""13"",""x"":0,""y"":0},{""cat"":""20"",""src"":""4"",""x"":814,""y"":169},{""cat"":""20"",""src"":""4"",""x"":0,""y"":0},{""cat"":""13"",""src"":""8"",""x"":0,""y"":0},{""cat"":""6"",""src"":""18"",""x"":0,""y"":0},{""cat"":""13"",""src"":""13"",""x"":0,""y"":0},{""cat"":""20"",""src"":""14"",""x"":186,""y"":401},{""cat"":""20"",""src"":""14"",""x"":0,""y"":0}]","[{""cat"":20,""src"":8,""loc"":1},{""cat"":13,""src"":7,""loc"":0},{""cat"":6,""src"":1,""loc"":2},{""cat"":6,""src"":13,""loc"":5},{""cat"":20,""src"":4,""loc"":4},{""cat"":13,""src"":8,""loc"":3},{""cat"":6,""src"":18,""loc"":8},{""cat"":13,""src"":13,""loc"":6},{""cat"":20,""src"":14,""loc"":7}]","9","13,20,6,13,20,6,13,20,6,7,8,1,8,4,13,13,14,18,0,1,2,3,4,5,6,7,8,1,0,2,5,4,3,7,8,6",NA
"5726","sort_feedback","32","html-keyboard-response","155","1860493","0.0-4.0-85.0","1","2020-1-6 12:36:20","ELEPHANT",NA,NA,NA,NA,NA,NA,NA,NA,NA,NA,NA,NA,NA,NA
"19979","setup1",NA,"animation","156","1880474","0.0-4.0-86.0","1","2020-1-6 12:36:20","ELEPHANT",NA,NA,"[{""cat"":6,""src"":16,""loc"":0},{""cat"":6,""src"":3,""loc"":2},{""cat"":6,""src"":14,""loc"":1},{""cat"":24,""src"":5,""loc"":5},{""cat"":24,""src"":4,""loc"":4},{""cat"":24,""src"":1,""loc"":3},{""cat"":29,""src"":2,""loc"":7},{""cat"":29,""src"":18,""loc"":8},{""cat"":29,""src"":6,""loc"":6}]","1","1106,1113,1115,1104,1103,1104,1112,1105,1105,10012",NA,NA,NA,NA,NA,NA,NA,NA,NA
"1874","flanker_instructions","37","html-keyboard-response","157","1882354","0.0-4.0-87.0","1","2020-1-6 12:36:20","ELEPHANT",NA,NA,NA,NA,NA,NA,NA,NA,NA,NA,NA,NA,NA,NA
"562","flanker_test","37","image-keyboard-response","158","1883923","0.0-4.0-88.0-0.0","1","2020-1-6 12:36:20","ELEPHANT",NA,NA,NA,NA,NA,"congruent","left","TRUE",NA,NA,NA,NA,NA,NA
"684","flanker_test","39","image-keyboard-response","159","1885030","0.0-4.0-88.0-0.1","1","2020-1-6 12:36:20","ELEPHANT",NA,NA,NA,NA,NA,"incongruent","right","TRUE",NA,NA,NA,NA,NA,NA
"506","flanker_test","39","image-keyboard-response","160","1886516","0.0-4.0-88.0-0.2","1","2020-1-6 12:36:20","ELEPHANT",NA,NA,NA,NA,NA,"congruent","right","TRUE",NA,NA,NA,NA,NA,NA
"501","flanker_test","37","image-keyboard-response","161","1887565","0.0-4.0-88.0-0.3","1","2020-1-6 12:36:20","ELEPHANT",NA,NA,NA,NA,NA,"incongruent","left","TRUE",NA,NA,NA,NA,NA,NA
"48502","sort_trial",NA,"free-sort","162","1937006","0.0-4.0-89.0","1","2020-1-6 12:36:20","ELEPHANT",NA,NA,NA,NA,NA,NA,NA,NA,"[{""cat"":6,""src"":16,""x"":12,""y"":371},{""cat"":6,""src"":3,""x"":28,""y"":203},{""cat"":6,""src"":14,""x"":55,""y"":306},{""cat"":24,""src"":5,""x"":26,""y"":4},{""cat"":24,""src"":4,""x"":62,""y"":269},{""cat"":24,""src"":1,""x"":56,""y"":66},{""cat"":29,""src"":2,""x"":25,""y"":497},{""cat"":29,""src"":18,""x"":44,""y"":132},{""cat"":29,""src"":6,""x"":49,""y"":446}]","[{""cat"":""6"",""src"":""14"",""x"":0,""y"":0},{""cat"":""6"",""src"":""3"",""x"":0,""y"":0},{""cat"":""6"",""src"":""16"",""x"":0,""y"":0},{""cat"":""29"",""src"":""6"",""x"":0,""y"":0},{""cat"":""29"",""src"":""18"",""x"":0,""y"":0},{""cat"":""29"",""src"":""2"",""x"":0,""y"":0},{""cat"":""24"",""src"":""4"",""x"":0,""y"":0},{""cat"":""24"",""src"":""5"",""x"":330,""y"":89},{""cat"":""24"",""src"":""5"",""x"":0,""y"":0},{""cat"":""24"",""src"":""1"",""x"":744,""y"":256},{""cat"":""24"",""src"":""1"",""x"":0,""y"":0}]","[{""cat"":6,""src"":14,""loc"":1},{""cat"":6,""src"":3,""loc"":2},{""cat"":6,""src"":16,""loc"":0},{""cat"":29,""src"":6,""loc"":6},{""cat"":29,""src"":18,""loc"":8},{""cat"":29,""src"":2,""loc"":7},{""cat"":24,""src"":4,""loc"":4},{""cat"":24,""src"":5,""loc"":5},{""cat"":24,""src"":1,""loc"":3}]","9","6,6,6,24,24,24,29,29,29,16,14,3,1,4,5,6,2,18,0,1,2,3,4,5,6,7,8,2,0,1,8,6,7,3,5,4",NA
"5582","sort_feedback","32","html-keyboard-response","163","1942590","0.0-4.0-90.0","1","2020-1-6 12:36:20","ELEPHANT",NA,NA,NA,NA,NA,NA,NA,NA,NA,NA,NA,NA,NA,NA
"20046","setup5",NA,"animation","164","1962637","0.0-4.0-91.0","1","2020-1-6 12:36:20","ELEPHANT",NA,NA,"[{""cat"":29,""src"":13,""loc"":2},{""cat"":25,""src"":2,""loc"":7},{""cat"":26,""src"":2,""loc"":4},{""cat"":26,""src"":3,""loc"":1},{""cat"":29,""src"":7,""loc"":8},{""cat"":25,""src"":19,""loc"":3},{""cat"":29,""src"":16,""loc"":5},{""cat"":26,""src"":5,""loc"":6},{""cat"":25,""src"":4,""loc"":0}]","5","1108,1111,1117,1115,1117,1115,1118,1115,1126,10003",NA,NA,NA,NA,NA,NA,NA,NA,NA
"2075","flanker_instructions","37","html-keyboard-response","165","1964716","0.0-4.0-92.0","1","2020-1-6 12:36:20","ELEPHANT",NA,NA,NA,NA,NA,NA,NA,NA,NA,NA,NA,NA,NA,NA
"857","flanker_test","39","image-keyboard-response","166","1966580","0.0-4.0-93.0-0.0","1","2020-1-6 12:36:20","ELEPHANT",NA,NA,NA,NA,NA,"incongruent","right","TRUE",NA,NA,NA,NA,NA,NA
"556","flanker_test","39","image-keyboard-response","167","1967837","0.0-4.0-93.0-0.1","1","2020-1-6 12:36:20","ELEPHANT",NA,NA,NA,NA,NA,"congruent","right","TRUE",NA,NA,NA,NA,NA,NA
"556","flanker_test","37","image-keyboard-response","168","1968759","0.0-4.0-93.0-0.2","1","2020-1-6 12:36:20","ELEPHANT",NA,NA,NA,NA,NA,"congruent","left","TRUE",NA,NA,NA,NA,NA,NA
"522","flanker_test","39","image-keyboard-response","169","1970299","0.0-4.0-93.0-0.3","1","2020-1-6 12:36:20","ELEPHANT",NA,NA,NA,NA,NA,"incongruent","left","FALSE",NA,NA,NA,NA,NA,NA
"43602","sort_trial",NA,"free-sort","170","2014472","0.0-4.0-94.0","1","2020-1-6 12:36:20","ELEPHANT",NA,NA,NA,NA,NA,NA,NA,NA,"[{""cat"":29,""src"":13,""x"":5,""y"":321},{""cat"":25,""src"":2,""x"":50,""y"":203},{""cat"":26,""src"":2,""x"":35,""y"":264},{""cat"":26,""src"":3,""x"":40,""y"":363},{""cat"":29,""src"":7,""x"":49,""y"":127},{""cat"":25,""src"":19,""x"":0,""y"":434},{""cat"":29,""src"":16,""x"":33,""y"":27},{""cat"":26,""src"":5,""x"":16,""y"":65},{""cat"":25,""src"":4,""x"":30,""y"":486}]","[{""cat"":""26"",""src"":""3"",""x"":0,""y"":0},{""cat"":""25"",""src"":""4"",""x"":0,""y"":0},{""cat"":""29"",""src"":""13"",""x"":0,""y"":0},{""cat"":""29"",""src"":""16"",""x"":0,""y"":0},{""cat"":""26"",""src"":""5"",""x"":295,""y"":221},{""cat"":""26"",""src"":""5"",""x"":0,""y"":0},{""cat"":""26"",""src"":""2"",""x"":0,""y"":0},{""cat"":""25"",""src"":""19"",""x"":0,""y"":0},{""cat"":""25"",""src"":""2"",""x"":0,""y"":0},{""cat"":""29"",""src"":""7"",""x"":0,""y"":0}]","[{""cat"":26,""src"":3,""loc"":1},{""cat"":25,""src"":4,""loc"":0},{""cat"":29,""src"":13,""loc"":2},{""cat"":29,""src"":16,""loc"":5},{""cat"":26,""src"":5,""loc"":6},{""cat"":26,""src"":2,""loc"":4},{""cat"":25,""src"":19,""loc"":3},{""cat"":25,""src"":2,""loc"":7},{""cat"":29,""src"":7,""loc"":8}]","9","25,26,29,25,26,29,26,25,29,4,3,13,19,2,16,5,2,7,0,1,2,3,4,5,6,7,8,1,0,2,6,5,3,4,7,8",NA
"5532","sort_feedback","32","html-keyboard-response","171","2020007","0.0-4.0-95.0","1","2020-1-6 12:36:20","ELEPHANT",NA,NA,NA,NA,NA,NA,NA,NA,NA,NA,NA,NA,NA,NA
"20032","setup3",NA,"animation","172","2040041","0.0-4.0-96.0","1","2020-1-6 12:36:20","ELEPHANT",NA,NA,"[{""cat"":1,""src"":4,""loc"":5},{""cat"":25,""src"":12,""loc"":0},{""cat"":30,""src"":7,""loc"":7},{""cat"":30,""src"":2,""loc"":8},{""cat"":25,""src"":0,""loc"":2},{""cat"":1,""src"":2,""loc"":3},{""cat"":1,""src"":17,""loc"":4},{""cat"":25,""src"":18,""loc"":1},{""cat"":30,""src"":8,""loc"":6}]","3","1109,1116,1117,1117,1111,1107,1115,1115,1116,10009",NA,NA,NA,NA,NA,NA,NA,NA,NA
"2020","flanker_instructions","37","html-keyboard-response","173","2042065","0.0-4.0-97.0","1","2020-1-6 12:36:20","ELEPHANT",NA,NA,NA,NA,NA,NA,NA,NA,NA,NA,NA,NA,NA,NA
"707","flanker_test","37","image-keyboard-response","174","2043780","0.0-4.0-98.0-0.0","1","2020-1-6 12:36:20","ELEPHANT",NA,NA,NA,NA,NA,"congruent","left","TRUE",NA,NA,NA,NA,NA,NA
"582","flanker_test","39","image-keyboard-response","175","2045194","0.0-4.0-98.0-0.1","1","2020-1-6 12:36:20","ELEPHANT",NA,NA,NA,NA,NA,"incongruent","right","TRUE",NA,NA,NA,NA,NA,NA
"575","flanker_test","37","image-keyboard-response","176","2046564","0.0-4.0-98.0-0.2","1","2020-1-6 12:36:20","ELEPHANT",NA,NA,NA,NA,NA,"incongruent","left","TRUE",NA,NA,NA,NA,NA,NA
"485","flanker_test","39","image-keyboard-response","177","2047774","0.0-4.0-98.0-0.3","1","2020-1-6 12:36:20","ELEPHANT",NA,NA,NA,NA,NA,"congruent","right","TRUE",NA,NA,NA,NA,NA,NA
"46903","sort_trial",NA,"free-sort","178","2095219","0.0-4.0-99.0","1","2020-1-6 12:36:20","ELEPHANT",NA,NA,NA,NA,NA,NA,NA,NA,"[{""cat"":1,""src"":4,""x"":64,""y"":440},{""cat"":25,""src"":12,""x"":45,""y"":495},{""cat"":30,""src"":7,""x"":55,""y"":318},{""cat"":30,""src"":2,""x"":51,""y"":16},{""cat"":25,""src"":0,""x"":27,""y"":260},{""cat"":1,""src"":2,""x"":26,""y"":140},{""cat"":1,""src"":17,""x"":23,""y"":64},{""cat"":25,""src"":18,""x"":81,""y"":205},{""cat"":30,""src"":8,""x"":71,""y"":362}]","[{""cat"":""25"",""src"":""18"",""x"":0,""y"":0},{""cat"":""25"",""src"":""0"",""x"":199,""y"":226},{""cat"":""25"",""src"":""0"",""x"":0,""y"":0},{""cat"":""25"",""src"":""12"",""x"":0,""y"":0},{""cat"":""30"",""src"":""8"",""x"":0,""y"":0},{""cat"":""30"",""src"":""7"",""x"":0,""y"":0},{""cat"":""1"",""src"":""4"",""x"":0,""y"":0},{""cat"":""1"",""src"":""2"",""x"":0,""y"":0},{""cat"":""30"",""src"":""2"",""x"":0,""y"":0},{""cat"":""1"",""src"":""17"",""x"":0,""y"":0}]","[{""cat"":25,""src"":18,""loc"":1},{""cat"":25,""src"":0,""loc"":2},{""cat"":25,""src"":12,""loc"":0},{""cat"":30,""src"":8,""loc"":6},{""cat"":30,""src"":7,""loc"":7},{""cat"":1,""src"":4,""loc"":5},{""cat"":1,""src"":2,""loc"":3},{""cat"":30,""src"":2,""loc"":8},{""cat"":1,""src"":17,""loc"":4}]","9","25,25,25,1,1,1,30,30,30,12,18,0,2,17,4,8,7,2,0,1,2,3,4,5,6,7,8,2,0,1,6,8,5,3,4,7",NA
"5588","sort_feedback","32","html-keyboard-response","179","2100812","0.0-4.0-100.0","1","2020-1-6 12:36:20","ELEPHANT",NA,NA,NA,NA,NA,NA,NA,NA,NA,NA,NA,NA,NA,NA
NA,"breakStart",NA,"html-keyboard-response","180","2130835","0.0-5.0-0.0","1","2020-1-6 12:36:20","ELEPHANT",NA,NA,NA,NA,NA,NA,NA,NA,NA,NA,NA,NA,NA,NA
"3610","breakEnd",NA,"html-button-response","181","2134448","0.0-5.0-1.0","1","2020-1-6 12:36:20","ELEPHANT","0",NA,NA,NA,NA,NA,NA,NA,NA,NA,NA,NA,NA,NA
"20034","setup1",NA,"animation","182","2154483","0.0-6.0-0.0","1","2020-1-6 12:36:20","ELEPHANT",NA,NA,"[{""cat"":8,""src"":4,""loc"":6},{""cat"":8,""src"":10,""loc"":8},{""cat"":8,""src"":1,""loc"":7},{""cat"":14,""src"":18,""loc"":3},{""cat"":14,""src"":9,""loc"":5},{""cat"":14,""src"":15,""loc"":4},{""cat"":24,""src"":9,""loc"":1},{""cat"":24,""src"":12,""loc"":2},{""cat"":24,""src"":16,""loc"":0}]","1","1105,1103,1115,1114,1118,1118,1114,1118,1114,10015",NA,NA,NA,NA,NA,NA,NA,NA,NA
"883","flanker_instructions","37","html-keyboard-response","183","2155371","0.0-6.0-1.0","1","2020-1-6 12:36:20","ELEPHANT",NA,NA,NA,NA,NA,NA,NA,NA,NA,NA,NA,NA,NA,NA
"657","flanker_test","37","image-keyboard-response","184","2157033","0.0-6.0-2.0-0.0","1","2020-1-6 12:36:20","ELEPHANT",NA,NA,NA,NA,NA,"congruent","left","TRUE",NA,NA,NA,NA,NA,NA
"633","flanker_test","39","image-keyboard-response","185","2158331","0.0-6.0-2.0-0.1","1","2020-1-6 12:36:20","ELEPHANT",NA,NA,NA,NA,NA,"incongruent","right","TRUE",NA,NA,NA,NA,NA,NA
"609","flanker_test","37","image-keyboard-response","186","2159403","0.0-6.0-2.0-0.2","1","2020-1-6 12:36:20","ELEPHANT",NA,NA,NA,NA,NA,"incongruent","left","TRUE",NA,NA,NA,NA,NA,NA
"537","flanker_test","39","image-keyboard-response","187","2161035","0.0-6.0-2.0-0.3","1","2020-1-6 12:36:20","ELEPHANT",NA,NA,NA,NA,NA,"congruent","right","TRUE",NA,NA,NA,NA,NA,NA
"41411","sort_trial",NA,"free-sort","188","2203130","0.0-6.0-3.0","1","2020-1-6 12:36:20","ELEPHANT",NA,NA,NA,NA,NA,NA,NA,NA,"[{""cat"":8,""src"":4,""x"":3,""y"":127},{""cat"":8,""src"":10,""x"":0,""y"":25},{""cat"":8,""src"":1,""x"":14,""y"":366},{""cat"":14,""src"":18,""x"":17,""y"":76},{""cat"":14,""src"":9,""x"":34,""y"":428},{""cat"":14,""src"":15,""x"":36,""y"":504},{""cat"":24,""src"":9,""x"":13,""y"":255},{""cat"":24,""src"":12,""x"":81,""y"":208},{""cat"":24,""src"":16,""x"":23,""y"":304}]","[{""cat"":""24"",""src"":""9"",""x"":0,""y"":0},{""cat"":""24"",""src"":""16"",""x"":0,""y"":0},{""cat"":""24"",""src"":""12"",""x"":0,""y"":0},{""cat"":""8"",""src"":""4"",""x"":0,""y"":0},{""cat"":""8"",""src"":""10"",""x"":0,""y"":0},{""cat"":""8"",""src"":""1"",""x"":0,""y"":0},{""cat"":""14"",""src"":""18"",""x"":0,""y"":0},{""cat"":""14"",""src"":""9"",""x"":0,""y"":0},{""cat"":""14"",""src"":""15"",""x"":742,""y"":284},{""cat"":""14"",""src"":""15"",""x"":0,""y"":0}]","[{""cat"":24,""src"":9,""loc"":1},{""cat"":24,""src"":16,""loc"":0},{""cat"":24,""src"":12,""loc"":2},{""cat"":8,""src"":4,""loc"":6},{""cat"":8,""src"":10,""loc"":8},{""cat"":8,""src"":1,""loc"":7},{""cat"":14,""src"":18,""loc"":3},{""cat"":14,""src"":9,""loc"":5},{""cat"":14,""src"":15,""loc"":4}]","9","24,24,24,14,14,14,8,8,8,16,9,12,18,15,9,4,1,10,0,1,2,3,4,5,6,7,8,1,0,2,6,8,7,3,5,4",NA
"4861","sort_feedback","32","html-keyboard-response","189","2207996","0.0-6.0-4.0","1","2020-1-6 12:36:20","ELEPHANT",NA,NA,NA,NA,NA,NA,NA,NA,NA,NA,NA,NA,NA,NA
"20035","setup3",NA,"animation","190","2228032","0.0-6.0-5.0","1","2020-1-6 12:36:20","ELEPHANT",NA,NA,"[{""cat"":14,""src"":14,""loc"":6},{""cat"":19,""src"":17,""loc"":1},{""cat"":2,""src"":5,""loc"":3},{""cat"":19,""src"":2,""loc"":0},{""cat"":14,""src"":15,""loc"":7},{""cat"":2,""src"":9,""loc"":5},{""cat"":14,""src"":9,""loc"":8},{""cat"":2,""src"":12,""loc"":4},{""cat"":19,""src"":18,""loc"":2}]","3","1108,1110,1115,1116,1117,1118,1117,1116,1107,10011",NA,NA,NA,NA,NA,NA,NA,NA,NA
"1866","flanker_instructions","37","html-keyboard-response","191","2229903","0.0-6.0-6.0","1","2020-1-6 12:36:20","ELEPHANT",NA,NA,NA,NA,NA,NA,NA,NA,NA,NA,NA,NA,NA,NA
"536","flanker_test","39","image-keyboard-response","192","2231455","0.0-6.0-7.0-0.0","1","2020-1-6 12:36:20","ELEPHANT",NA,NA,NA,NA,NA,"congruent","right","TRUE",NA,NA,NA,NA,NA,NA
NA,"flanker_test",NA,"image-keyboard-response","193","2233513","0.0-6.0-7.0-0.1","1","2020-1-6 12:36:20","ELEPHANT",NA,NA,NA,NA,NA,"incongruent","left","FALSE",NA,NA,NA,NA,NA,NA
"833","flanker_test","39","image-keyboard-response","194","2235005","0.0-6.0-7.0-0.2","1","2020-1-6 12:36:20","ELEPHANT",NA,NA,NA,NA,NA,"incongruent","right","TRUE",NA,NA,NA,NA,NA,NA
"525","flanker_test","37","image-keyboard-response","195","2236495","0.0-6.0-7.0-0.3","1","2020-1-6 12:36:20","ELEPHANT",NA,NA,NA,NA,NA,"congruent","left","TRUE",NA,NA,NA,NA,NA,NA
"47179","sort_trial",NA,"free-sort","196","2284379","0.0-6.0-8.0","1","2020-1-6 12:36:20","ELEPHANT",NA,NA,NA,NA,NA,NA,NA,NA,"[{""cat"":14,""src"":14,""x"":66,""y"":317},{""cat"":19,""src"":17,""x"":24,""y"":15},{""cat"":2,""src"":5,""x"":78,""y"":182},{""cat"":19,""src"":2,""x"":68,""y"":125},{""cat"":14,""src"":15,""x"":33,""y"":493},{""cat"":2,""src"":9,""x"":7,""y"":432},{""cat"":14,""src"":9,""x"":44,""y"":86},{""cat"":2,""src"":12,""x"":56,""y"":268},{""cat"":19,""src"":18,""x"":72,""y"":386}]","[{""cat"":""19"",""src"":""17"",""x"":0,""y"":0},{""cat"":""19"",""src"":""2"",""x"":0,""y"":0},{""cat"":""19"",""src"":""18"",""x"":0,""y"":0},{""cat"":""14"",""src"":""15"",""x"":0,""y"":0},{""cat"":""14"",""src"":""14"",""x"":0,""y"":0},{""cat"":""14"",""src"":""9"",""x"":0,""y"":0},{""cat"":""2"",""src"":""5"",""x"":0,""y"":0},{""cat"":""2"",""src"":""12"",""x"":0,""y"":0},{""cat"":""2"",""src"":""9"",""x"":0,""y"":0}]","[{""cat"":19,""src"":17,""loc"":1},{""cat"":19,""src"":2,""loc"":0},{""cat"":19,""src"":18,""loc"":2},{""cat"":14,""src"":15,""loc"":7},{""cat"":14,""src"":14,""loc"":6},{""cat"":14,""src"":9,""loc"":8},{""cat"":2,""src"":5,""loc"":3},{""cat"":2,""src"":12,""loc"":4},{""cat"":2,""src"":9,""loc"":5}]","9","19,19,19,2,2,2,14,14,14,2,17,18,5,12,9,14,15,9,0,1,2,3,4,5,6,7,8,1,0,2,6,7,8,4,3,5",NA
"5827","sort_feedback","32","html-keyboard-response","197","2290210","0.0-6.0-9.0","1","2020-1-6 12:36:20","ELEPHANT",NA,NA,NA,NA,NA,NA,NA,NA,NA,NA,NA,NA,NA,NA
"20016","setup2",NA,"animation","198","2310228","0.0-6.0-10.0","1","2020-1-6 12:36:20","ELEPHANT",NA,NA,"[{""cat"":10,""src"":16,""loc"":4},{""cat"":31,""src"":5,""loc"":3},{""cat"":21,""src"":14,""loc"":5},{""cat"":10,""src"":7,""loc"":6},{""cat"":21,""src"":12,""loc"":8},{""cat"":31,""src"":9,""loc"":7},{""cat"":10,""src"":1,""loc"":0},{""cat"":31,""src"":6,""loc"":2},{""cat"":21,""src"":10,""loc"":1}]","2","1119,1103,1104,1104,1105,1118,1115,1117,1119,10012",NA,NA,NA,NA,NA,NA,NA,NA,NA
"4100","flanker_instructions","37","html-keyboard-response","199","2314332","0.0-6.0-11.0","1","2020-1-6 12:36:20","ELEPHANT",NA,NA,NA,NA,NA,NA,NA,NA,NA,NA,NA,NA,NA,NA
NA,"flanker_test",NA,"image-keyboard-response","200","2316257","0.0-6.0-12.0-0.0","1","2020-1-6 12:36:20","ELEPHANT",NA,NA,NA,NA,NA,"incongruent","right","FALSE",NA,NA,NA,NA,NA,NA
"650","flanker_test","37","image-keyboard-response","201","2317449","0.0-6.0-12.0-0.1","1","2020-1-6 12:36:20","ELEPHANT",NA,NA,NA,NA,NA,"incongruent","left","TRUE",NA,NA,NA,NA,NA,NA
"689","flanker_test","39","image-keyboard-response","202","2318555","0.0-6.0-12.0-0.2","1","2020-1-6 12:36:20","ELEPHANT",NA,NA,NA,NA,NA,"congruent","right","TRUE",NA,NA,NA,NA,NA,NA
"638","flanker_test","37","image-keyboard-response","203","2320032","0.0-6.0-12.0-0.3","1","2020-1-6 12:36:20","ELEPHANT",NA,NA,NA,NA,NA,"congruent","left","TRUE",NA,NA,NA,NA,NA,NA
"86816","sort_trial",NA,"free-sort","204","2407512","0.0-6.0-13.0","1","2020-1-6 12:36:20","ELEPHANT",NA,NA,NA,NA,NA,NA,NA,NA,"[{""cat"":10,""src"":16,""x"":2,""y"":122},{""cat"":31,""src"":5,""x"":15,""y"":321},{""cat"":21,""src"":14,""x"":76,""y"":366},{""cat"":10,""src"":7,""x"":4,""y"":87},{""cat"":21,""src"":12,""x"":11,""y"":2},{""cat"":31,""src"":9,""x"":23,""y"":481},{""cat"":10,""src"":1,""x"":83,""y"":253},{""cat"":31,""src"":6,""x"":47,""y"":201},{""cat"":21,""src"":10,""x"":57,""y"":440}]","[{""cat"":""21"",""src"":""10"",""x"":0,""y"":0},{""cat"":""31"",""src"":""6"",""x"":0,""y"":0},{""cat"":""10"",""src"":""1"",""x"":0,""y"":0},{""cat"":""10"",""src"":""7"",""x"":0,""y"":0},{""cat"":""31"",""src"":""9"",""x"":74,""y"":463},{""cat"":""31"",""src"":""9"",""x"":0,""y"":0},{""cat"":""21"",""src"":""12"",""x"":0,""y"":0},{""cat"":""21"",""src"":""14"",""x"":0,""y"":0},{""cat"":""31"",""src"":""5"",""x"":0,""y"":0},{""cat"":""10"",""src"":""16"",""x"":0,""y"":0}]","[{""cat"":21,""src"":10,""loc"":1},{""cat"":31,""src"":6,""loc"":2},{""cat"":10,""src"":1,""loc"":0},{""cat"":10,""src"":7,""loc"":6},{""cat"":31,""src"":9,""loc"":7},{""cat"":21,""src"":12,""loc"":8},{""cat"":21,""src"":14,""loc"":5},{""cat"":31,""src"":5,""loc"":3},{""cat"":10,""src"":16,""loc"":4}]","9","10,21,31,31,10,21,10,31,21,1,10,6,5,16,14,7,9,12,0,1,2,3,4,5,6,7,8,2,0,1,7,8,6,3,4,5",NA
"23213","sort_feedback","32","html-keyboard-response","205","2430732","0.0-6.0-14.0","1","2020-1-6 12:36:20","ELEPHANT",NA,NA,NA,NA,NA,NA,NA,NA,NA,NA,NA,NA,NA,NA
"20055","setup5",NA,"animation","206","2450789","0.0-6.0-15.0","1","2020-1-6 12:36:20","ELEPHANT",NA,NA,"[{""cat"":31,""src"":1,""loc"":2},{""cat"":32,""src"":2,""loc"":5},{""cat"":15,""src"":17,""loc"":6},{""cat"":32,""src"":15,""loc"":8},{""cat"":15,""src"":9,""loc"":0},{""cat"":31,""src"":11,""loc"":4},{""cat"":31,""src"":13,""loc"":7},{""cat"":15,""src"":4,""loc"":3},{""cat"":32,""src"":10,""loc"":1}]","5","1121,1102,1116,1117,1114,1119,1121,1117,1117,10010",NA,NA,NA,NA,NA,NA,NA,NA,NA
"3511","flanker_instructions","37","html-keyboard-response","207","2454305","0.0-6.0-16.0","1","2020-1-6 12:36:20","ELEPHANT",NA,NA,NA,NA,NA,NA,NA,NA,NA,NA,NA,NA,NA,NA
"641","flanker_test","39","image-keyboard-response","208","2455951","0.0-6.0-17.0-0.0","1","2020-1-6 12:36:20","ELEPHANT",NA,NA,NA,NA,NA,"incongruent","right","TRUE",NA,NA,NA,NA,NA,NA
"700","flanker_test","39","image-keyboard-response","209","2457023","0.0-6.0-17.0-0.1","1","2020-1-6 12:36:20","ELEPHANT",NA,NA,NA,NA,NA,"congruent","right","TRUE",NA,NA,NA,NA,NA,NA
"526","flanker_test","37","image-keyboard-response","210","2458184","0.0-6.0-17.0-0.2","1","2020-1-6 12:36:20","ELEPHANT",NA,NA,NA,NA,NA,"incongruent","left","TRUE",NA,NA,NA,NA,NA,NA
"537","flanker_test","37","image-keyboard-response","211","2459528","0.0-6.0-17.0-0.3","1","2020-1-6 12:36:20","ELEPHANT",NA,NA,NA,NA,NA,"congruent","left","TRUE",NA,NA,NA,NA,NA,NA
"143944","sort_trial",NA,"free-sort","212","2604065","0.0-6.0-18.0","1","2020-1-6 12:36:20","ELEPHANT",NA,NA,NA,NA,NA,NA,NA,NA,"[{""cat"":31,""src"":1,""x"":48,""y"":145},{""cat"":32,""src"":2,""x"":19,""y"":250},{""cat"":15,""src"":17,""x"":79,""y"":380},{""cat"":32,""src"":15,""x"":4,""y"":81},{""cat"":15,""src"":9,""x"":48,""y"":309},{""cat"":31,""src"":11,""x"":25,""y"":193},{""cat"":31,""src"":13,""x"":41,""y"":432},{""cat"":15,""src"":4,""x"":40,""y"":14},{""cat"":32,""src"":10,""x"":38,""y"":485}]","[{""cat"":""32"",""src"":""10"",""x"":0,""y"":0},{""cat"":""15"",""src"":""9"",""x"":0,""y"":0},{""cat"":""31"",""src"":""1"",""x"":0,""y"":0},{""cat"":""15"",""src"":""4"",""x"":0,""y"":0},{""cat"":""32"",""src"":""2"",""x"":0,""y"":0},{""cat"":""31"",""src"":""11"",""x"":0,""y"":0},{""cat"":""32"",""src"":""15"",""x"":0,""y"":0},{""cat"":""15"",""src"":""17"",""x"":0,""y"":0},{""cat"":""31"",""src"":""13"",""x"":0,""y"":0}]","[{""cat"":32,""src"":10,""loc"":1},{""cat"":15,""src"":9,""loc"":0},{""cat"":31,""src"":1,""loc"":2},{""cat"":15,""src"":4,""loc"":3},{""cat"":32,""src"":2,""loc"":5},{""cat"":31,""src"":11,""loc"":4},{""cat"":32,""src"":15,""loc"":8},{""cat"":15,""src"":17,""loc"":6},{""cat"":31,""src"":13,""loc"":7}]","9","15,32,31,15,31,32,15,31,32,9,10,1,4,11,2,17,13,15,0,1,2,3,4,5,6,7,8,1,0,2,3,5,4,7,8,6",NA
"9737","sort_feedback","32","html-keyboard-response","213","2613806","0.0-6.0-19.0","1","2020-1-6 12:36:20","ELEPHANT",NA,NA,NA,NA,NA,NA,NA,NA,NA,NA,NA,NA,NA,NA
"20028","setup4",NA,"animation","214","2633835","0.0-6.0-20.0","1","2020-1-6 12:36:20","ELEPHANT",NA,NA,"[{""cat"":29,""src"":11,""loc"":5},{""cat"":29,""src"":13,""loc"":6},{""cat"":29,""src"":15,""loc"":2},{""cat"":3,""src"":1,""loc"":4},{""cat"":3,""src"":12,""loc"":7},{""cat"":3,""src"":18,""loc"":0},{""cat"":33,""src"":5,""loc"":3},{""cat"":33,""src"":7,""loc"":8},{""cat"":33,""src"":8,""loc"":1}]","4","1110,1111,1117,1107,1110,1117,1116,1117,1118,10005",NA,NA,NA,NA,NA,NA,NA,NA,NA
"3275","flanker_instructions","37","html-keyboard-response","215","2637115","0.0-6.0-21.0","1","2020-1-6 12:36:20","ELEPHANT",NA,NA,NA,NA,NA,NA,NA,NA,NA,NA,NA,NA,NA,NA
"726","flanker_test","39","image-keyboard-response","216","2638853","0.0-6.0-22.0-0.0","1","2020-1-6 12:36:20","ELEPHANT",NA,NA,NA,NA,NA,"incongruent","right","TRUE",NA,NA,NA,NA,NA,NA
"553","flanker_test","37","image-keyboard-response","217","2639995","0.0-6.0-22.0-0.1","1","2020-1-6 12:36:20","ELEPHANT",NA,NA,NA,NA,NA,"incongruent","left","TRUE",NA,NA,NA,NA,NA,NA
"618","flanker_test","37","image-keyboard-response","218","2641027","0.0-6.0-22.0-0.2","1","2020-1-6 12:36:20","ELEPHANT",NA,NA,NA,NA,NA,"congruent","left","TRUE",NA,NA,NA,NA,NA,NA
"620","flanker_test","39","image-keyboard-response","219","2642039","0.0-6.0-22.0-0.3","1","2020-1-6 12:36:20","ELEPHANT",NA,NA,NA,NA,NA,"congruent","right","TRUE",NA,NA,NA,NA,NA,NA
"44874","sort_trial",NA,"free-sort","220","2687307","0.0-6.0-23.0","1","2020-1-6 12:36:20","ELEPHANT",NA,NA,NA,NA,NA,NA,NA,NA,"[{""cat"":29,""src"":11,""x"":75,""y"":308},{""cat"":29,""src"":13,""x"":27,""y"":481},{""cat"":29,""src"":15,""x"":22,""y"":84},{""cat"":3,""src"":1,""x"":40,""y"":443},{""cat"":3,""src"":12,""x"":46,""y"":18},{""cat"":3,""src"":18,""x"":56,""y"":127},{""cat"":33,""src"":5,""x"":56,""y"":257},{""cat"":33,""src"":7,""x"":24,""y"":182},{""cat"":33,""src"":8,""x"":50,""y"":387}]","[{""cat"":""33"",""src"":""8"",""x"":0,""y"":0},{""cat"":""29"",""src"":""15"",""x"":0,""y"":0},{""cat"":""3"",""src"":""18"",""x"":0,""y"":0},{""cat"":""3"",""src"":""12"",""x"":66,""y"":98},{""cat"":""3"",""src"":""12"",""x"":0,""y"":0},{""cat"":""29"",""src"":""13"",""x"":0,""y"":0},{""cat"":""3"",""src"":""1"",""x"":0,""y"":0},{""cat"":""29"",""src"":""11"",""x"":0,""y"":0},{""cat"":""33"",""src"":""5"",""x"":0,""y"":0},{""cat"":""33"",""src"":""7"",""x"":0,""y"":0}]","[{""cat"":33,""src"":8,""loc"":1},{""cat"":29,""src"":15,""loc"":2},{""cat"":3,""src"":18,""loc"":0},{""cat"":3,""src"":12,""loc"":7},{""cat"":29,""src"":13,""loc"":6},{""cat"":3,""src"":1,""loc"":4},{""cat"":29,""src"":11,""loc"":5},{""cat"":33,""src"":5,""loc"":3},{""cat"":33,""src"":7,""loc"":8}]","9","3,33,29,33,3,29,29,3,33,18,8,15,5,1,11,13,12,7,0,1,2,3,4,5,6,7,8,2,0,1,7,5,6,4,3,8",NA
"6251","sort_feedback","32","html-keyboard-response","221","2693562","0.0-6.0-24.0","1","2020-1-6 12:36:20","ELEPHANT",NA,NA,NA,NA,NA,NA,NA,NA,NA,NA,NA,NA,NA,NA
"20074","setup1",NA,"animation","222","2713637","0.0-6.0-25.0","1","2020-1-6 12:36:20","ELEPHANT",NA,NA,"[{""cat"":6,""src"":7,""loc"":7},{""cat"":6,""src"":19,""loc"":6},{""cat"":6,""src"":5,""loc"":8},{""cat"":8,""src"":8,""loc"":4},{""cat"":8,""src"":19,""loc"":5},{""cat"":8,""src"":17,""loc"":3},{""cat"":22,""src"":2,""loc"":1},{""cat"":22,""src"":19,""loc"":0},{""cat"":22,""src"":17,""loc"":2}]","1","1109,1110,1116,1111,1117,1148,1117,1117,1117,10012",NA,NA,NA,NA,NA,NA,NA,NA,NA
"2799","flanker_instructions","37","html-keyboard-response","223","2716441","0.0-6.0-26.0","1","2020-1-6 12:36:20","ELEPHANT",NA,NA,NA,NA,NA,NA,NA,NA,NA,NA,NA,NA,NA,NA
"749","flanker_test","39","image-keyboard-response","224","2718208","0.0-6.0-27.0-0.0","1","2020-1-6 12:36:20","ELEPHANT",NA,NA,NA,NA,NA,"incongruent","right","TRUE",NA,NA,NA,NA,NA,NA
"722","flanker_test","37","image-keyboard-response","225","2719436","0.0-6.0-27.0-0.1","1","2020-1-6 12:36:20","ELEPHANT",NA,NA,NA,NA,NA,"incongruent","left","TRUE",NA,NA,NA,NA,NA,NA
"765","flanker_test","37","image-keyboard-response","226","2720977","0.0-6.0-27.0-0.2","1","2020-1-6 12:36:20","ELEPHANT",NA,NA,NA,NA,NA,"congruent","left","TRUE",NA,NA,NA,NA,NA,NA
"498","flanker_test","39","image-keyboard-response","227","2722381","0.0-6.0-27.0-0.3","1","2020-1-6 12:36:20","ELEPHANT",NA,NA,NA,NA,NA,"congruent","right","TRUE",NA,NA,NA,NA,NA,NA
"36999","sort_trial",NA,"free-sort","228","2760014","0.0-6.0-28.0","1","2020-1-6 12:36:20","ELEPHANT",NA,NA,NA,NA,NA,NA,NA,NA,"[{""cat"":6,""src"":7,""x"":63,""y"":183},{""cat"":6,""src"":19,""x"":6,""y"":324},{""cat"":6,""src"":5,""x"":47,""y"":253},{""cat"":8,""src"":8,""x"":24,""y"":77},{""cat"":8,""src"":19,""x"":57,""y"":7},{""cat"":8,""src"":17,""x"":27,""y"":430},{""cat"":22,""src"":2,""x"":82,""y"":370},{""cat"":22,""src"":19,""x"":26,""y"":130},{""cat"":22,""src"":17,""x"":28,""y"":497}]","[{""cat"":""22"",""src"":""2"",""x"":0,""y"":0},{""cat"":""22"",""src"":""19"",""x"":0,""y"":0},{""cat"":""22"",""src"":""17"",""x"":0,""y"":0},{""cat"":""6"",""src"":""7"",""x"":0,""y"":0},{""cat"":""6"",""src"":""19"",""x"":0,""y"":0},{""cat"":""6"",""src"":""5"",""x"":0,""y"":0},{""cat"":""8"",""src"":""19"",""x"":0,""y"":0},{""cat"":""8"",""src"":""8"",""x"":0,""y"":0},{""cat"":""8"",""src"":""17"",""x"":0,""y"":0}]","[{""cat"":22,""src"":2,""loc"":1},{""cat"":22,""src"":19,""loc"":0},{""cat"":22,""src"":17,""loc"":2},{""cat"":6,""src"":7,""loc"":7},{""cat"":6,""src"":19,""loc"":6},{""cat"":6,""src"":5,""loc"":8},{""cat"":8,""src"":19,""loc"":5},{""cat"":8,""src"":8,""loc"":4},{""cat"":8,""src"":17,""loc"":3}]","9","22,22,22,8,8,8,6,6,6,19,2,17,17,8,19,19,7,5,0,1,2,3,4,5,6,7,8,1,0,2,8,7,6,4,3,5",NA
"5045","sort_feedback","32","html-keyboard-response","229","2765062","0.0-6.0-29.0","1","2020-1-6 12:36:20","ELEPHANT",NA,NA,NA,NA,NA,NA,NA,NA,NA,NA,NA,NA,NA,NA
"19989","setup4",NA,"animation","230","2785052","0.0-6.0-30.0","1","2020-1-6 12:36:20","ELEPHANT",NA,NA,"[{""cat"":18,""src"":12,""loc"":4},{""cat"":18,""src"":7,""loc"":1},{""cat"":18,""src"":6,""loc"":8},{""cat"":7,""src"":10,""loc"":7},{""cat"":7,""src"":19,""loc"":2},{""cat"":7,""src"":15,""loc"":5},{""cat"":31,""src"":11,""loc"":6},{""cat"":31,""src"":18,""loc"":3},{""cat"":31,""src"":10,""loc"":0}]","4","1103,1108,1102,1117,1106,1103,1115,1116,1117,10002",NA,NA,NA,NA,NA,NA,NA,NA,NA
"2118","flanker_instructions","37","html-keyboard-response","231","2787175","0.0-6.0-31.0","1","2020-1-6 12:36:20","ELEPHANT",NA,NA,NA,NA,NA,NA,NA,NA,NA,NA,NA,NA,NA,NA
"783","flanker_test","39","image-keyboard-response","232","2788965","0.0-6.0-32.0-0.0","1","2020-1-6 12:36:20","ELEPHANT",NA,NA,NA,NA,NA,"incongruent","right","TRUE",NA,NA,NA,NA,NA,NA
"566","flanker_test","37","image-keyboard-response","233","2789989","0.0-6.0-32.0-0.1","1","2020-1-6 12:36:20","ELEPHANT",NA,NA,NA,NA,NA,"incongruent","left","TRUE",NA,NA,NA,NA,NA,NA
"649","flanker_test","37","image-keyboard-response","234","2791465","0.0-6.0-32.0-0.2","1","2020-1-6 12:36:20","ELEPHANT",NA,NA,NA,NA,NA,"congruent","left","TRUE",NA,NA,NA,NA,NA,NA
"578","flanker_test","39","image-keyboard-response","235","2792390","0.0-6.0-32.0-0.3","1","2020-1-6 12:36:20","ELEPHANT",NA,NA,NA,NA,NA,"congruent","right","TRUE",NA,NA,NA,NA,NA,NA
"44091","sort_trial",NA,"free-sort","236","2837318","0.0-6.0-33.0","1","2020-1-6 12:36:20","ELEPHANT",NA,NA,NA,NA,NA,NA,NA,NA,"[{""cat"":18,""src"":12,""x"":6,""y"":121},{""cat"":18,""src"":7,""x"":56,""y"":72},{""cat"":18,""src"":6,""x"":8,""y"":250},{""cat"":7,""src"":10,""x"":76,""y"":367},{""cat"":7,""src"":19,""x"":18,""y"":191},{""cat"":7,""src"":15,""x"":43,""y"":436},{""cat"":31,""src"":11,""x"":79,""y"":323},{""cat"":31,""src"":18,""x"":0,""y"":484},{""cat"":31,""src"":10,""x"":7,""y"":3}]","[{""cat"":""18"",""src"":""7"",""x"":0,""y"":0},{""cat"":""31"",""src"":""10"",""x"":0,""y"":0},{""cat"":""7"",""src"":""19"",""x"":0,""y"":0},{""cat"":""18"",""src"":""6"",""x"":0,""y"":0},{""cat"":""18"",""src"":""12"",""x"":0,""y"":0},{""cat"":""7"",""src"":""15"",""x"":0,""y"":0},{""cat"":""31"",""src"":""11"",""x"":0,""y"":0},{""cat"":""7"",""src"":""10"",""x"":0,""y"":0},{""cat"":""31"",""src"":""18"",""x"":0,""y"":0}]","[{""cat"":18,""src"":7,""loc"":1},{""cat"":31,""src"":10,""loc"":0},{""cat"":7,""src"":19,""loc"":2},{""cat"":18,""src"":6,""loc"":8},{""cat"":18,""src"":12,""loc"":5},{""cat"":7,""src"":15,""loc"":4},{""cat"":31,""src"":11,""loc"":6},{""cat"":7,""src"":10,""loc"":7},{""cat"":31,""src"":18,""loc"":3}]","7","31,18,7,31,7,18,31,7,18,10,7,19,18,15,12,11,10,6,0,1,2,3,4,5,6,7,8,1,0,2,8,5,4,6,7,3",NA
"5732","sort_feedback","32","html-keyboard-response","237","2843054","0.0-6.0-34.0","1","2020-1-6 12:36:20","ELEPHANT",NA,NA,NA,NA,NA,NA,NA,NA,NA,NA,NA,NA,NA,NA
"20051","setup5",NA,"animation","238","2863107","0.0-6.0-35.0","1","2020-1-6 12:36:20","ELEPHANT",NA,NA,"[{""cat"":11,""src"":8,""loc"":7},{""cat"":32,""src"":4,""loc"":0},{""cat"":26,""src"":2,""loc"":4},{""cat"":26,""src"":12,""loc"":1},{""cat"":32,""src"":18,""loc"":6},{""cat"":11,""src"":6,""loc"":5},{""cat"":11,""src"":4,""loc"":2},{""cat"":26,""src"":10,""loc"":8},{""cat"":32,""src"":2,""loc"":3}]","5","1117,1115,1116,1117,1117,1116,1117,1115,1117,10004",NA,NA,NA,NA,NA,NA,NA,NA,NA
"1831","flanker_instructions","37","html-keyboard-response","239","2864959","0.0-6.0-36.0","1","2020-1-6 12:36:20","ELEPHANT",NA,NA,NA,NA,NA,NA,NA,NA,NA,NA,NA,NA,NA,NA
"739","flanker_test","37","image-keyboard-response","240","2866712","0.0-6.0-37.0-0.0","1","2020-1-6 12:36:20","ELEPHANT",NA,NA,NA,NA,NA,"incongruent","left","TRUE",NA,NA,NA,NA,NA,NA
"564","flanker_test","37","image-keyboard-response","241","2868097","0.0-6.0-37.0-0.1","1","2020-1-6 12:36:20","ELEPHANT",NA,NA,NA,NA,NA,"congruent","left","TRUE",NA,NA,NA,NA,NA,NA
"498","flanker_test","39","image-keyboard-response","242","2869554","0.0-6.0-37.0-0.2","1","2020-1-6 12:36:20","ELEPHANT",NA,NA,NA,NA,NA,"incongruent","right","TRUE",NA,NA,NA,NA,NA,NA
"633","flanker_test","39","image-keyboard-response","243","2870579","0.0-6.0-37.0-0.3","1","2020-1-6 12:36:20","ELEPHANT",NA,NA,NA,NA,NA,"congruent","right","TRUE",NA,NA,NA,NA,NA,NA
"52788","sort_trial",NA,"free-sort","244","2924562","0.0-6.0-38.0","1","2020-1-6 12:36:20","ELEPHANT",NA,NA,NA,NA,NA,NA,NA,NA,"[{""cat"":11,""src"":8,""x"":19,""y"":141},{""cat"":32,""src"":4,""x"":52,""y"":5},{""cat"":26,""src"":2,""x"":36,""y"":493},{""cat"":26,""src"":12,""x"":47,""y"":260},{""cat"":32,""src"":18,""x"":22,""y"":189},{""cat"":11,""src"":6,""x"":36,""y"":319},{""cat"":11,""src"":4,""x"":0,""y"":433},{""cat"":26,""src"":10,""x"":11,""y"":381},{""cat"":32,""src"":2,""x"":41,""y"":71}]","[{""cat"":""26"",""src"":""12"",""x"":0,""y"":0},{""cat"":""32"",""src"":""4"",""x"":0,""y"":0},{""cat"":""11"",""src"":""4"",""x"":377,""y"":208},{""cat"":""11"",""src"":""4"",""x"":0,""y"":0},{""cat"":""11"",""src"":""8"",""x"":0,""y"":0},{""cat"":""32"",""src"":""18"",""x"":0,""y"":0},{""cat"":""32"",""src"":""2"",""x"":0,""y"":0},{""cat"":""11"",""src"":""6"",""x"":499,""y"":210},{""cat"":""11"",""src"":""6"",""x"":0,""y"":0},{""cat"":""26"",""src"":""10"",""x"":0,""y"":0},{""cat"":""26"",""src"":""2"",""x"":0,""y"":0}]","[{""cat"":26,""src"":12,""loc"":1},{""cat"":32,""src"":4,""loc"":0},{""cat"":11,""src"":4,""loc"":2},{""cat"":11,""src"":8,""loc"":7},{""cat"":32,""src"":18,""loc"":6},{""cat"":32,""src"":2,""loc"":3},{""cat"":11,""src"":6,""loc"":5},{""cat"":26,""src"":10,""loc"":8},{""cat"":26,""src"":2,""loc"":4}]","9","32,26,11,32,26,11,32,11,26,4,12,4,2,2,6,18,8,10,0,1,2,3,4,5,6,7,8,1,0,2,5,8,6,4,3,7",NA
"8126","sort_feedback","32","html-keyboard-response","245","2932693","0.0-6.0-39.0","1","2020-1-6 12:36:20","ELEPHANT",NA,NA,NA,NA,NA,NA,NA,NA,NA,NA,NA,NA,NA,NA
"20038","setup2",NA,"animation","246","2952733","0.0-6.0-40.0","1","2020-1-6 12:36:20","ELEPHANT",NA,NA,"[{""cat"":23,""src"":12,""loc"":2},{""cat"":27,""src"":5,""loc"":1},{""cat"":10,""src"":13,""loc"":0},{""cat"":10,""src"":1,""loc"":4},{""cat"":27,""src"":19,""loc"":5},{""cat"":23,""src"":6,""loc"":3},{""cat"":23,""src"":5,""loc"":7},{""cat"":10,""src"":3,""loc"":6},{""cat"":27,""src"":2,""loc"":8}]","2","1116,1103,1116,1117,1116,1117,1119,1113,1117,10004",NA,NA,NA,NA,NA,NA,NA,NA,NA
"2141","flanker_instructions","37","html-keyboard-response","247","2954879","0.0-6.0-41.0","1","2020-1-6 12:36:20","ELEPHANT",NA,NA,NA,NA,NA,NA,NA,NA,NA,NA,NA,NA,NA,NA
NA,"flanker_test",NA,"image-keyboard-response","248","2956804","0.0-6.0-42.0-0.0","1","2020-1-6 12:36:20","ELEPHANT",NA,NA,NA,NA,NA,"incongruent","left","FALSE",NA,NA,NA,NA,NA,NA
"543","flanker_test","37","image-keyboard-response","249","2958512","0.0-6.0-42.0-0.1","1","2020-1-6 12:36:20","ELEPHANT",NA,NA,NA,NA,NA,"congruent","left","TRUE",NA,NA,NA,NA,NA,NA
"493","flanker_test","39","image-keyboard-response","250","2959790","0.0-6.0-42.0-0.2","1","2020-1-6 12:36:20","ELEPHANT",NA,NA,NA,NA,NA,"incongruent","right","TRUE",NA,NA,NA,NA,NA,NA
"537","flanker_test","39","image-keyboard-response","251","2961404","0.0-6.0-42.0-0.3","1","2020-1-6 12:36:20","ELEPHANT",NA,NA,NA,NA,NA,"congruent","right","TRUE",NA,NA,NA,NA,NA,NA
"55112","sort_trial",NA,"free-sort","252","3017275","0.0-6.0-43.0","1","2020-1-6 12:36:20","ELEPHANT",NA,NA,NA,NA,NA,NA,NA,NA,"[{""cat"":23,""src"":12,""x"":25,""y"":190},{""cat"":27,""src"":5,""x"":77,""y"":64},{""cat"":10,""src"":13,""x"":61,""y"":359},{""cat"":10,""src"":1,""x"":44,""y"":425},{""cat"":27,""src"":19,""x"":39,""y"":300},{""cat"":23,""src"":6,""x"":44,""y"":2},{""cat"":23,""src"":5,""x"":13,""y"":485},{""cat"":10,""src"":3,""x"":38,""y"":250},{""cat"":27,""src"":2,""x"":67,""y"":140}]","[{""cat"":""27"",""src"":""5"",""x"":0,""y"":0},{""cat"":""10"",""src"":""13"",""x"":272,""y"":147},{""cat"":""10"",""src"":""13"",""x"":0,""y"":0},{""cat"":""23"",""src"":""12"",""x"":0,""y"":0},{""cat"":""10"",""src"":""3"",""x"":0,""y"":0},{""cat"":""23"",""src"":""5"",""x"":0,""y"":0},{""cat"":""27"",""src"":""2"",""x"":0,""y"":0},{""cat"":""27"",""src"":""19"",""x"":0,""y"":0},{""cat"":""23"",""src"":""6"",""x"":294,""y"":85},{""cat"":""23"",""src"":""6"",""x"":0,""y"":0},{""cat"":""10"",""src"":""1"",""x"":0,""y"":0}]","[{""cat"":27,""src"":5,""loc"":1},{""cat"":10,""src"":13,""loc"":0},{""cat"":23,""src"":12,""loc"":2},{""cat"":10,""src"":3,""loc"":6},{""cat"":23,""src"":5,""loc"":7},{""cat"":27,""src"":2,""loc"":8},{""cat"":27,""src"":19,""loc"":5},{""cat"":23,""src"":6,""loc"":3},{""cat"":10,""src"":1,""loc"":4}]","9","10,27,23,23,10,27,10,23,27,13,5,12,6,1,19,3,5,2,0,1,2,3,4,5,6,7,8,1,0,2,7,8,6,3,4,5",NA
"20957","sort_feedback","32","html-keyboard-response","253","3038236","0.0-6.0-44.0","1","2020-1-6 12:36:20","ELEPHANT",NA,NA,NA,NA,NA,NA,NA,NA,NA,NA,NA,NA,NA,NA
"20006","setup3",NA,"animation","254","3058244","0.0-6.0-45.0","1","2020-1-6 12:36:20","ELEPHANT",NA,NA,"[{""cat"":22,""src"":6,""loc"":7},{""cat"":9,""src"":1,""loc"":5},{""cat"":33,""src"":17,""loc"":0},{""cat"":22,""src"":14,""loc"":6},{""cat"":33,""src"":2,""loc"":1},{""cat"":9,""src"":12,""loc"":3},{""cat"":9,""src"":16,""loc"":4},{""cat"":33,""src"":11,""loc"":2},{""cat"":22,""src"":17,""loc"":8}]","3","1112,1116,1103,1102,1104,1110,1120,1113,1112,10014",NA,NA,NA,NA,NA,NA,NA,NA,NA
"13552","flanker_instructions","37","html-keyboard-response","255","3071799","0.0-6.0-46.0","1","2020-1-6 12:36:20","ELEPHANT",NA,NA,NA,NA,NA,NA,NA,NA,NA,NA,NA,NA,NA,NA
"640","flanker_test","37","image-keyboard-response","256","3073446","0.0-6.0-47.0-0.0","1","2020-1-6 12:36:20","ELEPHANT",NA,NA,NA,NA,NA,"incongruent","left","TRUE",NA,NA,NA,NA,NA,NA
"469","flanker_test","39","image-keyboard-response","257","3074878","0.0-6.0-47.0-0.1","1","2020-1-6 12:36:20","ELEPHANT",NA,NA,NA,NA,NA,"congruent","right","TRUE",NA,NA,NA,NA,NA,NA
"641","flanker_test","39","image-keyboard-response","258","3076685","0.0-6.0-47.0-0.2","1","2020-1-6 12:36:20","ELEPHANT",NA,NA,NA,NA,NA,"incongruent","right","TRUE",NA,NA,NA,NA,NA,NA
"452","flanker_test","37","image-keyboard-response","259","3077870","0.0-6.0-47.0-0.3","1","2020-1-6 12:36:20","ELEPHANT",NA,NA,NA,NA,NA,"congruent","left","TRUE",NA,NA,NA,NA,NA,NA
"44297","sort_trial",NA,"free-sort","260","3123038","0.0-6.0-48.0","1","2020-1-6 12:36:20","ELEPHANT",NA,NA,NA,NA,NA,NA,NA,NA,"[{""cat"":22,""src"":6,""x"":83,""y"":504},{""cat"":9,""src"":1,""x"":39,""y"":422},{""cat"":33,""src"":17,""x"":65,""y"":71},{""cat"":22,""src"":14,""x"":27,""y"":2},{""cat"":33,""src"":2,""x"":4,""y"":306},{""cat"":9,""src"":12,""x"":78,""y"":240},{""cat"":9,""src"":16,""x"":35,""y"":204},{""cat"":33,""src"":11,""x"":65,""y"":132},{""cat"":22,""src"":17,""x"":67,""y"":361}]","[{""cat"":""33"",""src"":""17"",""x"":0,""y"":0},{""cat"":""33"",""src"":""11"",""x"":0,""y"":0},{""cat"":""33"",""src"":""2"",""x"":0,""y"":0},{""cat"":""9"",""src"":""1"",""x"":0,""y"":0},{""cat"":""9"",""src"":""16"",""x"":485,""y"":209},{""cat"":""9"",""src"":""16"",""x"":0,""y"":0},{""cat"":""9"",""src"":""12"",""x"":0,""y"":0},{""cat"":""22"",""src"":""14"",""x"":0,""y"":0},{""cat"":""22"",""src"":""17"",""x"":0,""y"":0},{""cat"":""22"",""src"":""6"",""x"":0,""y"":0}]","[{""cat"":33,""src"":17,""loc"":0},{""cat"":33,""src"":11,""loc"":2},{""cat"":33,""src"":2,""loc"":1},{""cat"":9,""src"":1,""loc"":5},{""cat"":9,""src"":16,""loc"":4},{""cat"":9,""src"":12,""loc"":3},{""cat"":22,""src"":14,""loc"":6},{""cat"":22,""src"":17,""loc"":8},{""cat"":22,""src"":6,""loc"":7}]","9","33,33,33,9,9,9,22,22,22,17,2,11,12,16,1,14,6,17,0,1,2,3,4,5,6,7,8,0,2,1,5,4,3,6,8,7",NA
"2668","sort_feedback","32","html-keyboard-response","261","3125710","0.0-6.0-49.0","1","2020-1-6 12:36:20","ELEPHANT",NA,NA,NA,NA,NA,NA,NA,NA,NA,NA,NA,NA,NA,NA
"3331","demographics",NA,"html-button-response","262","3129044","0.0-7.0-0.0","1","2020-1-6 12:36:20","ELEPHANT","0",NA,NA,NA,NA,NA,NA,NA,NA,NA,NA,NA,NA,NA
"5796","workerID",NA,"survey-text","263","3134844","0.0-7.0-1.0","1","2020-1-6 12:36:20","ELEPHANT",NA,NA,NA,NA,NA,NA,NA,NA,NA,NA,NA,NA,NA,"{""Q0"":""A2OQMY85Q2WY68""}"
"5207","attn_check",NA,"survey-multi-choice","264","3140059","0.0-7.0-2.0","1","2020-1-6 12:36:20","ELEPHANT",NA,NA,NA,NA,NA,NA,NA,NA,NA,NA,NA,NA,NA,"{""Q0"":""ELEPHANT""}"
"4970","age",NA,"survey-text","265","3145033","0.0-7.0-3.0","1","2020-1-6 12:36:20","ELEPHANT",NA,NA,NA,NA,NA,NA,NA,NA,NA,NA,NA,NA,NA,"{""Q0"":""53""}"
"3004","gender",NA,"survey-multi-choice","266","3148041","0.0-7.0-4.0","1","2020-1-6 12:36:20","ELEPHANT",NA,NA,NA,NA,NA,NA,NA,NA,NA,NA,NA,NA,NA,"{""Q0"":""Male""}"
"4207","ethnic",NA,"survey-multi-choice","267","3152253","0.0-7.0-5.0","1","2020-1-6 12:36:20","ELEPHANT",NA,NA,NA,NA,NA,NA,NA,NA,NA,NA,NA,NA,NA,"{""Q0"":""Not Hispanic or Latino""}"
"7412","race",NA,"survey-multi-select","268","3159670","0.0-7.0-6.0","1","2020-1-6 12:36:20","ELEPHANT",NA,NA,NA,NA,NA,NA,NA,NA,NA,NA,NA,NA,NA,"{""Q0"":[""White""]}"
"2683","english",NA,"survey-multi-choice","269","3162359","0.0-7.0-7.0","1","2020-1-6 12:36:20","ELEPHANT",NA,NA,NA,NA,NA,NA,NA,NA,NA,NA,NA,NA,NA,"{""Q0"":""Yes""}"
"3628","understand",NA,"survey-multi-choice","270","3165991","0.0-7.0-8.0","1","2020-1-6 12:36:20","ELEPHANT",NA,NA,NA,NA,NA,NA,NA,NA,NA,NA,NA,NA,NA,"{""Q0"":""No""}"
"29152","strategies",NA,"survey-text","271","3195146","0.0-7.0-9.0","1","2020-1-6 12:36:20","ELEPHANT",NA,NA,NA,NA,NA,NA,NA,NA,NA,NA,NA,NA,NA,"{""Q0"":""I am good at learning the whole scene.""}"
"7036","comments",NA,"survey-text","272","3202184","0.0-7.0-10.0","1","2020-1-6 12:36:20","ELEPHANT",NA,NA,NA,NA,NA,NA,NA,NA,NA,NA,NA,NA,NA,"{""Q0"":""none""}"
"3049","study_end",NA,"html-button-response","273","3205237","0.0-8.0","1","2020-1-6 12:36:20","ELEPHANT","0",NA,NA,NA,NA,NA,NA,NA,NA,NA,NA,NA,NA,NA
