"rt","stimulus","key_press","trial_type","trial_index","time_elapsed","internal_node_id","session","startTime","attn_word","button_pressed","view_history","animation_sequence","condition","time_sequence","stim_type","direction","correct","init_locations","moves","final_locations","sort_correct","finalLocations","responses"
"14432","welcome","32","html-keyboard-response","0","14449","0.0-0.0","1","2020-1-6 14:19:24","MOUSE",NA,NA,NA,NA,NA,NA,NA,NA,NA,NA,NA,NA,NA,NA
"551181","consent",NA,"html-button-response","1","565637","0.0-1.0","1","2020-1-6 14:19:24","MOUSE","0",NA,NA,NA,NA,NA,NA,NA,NA,NA,NA,NA,NA,NA
"95148","instructions",NA,"instructions","2","660791","0.0-2.0","1","2020-1-6 14:19:24","MOUSE",NA,"[{""page_index"":0,""viewing_time"":37439},{""page_index"":1,""viewing_time"":5261},{""page_index"":2,""viewing_time"":7824},{""page_index"":3,""viewing_time"":13795},{""page_index"":4,""viewing_time"":6647},{""page_index"":5,""viewing_time"":20150},{""page_index"":6,""viewing_time"":4031}]",NA,NA,NA,NA,NA,NA,NA,NA,NA,NA,NA,NA
"19927","setup5",NA,"animation","3","680723","0.0-3.0-0.0","1","2020-1-6 14:19:24","MOUSE",NA,NA,"[{""cat"":31,""src"":8,""loc"":6},{""cat"":27,""src"":17,""loc"":3},{""cat"":25,""src"":5,""loc"":2},{""cat"":25,""src"":2,""loc"":8},{""cat"":27,""src"":9,""loc"":0},{""cat"":31,""src"":19,""loc"":5},{""cat"":27,""src"":2,""loc"":7},{""cat"":31,""src"":14,""loc"":1},{""cat"":25,""src"":8,""loc"":4}]","5","1109,1102,1101,1102,1102,1103,1101,1102,1104,10000",NA,NA,NA,NA,NA,NA,NA,NA,NA
"9763","flanker_instructions","32","html-keyboard-response","4","690492","0.0-3.0-1.0","1","2020-1-6 14:19:24","MOUSE",NA,NA,NA,NA,NA,NA,NA,NA,NA,NA,NA,NA,NA,NA
NA,"flanker_test",NA,"image-keyboard-response","5","692418","0.0-3.0-2.0-0.0","1","2020-1-6 14:19:24","MOUSE",NA,NA,NA,NA,NA,"incongruent","right","FALSE",NA,NA,NA,NA,NA,NA
"643","flanker_test","39","image-keyboard-response","6","693431","0.0-3.0-2.0-0.1","1","2020-1-6 14:19:24","MOUSE",NA,NA,NA,NA,NA,"congruent","right","TRUE",NA,NA,NA,NA,NA,NA
"605","flanker_test","37","image-keyboard-response","7","694489","0.0-3.0-2.0-0.2","1","2020-1-6 14:19:24","MOUSE",NA,NA,NA,NA,NA,"incongruent","left","TRUE",NA,NA,NA,NA,NA,NA
"458","flanker_test","37","image-keyboard-response","8","695720","0.0-3.0-2.0-0.3","1","2020-1-6 14:19:24","MOUSE",NA,NA,NA,NA,NA,"congruent","left","TRUE",NA,NA,NA,NA,NA,NA
"43575","sort_trial",NA,"free-sort","9","740186","0.0-3.0-3.0","1","2020-1-6 14:19:24","MOUSE",NA,NA,NA,NA,NA,NA,NA,NA,"[{""cat"":31,""src"":8,""x"":63,""y"":497},{""cat"":27,""src"":17,""x"":53,""y"":441},{""cat"":25,""src"":5,""x"":29,""y"":316},{""cat"":25,""src"":2,""x"":61,""y"":74},{""cat"":27,""src"":9,""x"":68,""y"":14},{""cat"":31,""src"":19,""x"":66,""y"":252},{""cat"":27,""src"":2,""x"":31,""y"":384},{""cat"":31,""src"":14,""x"":53,""y"":139},{""cat"":25,""src"":8,""x"":59,""y"":201}]","[{""cat"":""25"",""src"":""2"",""x"":0,""y"":0},{""cat"":""27"",""src"":""2"",""x"":0,""y"":0},{""cat"":""25"",""src"":""5"",""x"":0,""y"":0},{""cat"":""27"",""src"":""17"",""x"":0,""y"":0},{""cat"":""31"",""src"":""14"",""x"":0,""y"":0},{""cat"":""31"",""src"":""19"",""x"":0,""y"":0},{""cat"":""31"",""src"":""8"",""x"":741,""y"":165},{""cat"":""31"",""src"":""8"",""x"":0,""y"":0},{""cat"":""25"",""src"":""8"",""x"":0,""y"":0},{""cat"":""27"",""src"":""9"",""x"":0,""y"":0}]","[{""cat"":25,""src"":2,""loc"":8},{""cat"":27,""src"":2,""loc"":7},{""cat"":25,""src"":5,""loc"":2},{""cat"":27,""src"":17,""loc"":1},{""cat"":31,""src"":14,""loc"":0},{""cat"":31,""src"":19,""loc"":3},{""cat"":31,""src"":8,""loc"":4},{""cat"":25,""src"":8,""loc"":5},{""cat"":27,""src"":9,""loc"":6}]","3","31,27,25,31,31,25,27,27,25,14,17,5,19,8,8,9,2,2,0,1,2,3,4,5,6,7,8,4,3,2,5,6,7,8,1,0",NA
"5399","sort_feedback","32","html-keyboard-response","10","745591","0.0-3.0-4.0","1","2020-1-6 14:19:24","MOUSE",NA,NA,NA,NA,NA,NA,NA,NA,NA,NA,NA,NA,NA,NA
"19921","setup5",NA,"animation","11","765514","0.0-3.0-5.0","1","2020-1-6 14:19:24","MOUSE",NA,NA,"[{""cat"":33,""src"":9,""loc"":5},{""cat"":23,""src"":0,""loc"":1},{""cat"":15,""src"":16,""loc"":8},{""cat"":15,""src"":15,""loc"":4},{""cat"":33,""src"":0,""loc"":2},{""cat"":23,""src"":6,""loc"":7},{""cat"":15,""src"":18,""loc"":0},{""cat"":23,""src"":8,""loc"":3},{""cat"":33,""src"":14,""loc"":6}]","5","1106,1101,1102,1101,1103,1101,1102,1102,1103,10000",NA,NA,NA,NA,NA,NA,NA,NA,NA
"2208","flanker_instructions","39","html-keyboard-response","12","767725","0.0-3.0-6.0","1","2020-1-6 14:19:24","MOUSE",NA,NA,NA,NA,NA,NA,NA,NA,NA,NA,NA,NA,NA,NA
NA,"flanker_test",NA,"image-keyboard-response","13","769630","0.0-3.0-7.0-0.0","1","2020-1-6 14:19:24","MOUSE",NA,NA,NA,NA,NA,"congruent","left","FALSE",NA,NA,NA,NA,NA,NA
"476","flanker_test","39","image-keyboard-response","14","771097","0.0-3.0-7.0-0.1","1","2020-1-6 14:19:24","MOUSE",NA,NA,NA,NA,NA,"congruent","right","TRUE",NA,NA,NA,NA,NA,NA
"568","flanker_test","39","image-keyboard-response","15","772675","0.0-3.0-7.0-0.2","1","2020-1-6 14:19:24","MOUSE",NA,NA,NA,NA,NA,"incongruent","right","TRUE",NA,NA,NA,NA,NA,NA
"631","flanker_test","37","image-keyboard-response","16","774163","0.0-3.0-7.0-0.3","1","2020-1-6 14:19:24","MOUSE",NA,NA,NA,NA,NA,"incongruent","left","TRUE",NA,NA,NA,NA,NA,NA
"32292","sort_trial",NA,"free-sort","17","806815","0.0-3.0-8.0","1","2020-1-6 14:19:24","MOUSE",NA,NA,NA,NA,NA,NA,NA,NA,"[{""cat"":33,""src"":9,""x"":31,""y"":428},{""cat"":23,""src"":0,""x"":74,""y"":250},{""cat"":15,""src"":16,""x"":79,""y"":66},{""cat"":15,""src"":15,""x"":71,""y"":324},{""cat"":33,""src"":0,""x"":65,""y"":145},{""cat"":23,""src"":6,""x"":80,""y"":487},{""cat"":15,""src"":18,""x"":33,""y"":180},{""cat"":23,""src"":8,""x"":14,""y"":5},{""cat"":33,""src"":14,""x"":41,""y"":374}]","[{""cat"":""15"",""src"":""18"",""x"":0,""y"":0},{""cat"":""23"",""src"":""0"",""x"":0,""y"":0},{""cat"":""15"",""src"":""15"",""x"":0,""y"":0},{""cat"":""23"",""src"":""8"",""x"":0,""y"":0},{""cat"":""15"",""src"":""16"",""x"":0,""y"":0},{""cat"":""33"",""src"":""0"",""x"":0,""y"":0},{""cat"":""33"",""src"":""14"",""x"":0,""y"":0},{""cat"":""33"",""src"":""9"",""x"":0,""y"":0},{""cat"":""23"",""src"":""6"",""x"":0,""y"":0}]","[{""cat"":15,""src"":18,""loc"":0},{""cat"":23,""src"":0,""loc"":1},{""cat"":15,""src"":15,""loc"":4},{""cat"":23,""src"":8,""loc"":2},{""cat"":15,""src"":16,""loc"":6},{""cat"":33,""src"":0,""loc"":7},{""cat"":33,""src"":14,""loc"":8},{""cat"":33,""src"":9,""loc"":5},{""cat"":23,""src"":6,""loc"":3}]","4","15,23,23,23,15,33,15,33,33,18,0,8,6,15,9,16,0,14,0,1,2,3,4,5,6,7,8,0,1,3,8,2,7,4,5,6",NA
"3204","sort_feedback","32","html-keyboard-response","18","810022","0.0-3.0-9.0","1","2020-1-6 14:19:24","MOUSE",NA,NA,NA,NA,NA,NA,NA,NA,NA,NA,NA,NA,NA,NA
"7190","finalInstructions",NA,"html-button-response","19","817215","0.0-4.0-0.0","1","2020-1-6 14:19:24","MOUSE","0",NA,NA,NA,NA,NA,NA,NA,NA,NA,NA,NA,NA,NA
"19921","setup1",NA,"animation","20","837138","0.0-4.0-1.0","1","2020-1-6 14:19:24","MOUSE",NA,NA,"[{""cat"":15,""src"":0,""loc"":4},{""cat"":15,""src"":17,""loc"":5},{""cat"":15,""src"":12,""loc"":3},{""cat"":12,""src"":0,""loc"":8},{""cat"":12,""src"":18,""loc"":7},{""cat"":12,""src"":9,""loc"":6},{""cat"":18,""src"":3,""loc"":1},{""cat"":18,""src"":5,""loc"":2},{""cat"":18,""src"":14,""loc"":0}]","1","1104,1101,1102,1103,1101,1102,1102,1103,1102,10001",NA,NA,NA,NA,NA,NA,NA,NA,NA
"1963","flanker_instructions","39","html-keyboard-response","21","839105","0.0-4.0-2.0","1","2020-1-6 14:19:24","MOUSE",NA,NA,NA,NA,NA,NA,NA,NA,NA,NA,NA,NA,NA,NA
"510","flanker_test","37","image-keyboard-response","22","840620","0.0-4.0-3.0-0.0","1","2020-1-6 14:19:24","MOUSE",NA,NA,NA,NA,NA,"incongruent","right","FALSE",NA,NA,NA,NA,NA,NA
"561","flanker_test","37","image-keyboard-response","23","841843","0.0-4.0-3.0-0.1","1","2020-1-6 14:19:24","MOUSE",NA,NA,NA,NA,NA,"incongruent","left","TRUE",NA,NA,NA,NA,NA,NA
"557","flanker_test","39","image-keyboard-response","24","843162","0.0-4.0-3.0-0.2","1","2020-1-6 14:19:24","MOUSE",NA,NA,NA,NA,NA,"congruent","right","TRUE",NA,NA,NA,NA,NA,NA
"597","flanker_test","37","image-keyboard-response","25","844251","0.0-4.0-3.0-0.3","1","2020-1-6 14:19:24","MOUSE",NA,NA,NA,NA,NA,"congruent","left","TRUE",NA,NA,NA,NA,NA,NA
"30928","sort_trial",NA,"free-sort","26","875750","0.0-4.0-4.0","1","2020-1-6 14:19:24","MOUSE",NA,NA,NA,NA,NA,NA,NA,NA,"[{""cat"":15,""src"":0,""x"":43,""y"":490},{""cat"":15,""src"":17,""x"":55,""y"":69},{""cat"":15,""src"":12,""x"":52,""y"":136},{""cat"":12,""src"":0,""x"":27,""y"":259},{""cat"":12,""src"":18,""x"":44,""y"":185},{""cat"":12,""src"":9,""x"":54,""y"":430},{""cat"":18,""src"":3,""x"":66,""y"":374},{""cat"":18,""src"":5,""x"":12,""y"":6},{""cat"":18,""src"":14,""x"":24,""y"":306}]","[{""cat"":""15"",""src"":""17"",""x"":0,""y"":0},{""cat"":""15"",""src"":""12"",""x"":0,""y"":0},{""cat"":""15"",""src"":""0"",""x"":0,""y"":0},{""cat"":""18"",""src"":""14"",""x"":0,""y"":0},{""cat"":""18"",""src"":""3"",""x"":0,""y"":0},{""cat"":""18"",""src"":""5"",""x"":0,""y"":0},{""cat"":""12"",""src"":""0"",""x"":0,""y"":0},{""cat"":""12"",""src"":""18"",""x"":0,""y"":0},{""cat"":""12"",""src"":""9"",""x"":0,""y"":0}]","[{""cat"":15,""src"":17,""loc"":5},{""cat"":15,""src"":12,""loc"":3},{""cat"":15,""src"":0,""loc"":4},{""cat"":18,""src"":14,""loc"":0},{""cat"":18,""src"":3,""loc"":2},{""cat"":18,""src"":5,""loc"":1},{""cat"":12,""src"":0,""loc"":6},{""cat"":12,""src"":18,""loc"":7},{""cat"":12,""src"":9,""loc"":8}]","5","18,18,18,15,15,15,12,12,12,14,5,3,12,0,17,0,18,9,0,1,2,3,4,5,6,7,8,3,5,4,1,2,0,6,7,8",NA
"5927","sort_feedback","32","html-keyboard-response","27","881681","0.0-4.0-5.0","1","2020-1-6 14:19:24","MOUSE",NA,NA,NA,NA,NA,NA,NA,NA,NA,NA,NA,NA,NA,NA
"19923","setup4",NA,"animation","28","901607","0.0-4.0-6.0","1","2020-1-6 14:19:24","MOUSE",NA,NA,"[{""cat"":13,""src"":0,""loc"":8},{""cat"":13,""src"":7,""loc"":5},{""cat"":13,""src"":14,""loc"":0},{""cat"":25,""src"":14,""loc"":2},{""cat"":25,""src"":2,""loc"":7},{""cat"":25,""src"":17,""loc"":3},{""cat"":31,""src"":11,""loc"":6},{""cat"":31,""src"":19,""loc"":4},{""cat"":31,""src"":18,""loc"":1}]","4","1105,1102,1102,1102,1102,1102,1103,1103,1102,10000",NA,NA,NA,NA,NA,NA,NA,NA,NA
"972","flanker_instructions","39","html-keyboard-response","29","902581","0.0-4.0-7.0","1","2020-1-6 14:19:24","MOUSE",NA,NA,NA,NA,NA,NA,NA,NA,NA,NA,NA,NA,NA,NA
"686","flanker_test","37","image-keyboard-response","30","904271","0.0-4.0-8.0-0.0","1","2020-1-6 14:19:24","MOUSE",NA,NA,NA,NA,NA,"incongruent","left","TRUE",NA,NA,NA,NA,NA,NA
"494","flanker_test","39","image-keyboard-response","31","905695","0.0-4.0-8.0-0.1","1","2020-1-6 14:19:24","MOUSE",NA,NA,NA,NA,NA,"congruent","right","TRUE",NA,NA,NA,NA,NA,NA
"429","flanker_test","37","image-keyboard-response","32","906772","0.0-4.0-8.0-0.2","1","2020-1-6 14:19:24","MOUSE",NA,NA,NA,NA,NA,"incongruent","right","FALSE",NA,NA,NA,NA,NA,NA
"554","flanker_test","37","image-keyboard-response","33","908475","0.0-4.0-8.0-0.3","1","2020-1-6 14:19:24","MOUSE",NA,NA,NA,NA,NA,"congruent","left","TRUE",NA,NA,NA,NA,NA,NA
"40728","sort_trial",NA,"free-sort","34","949846","0.0-4.0-9.0","1","2020-1-6 14:19:24","MOUSE",NA,NA,NA,NA,NA,NA,NA,NA,"[{""cat"":13,""src"":0,""x"":50,""y"":388},{""cat"":13,""src"":7,""x"":69,""y"":308},{""cat"":13,""src"":14,""x"":77,""y"":494},{""cat"":25,""src"":14,""x"":20,""y"":205},{""cat"":25,""src"":2,""x"":38,""y"":29},{""cat"":25,""src"":17,""x"":77,""y"":436},{""cat"":31,""src"":11,""x"":7,""y"":143},{""cat"":31,""src"":19,""x"":21,""y"":75},{""cat"":31,""src"":18,""x"":27,""y"":255}]","[{""cat"":""31"",""src"":""19"",""x"":0,""y"":0},{""cat"":""25"",""src"":""17"",""x"":0,""y"":0},{""cat"":""13"",""src"":""7"",""x"":0,""y"":0},{""cat"":""13"",""src"":""14"",""x"":0,""y"":0},{""cat"":""31"",""src"":""18"",""x"":0,""y"":0},{""cat"":""13"",""src"":""0"",""x"":0,""y"":0},{""cat"":""25"",""src"":""14"",""x"":0,""y"":0},{""cat"":""31"",""src"":""11"",""x"":0,""y"":0},{""cat"":""25"",""src"":""2"",""x"":0,""y"":0}]","[{""cat"":31,""src"":19,""loc"":4},{""cat"":25,""src"":17,""loc"":3},{""cat"":13,""src"":7,""loc"":5},{""cat"":13,""src"":14,""loc"":1},{""cat"":31,""src"":18,""loc"":2},{""cat"":13,""src"":0,""loc"":7},{""cat"":25,""src"":14,""loc"":6},{""cat"":31,""src"":11,""loc"":8},{""cat"":25,""src"":2,""loc"":0}]","3","25,13,31,25,31,13,25,13,31,2,14,18,17,19,7,14,0,11,0,1,2,3,4,5,6,7,8,8,3,4,1,0,2,6,5,7",NA
"5451","sort_feedback","32","html-keyboard-response","35","955301","0.0-4.0-10.0","1","2020-1-6 14:19:24","MOUSE",NA,NA,NA,NA,NA,NA,NA,NA,NA,NA,NA,NA,NA,NA
"19929","setup2",NA,"animation","36","975231","0.0-4.0-11.0","1","2020-1-6 14:19:24","MOUSE",NA,NA,"[{""cat"":29,""src"":8,""loc"":2},{""cat"":28,""src"":15,""loc"":1},{""cat"":23,""src"":0,""loc"":0},{""cat"":28,""src"":17,""loc"":7},{""cat"":23,""src"":16,""loc"":8},{""cat"":29,""src"":5,""loc"":6},{""cat"":28,""src"":2,""loc"":4},{""cat"":23,""src"":6,""loc"":5},{""cat"":29,""src"":16,""loc"":3}]","2","1107,1102,1101,1102,1104,1103,1102,1104,1103,10001",NA,NA,NA,NA,NA,NA,NA,NA,NA
"790","flanker_instructions","39","html-keyboard-response","37","976026","0.0-4.0-12.0","1","2020-1-6 14:19:24","MOUSE",NA,NA,NA,NA,NA,NA,NA,NA,NA,NA,NA,NA,NA,NA
"765","flanker_test","39","image-keyboard-response","38","977797","0.0-4.0-13.0-0.0","1","2020-1-6 14:19:24","MOUSE",NA,NA,NA,NA,NA,"incongruent","right","TRUE",NA,NA,NA,NA,NA,NA
"649","flanker_test","37","image-keyboard-response","39","979435","0.0-4.0-13.0-0.1","1","2020-1-6 14:19:24","MOUSE",NA,NA,NA,NA,NA,"incongruent","left","TRUE",NA,NA,NA,NA,NA,NA
"544","flanker_test","39","image-keyboard-response","40","980876","0.0-4.0-13.0-0.2","1","2020-1-6 14:19:24","MOUSE",NA,NA,NA,NA,NA,"congruent","right","TRUE",NA,NA,NA,NA,NA,NA
"542","flanker_test","37","image-keyboard-response","41","982276","0.0-4.0-13.0-0.3","1","2020-1-6 14:19:24","MOUSE",NA,NA,NA,NA,NA,"congruent","left","TRUE",NA,NA,NA,NA,NA,NA
"25104","sort_trial",NA,"free-sort","42","1008173","0.0-4.0-14.0","1","2020-1-6 14:19:24","MOUSE",NA,NA,NA,NA,NA,NA,NA,NA,"[{""cat"":29,""src"":8,""x"":71,""y"":445},{""cat"":28,""src"":15,""x"":70,""y"":18},{""cat"":23,""src"":0,""x"":31,""y"":258},{""cat"":28,""src"":17,""x"":52,""y"":134},{""cat"":23,""src"":16,""x"":7,""y"":506},{""cat"":29,""src"":5,""x"":5,""y"":206},{""cat"":28,""src"":2,""x"":4,""y"":71},{""cat"":23,""src"":6,""x"":8,""y"":307},{""cat"":29,""src"":16,""x"":40,""y"":380}]","[{""cat"":""23"",""src"":""0"",""x"":0,""y"":0},{""cat"":""28"",""src"":""17"",""x"":0,""y"":0},{""cat"":""28"",""src"":""15"",""x"":0,""y"":0},{""cat"":""28"",""src"":""2"",""x"":0,""y"":0},{""cat"":""29"",""src"":""5"",""x"":0,""y"":0},{""cat"":""23"",""src"":""6"",""x"":0,""y"":0},{""cat"":""29"",""src"":""16"",""x"":0,""y"":0},{""cat"":""23"",""src"":""16"",""x"":0,""y"":0},{""cat"":""29"",""src"":""8"",""x"":0,""y"":0}]","[{""cat"":23,""src"":0,""loc"":0},{""cat"":28,""src"":17,""loc"":7},{""cat"":28,""src"":15,""loc"":1},{""cat"":28,""src"":2,""loc"":2},{""cat"":29,""src"":5,""loc"":5},{""cat"":23,""src"":6,""loc"":4},{""cat"":29,""src"":16,""loc"":3},{""cat"":23,""src"":16,""loc"":6},{""cat"":29,""src"":8,""loc"":8}]","4","23,28,28,29,23,29,23,28,29,0,15,2,16,6,5,16,17,8,0,1,2,3,4,5,6,7,8,0,2,3,6,5,4,7,1,8",NA
"2885","sort_feedback","32","html-keyboard-response","43","1011062","0.0-4.0-15.0","1","2020-1-6 14:19:24","MOUSE",NA,NA,NA,NA,NA,NA,NA,NA,NA,NA,NA,NA,NA,NA
"19924","setup5",NA,"animation","44","1030987","0.0-4.0-16.0","1","2020-1-6 14:19:24","MOUSE",NA,NA,"[{""cat"":31,""src"":19,""loc"":4},{""cat"":22,""src"":10,""loc"":1},{""cat"":23,""src"":16,""loc"":6},{""cat"":23,""src"":1,""loc"":2},{""cat"":31,""src"":2,""loc"":7},{""cat"":22,""src"":8,""loc"":3},{""cat"":22,""src"":16,""loc"":8},{""cat"":31,""src"":16,""loc"":0},{""cat"":23,""src"":19,""loc"":5}]","5","1106,1101,1102,1103,1102,1102,1102,1102,1103,10001",NA,NA,NA,NA,NA,NA,NA,NA,NA
"1576","flanker_instructions","39","html-keyboard-response","45","1032567","0.0-4.0-17.0","1","2020-1-6 14:19:24","MOUSE",NA,NA,NA,NA,NA,NA,NA,NA,NA,NA,NA,NA,NA,NA
"543","flanker_test","37","image-keyboard-response","46","1034113","0.0-4.0-18.0-0.0","1","2020-1-6 14:19:24","MOUSE",NA,NA,NA,NA,NA,"congruent","left","TRUE",NA,NA,NA,NA,NA,NA
"538","flanker_test","39","image-keyboard-response","47","1035016","0.0-4.0-18.0-0.1","1","2020-1-6 14:19:24","MOUSE",NA,NA,NA,NA,NA,"congruent","right","TRUE",NA,NA,NA,NA,NA,NA
"611","flanker_test","39","image-keyboard-response","48","1036045","0.0-4.0-18.0-0.2","1","2020-1-6 14:19:24","MOUSE",NA,NA,NA,NA,NA,"incongruent","right","TRUE",NA,NA,NA,NA,NA,NA
"675","flanker_test","37","image-keyboard-response","49","1037646","0.0-4.0-18.0-0.3","1","2020-1-6 14:19:24","MOUSE",NA,NA,NA,NA,NA,"incongruent","left","TRUE",NA,NA,NA,NA,NA,NA
"34845","sort_trial",NA,"free-sort","50","1073351","0.0-4.0-19.0","1","2020-1-6 14:19:24","MOUSE",NA,NA,NA,NA,NA,NA,NA,NA,"[{""cat"":31,""src"":19,""x"":1,""y"":22},{""cat"":22,""src"":10,""x"":33,""y"":82},{""cat"":23,""src"":16,""x"":78,""y"":146},{""cat"":23,""src"":1,""x"":83,""y"":194},{""cat"":31,""src"":2,""x"":13,""y"":300},{""cat"":22,""src"":8,""x"":59,""y"":429},{""cat"":22,""src"":16,""x"":65,""y"":370},{""cat"":31,""src"":16,""x"":46,""y"":258},{""cat"":23,""src"":19,""x"":42,""y"":501}]","[{""cat"":""23"",""src"":""19"",""x"":0,""y"":0},{""cat"":""31"",""src"":""19"",""x"":0,""y"":0},{""cat"":""22"",""src"":""8"",""x"":0,""y"":0},{""cat"":""22"",""src"":""10"",""x"":0,""y"":0},{""cat"":""23"",""src"":""1"",""x"":0,""y"":0},{""cat"":""31"",""src"":""2"",""x"":0,""y"":0},{""cat"":""31"",""src"":""16"",""x"":0,""y"":0},{""cat"":""23"",""src"":""16"",""x"":0,""y"":0},{""cat"":""22"",""src"":""16"",""x"":0,""y"":0}]","[{""cat"":23,""src"":19,""loc"":5},{""cat"":31,""src"":19,""loc"":4},{""cat"":22,""src"":8,""loc"":3},{""cat"":22,""src"":10,""loc"":1},{""cat"":23,""src"":1,""loc"":2},{""cat"":31,""src"":2,""loc"":7},{""cat"":31,""src"":16,""loc"":0},{""cat"":23,""src"":16,""loc"":6},{""cat"":22,""src"":16,""loc"":8}]","9","31,22,23,22,31,23,23,31,22,16,10,1,8,19,19,16,2,16,0,1,2,3,4,5,6,7,8,6,3,4,2,1,0,7,5,8",NA
"6505","sort_feedback","32","html-keyboard-response","51","1079859","0.0-4.0-20.0","1","2020-1-6 14:19:24","MOUSE",NA,NA,NA,NA,NA,NA,NA,NA,NA,NA,NA,NA,NA,NA
"19924","setup3",NA,"animation","52","1099786","0.0-4.0-21.0","1","2020-1-6 14:19:24","MOUSE",NA,NA,"[{""cat"":25,""src"":8,""loc"":2},{""cat"":23,""src"":9,""loc"":7},{""cat"":17,""src"":18,""loc"":3},{""cat"":17,""src"":14,""loc"":4},{""cat"":23,""src"":7,""loc"":8},{""cat"":25,""src"":5,""loc"":0},{""cat"":25,""src"":1,""loc"":1},{""cat"":17,""src"":5,""loc"":5},{""cat"":23,""src"":18,""loc"":6}]","3","1105,1101,1101,1102,1103,1102,1105,1102,1102,10001",NA,NA,NA,NA,NA,NA,NA,NA,NA
"1677","flanker_instructions","39","html-keyboard-response","53","1101467","0.0-4.0-22.0","1","2020-1-6 14:19:24","MOUSE",NA,NA,NA,NA,NA,NA,NA,NA,NA,NA,NA,NA,NA,NA
"503","flanker_test","37","image-keyboard-response","54","1102976","0.0-4.0-23.0-0.0","1","2020-1-6 14:19:24","MOUSE",NA,NA,NA,NA,NA,"congruent","left","TRUE",NA,NA,NA,NA,NA,NA
NA,"flanker_test",NA,"image-keyboard-response","55","1104852","0.0-4.0-23.0-0.1","1","2020-1-6 14:19:24","MOUSE",NA,NA,NA,NA,NA,"incongruent","right","FALSE",NA,NA,NA,NA,NA,NA
"441","flanker_test","39","image-keyboard-response","56","1105928","0.0-4.0-23.0-0.2","1","2020-1-6 14:19:24","MOUSE",NA,NA,NA,NA,NA,"congruent","right","TRUE",NA,NA,NA,NA,NA,NA
"567","flanker_test","37","image-keyboard-response","57","1107330","0.0-4.0-23.0-0.3","1","2020-1-6 14:19:24","MOUSE",NA,NA,NA,NA,NA,"incongruent","left","TRUE",NA,NA,NA,NA,NA,NA
"33419","sort_trial",NA,"free-sort","58","1141068","0.0-4.0-24.0","1","2020-1-6 14:19:24","MOUSE",NA,NA,NA,NA,NA,NA,NA,NA,"[{""cat"":25,""src"":8,""x"":31,""y"":433},{""cat"":23,""src"":9,""x"":7,""y"":374},{""cat"":17,""src"":18,""x"":76,""y"":144},{""cat"":17,""src"":14,""x"":48,""y"":256},{""cat"":23,""src"":7,""x"":37,""y"":185},{""cat"":25,""src"":5,""x"":77,""y"":325},{""cat"":25,""src"":1,""x"":72,""y"":28},{""cat"":17,""src"":5,""x"":21,""y"":84},{""cat"":23,""src"":18,""x"":3,""y"":495}]","[{""cat"":""25"",""src"":""5"",""x"":0,""y"":0},{""cat"":""25"",""src"":""1"",""x"":0,""y"":0},{""cat"":""25"",""src"":""8"",""x"":0,""y"":0},{""cat"":""17"",""src"":""5"",""x"":0,""y"":0},{""cat"":""23"",""src"":""7"",""x"":0,""y"":0},{""cat"":""17"",""src"":""18"",""x"":0,""y"":0},{""cat"":""17"",""src"":""14"",""x"":0,""y"":0},{""cat"":""23"",""src"":""9"",""x"":0,""y"":0},{""cat"":""23"",""src"":""18"",""x"":0,""y"":0}]","[{""cat"":25,""src"":5,""loc"":0},{""cat"":25,""src"":1,""loc"":1},{""cat"":25,""src"":8,""loc"":2},{""cat"":17,""src"":5,""loc"":5},{""cat"":23,""src"":7,""loc"":3},{""cat"":17,""src"":18,""loc"":4},{""cat"":17,""src"":14,""loc"":6},{""cat"":23,""src"":9,""loc"":7},{""cat"":23,""src"":18,""loc"":8}]","5","25,25,25,23,17,17,17,23,23,5,1,8,7,18,5,14,9,18,0,1,2,3,4,5,6,7,8,0,1,2,4,5,3,6,7,8",NA
"1939","sort_feedback","32","html-keyboard-response","59","1143010","0.0-4.0-25.0","1","2020-1-6 14:19:24","MOUSE",NA,NA,NA,NA,NA,NA,NA,NA,NA,NA,NA,NA,NA,NA
"19926","setup1",NA,"animation","60","1162937","0.0-4.0-26.0","1","2020-1-6 14:19:24","MOUSE",NA,NA,"[{""cat"":24,""src"":18,""loc"":8},{""cat"":24,""src"":7,""loc"":7},{""cat"":24,""src"":1,""loc"":6},{""cat"":29,""src"":10,""loc"":0},{""cat"":29,""src"":13,""loc"":2},{""cat"":29,""src"":0,""loc"":1},{""cat"":26,""src"":19,""loc"":5},{""cat"":26,""src"":5,""loc"":3},{""cat"":26,""src"":11,""loc"":4}]","1","1105,1103,1102,1103,1102,1103,1102,1103,1102,10001",NA,NA,NA,NA,NA,NA,NA,NA,NA
"1772","flanker_instructions","39","html-keyboard-response","61","1164713","0.0-4.0-27.0","1","2020-1-6 14:19:24","MOUSE",NA,NA,NA,NA,NA,NA,NA,NA,NA,NA,NA,NA,NA,NA
"527","flanker_test","37","image-keyboard-response","62","1166244","0.0-4.0-28.0-0.0","1","2020-1-6 14:19:24","MOUSE",NA,NA,NA,NA,NA,"congruent","left","TRUE",NA,NA,NA,NA,NA,NA
"632","flanker_test","37","image-keyboard-response","63","1167721","0.0-4.0-28.0-0.1","1","2020-1-6 14:19:24","MOUSE",NA,NA,NA,NA,NA,"incongruent","left","TRUE",NA,NA,NA,NA,NA,NA
"578","flanker_test","39","image-keyboard-response","64","1168898","0.0-4.0-28.0-0.2","1","2020-1-6 14:19:24","MOUSE",NA,NA,NA,NA,NA,"incongruent","right","TRUE",NA,NA,NA,NA,NA,NA
"481","flanker_test","39","image-keyboard-response","65","1170035","0.0-4.0-28.0-0.3","1","2020-1-6 14:19:24","MOUSE",NA,NA,NA,NA,NA,"congruent","right","TRUE",NA,NA,NA,NA,NA,NA
"36821","sort_trial",NA,"free-sort","66","1207821","0.0-4.0-29.0","1","2020-1-6 14:19:24","MOUSE",NA,NA,NA,NA,NA,NA,NA,NA,"[{""cat"":24,""src"":18,""x"":74,""y"":79},{""cat"":24,""src"":7,""x"":25,""y"":257},{""cat"":24,""src"":1,""x"":47,""y"":380},{""cat"":29,""src"":10,""x"":55,""y"":2},{""cat"":29,""src"":13,""x"":55,""y"":186},{""cat"":29,""src"":0,""x"":12,""y"":146},{""cat"":26,""src"":19,""x"":25,""y"":311},{""cat"":26,""src"":5,""x"":75,""y"":480},{""cat"":26,""src"":11,""x"":82,""y"":439}]","[{""cat"":""24"",""src"":""7"",""x"":0,""y"":0},{""cat"":""24"",""src"":""1"",""x"":0,""y"":0},{""cat"":""24"",""src"":""18"",""x"":0,""y"":0},{""cat"":""29"",""src"":""0"",""x"":0,""y"":0},{""cat"":""29"",""src"":""13"",""x"":0,""y"":0},{""cat"":""29"",""src"":""10"",""x"":0,""y"":0},{""cat"":""26"",""src"":""19"",""x"":0,""y"":0},{""cat"":""26"",""src"":""11"",""x"":0,""y"":0},{""cat"":""26"",""src"":""5"",""x"":0,""y"":0}]","[{""cat"":24,""src"":7,""loc"":0},{""cat"":24,""src"":1,""loc"":1},{""cat"":24,""src"":18,""loc"":2},{""cat"":29,""src"":0,""loc"":6},{""cat"":29,""src"":13,""loc"":7},{""cat"":29,""src"":10,""loc"":8},{""cat"":26,""src"":19,""loc"":5},{""cat"":26,""src"":11,""loc"":4},{""cat"":26,""src"":5,""loc"":3}]","3","24,24,24,26,26,26,29,29,29,7,1,18,5,11,19,0,13,10,0,1,2,3,4,5,6,7,8,0,1,2,8,7,6,3,4,5",NA
"1377","sort_feedback","32","html-keyboard-response","67","1209201","0.0-4.0-30.0","1","2020-1-6 14:19:24","MOUSE",NA,NA,NA,NA,NA,NA,NA,NA,NA,NA,NA,NA,NA,NA
"19928","setup4",NA,"animation","68","1229131","0.0-4.0-31.0","1","2020-1-6 14:19:24","MOUSE",NA,NA,"[{""cat"":4,""src"":8,""loc"":8},{""cat"":4,""src"":13,""loc"":0},{""cat"":4,""src"":6,""loc"":3},{""cat"":10,""src"":11,""loc"":1},{""cat"":10,""src"":7,""loc"":5},{""cat"":10,""src"":9,""loc"":6},{""cat"":2,""src"":6,""loc"":2},{""cat"":2,""src"":4,""loc"":4},{""cat"":2,""src"":3,""loc"":7}]","4","1105,1104,1102,1102,1103,1103,1102,1103,1104,10000",NA,NA,NA,NA,NA,NA,NA,NA,NA
"3820","flanker_instructions","39","html-keyboard-response","69","1232956","0.0-4.0-32.0","1","2020-1-6 14:19:24","MOUSE",NA,NA,NA,NA,NA,NA,NA,NA,NA,NA,NA,NA,NA,NA
"539","flanker_test","37","image-keyboard-response","70","1234500","0.0-4.0-33.0-0.0","1","2020-1-6 14:19:24","MOUSE",NA,NA,NA,NA,NA,"congruent","left","TRUE",NA,NA,NA,NA,NA,NA
"481","flanker_test","39","image-keyboard-response","71","1235642","0.0-4.0-33.0-0.1","1","2020-1-6 14:19:24","MOUSE",NA,NA,NA,NA,NA,"congruent","right","TRUE",NA,NA,NA,NA,NA,NA
"524","flanker_test","37","image-keyboard-response","72","1237043","0.0-4.0-33.0-0.2","1","2020-1-6 14:19:24","MOUSE",NA,NA,NA,NA,NA,"incongruent","left","TRUE",NA,NA,NA,NA,NA,NA
"565","flanker_test","39","image-keyboard-response","73","1238381","0.0-4.0-33.0-0.3","1","2020-1-6 14:19:24","MOUSE",NA,NA,NA,NA,NA,"incongruent","right","TRUE",NA,NA,NA,NA,NA,NA
"37950","sort_trial",NA,"free-sort","74","1276844","0.0-4.0-34.0","1","2020-1-6 14:19:24","MOUSE",NA,NA,NA,NA,NA,NA,NA,NA,"[{""cat"":4,""src"":8,""x"":20,""y"":376},{""cat"":4,""src"":13,""x"":47,""y"":248},{""cat"":4,""src"":6,""x"":4,""y"":479},{""cat"":10,""src"":11,""x"":3,""y"":140},{""cat"":10,""src"":7,""x"":61,""y"":199},{""cat"":10,""src"":9,""x"":21,""y"":2},{""cat"":2,""src"":6,""x"":39,""y"":441},{""cat"":2,""src"":4,""x"":80,""y"":325},{""cat"":2,""src"":3,""x"":39,""y"":74}]","[{""cat"":""10"",""src"":""7"",""x"":0,""y"":0},{""cat"":""2"",""src"":""4"",""x"":0,""y"":0},{""cat"":""4"",""src"":""6"",""x"":0,""y"":0},{""cat"":""2"",""src"":""3"",""x"":0,""y"":0},{""cat"":""4"",""src"":""13"",""x"":0,""y"":0},{""cat"":""10"",""src"":""11"",""x"":0,""y"":0},{""cat"":""4"",""src"":""8"",""x"":0,""y"":0},{""cat"":""10"",""src"":""9"",""x"":0,""y"":0},{""cat"":""2"",""src"":""6"",""x"":0,""y"":0}]","[{""cat"":10,""src"":7,""loc"":0},{""cat"":2,""src"":4,""loc"":1},{""cat"":4,""src"":6,""loc"":2},{""cat"":2,""src"":3,""loc"":7},{""cat"":4,""src"":13,""loc"":6},{""cat"":10,""src"":11,""loc"":8},{""cat"":4,""src"":8,""loc"":5},{""cat"":10,""src"":9,""loc"":4},{""cat"":2,""src"":6,""loc"":3}]","1","10,2,4,2,10,4,4,2,10,7,4,6,6,9,8,13,3,11,0,1,2,3,4,5,6,7,8,0,1,2,8,7,6,4,3,5",NA
"1651","sort_feedback","32","html-keyboard-response","75","1278499","0.0-4.0-35.0","1","2020-1-6 14:19:24","MOUSE",NA,NA,NA,NA,NA,NA,NA,NA,NA,NA,NA,NA,NA,NA
"19927","setup3",NA,"animation","76","1298427","0.0-4.0-36.0","1","2020-1-6 14:19:24","MOUSE",NA,NA,"[{""cat"":20,""src"":12,""loc"":3},{""cat"":19,""src"":16,""loc"":1},{""cat"":24,""src"":7,""loc"":6},{""cat"":20,""src"":13,""loc"":4},{""cat"":19,""src"":17,""loc"":2},{""cat"":24,""src"":6,""loc"":7},{""cat"":20,""src"":9,""loc"":5},{""cat"":24,""src"":2,""loc"":8},{""cat"":19,""src"":15,""loc"":0}]","3","1106,1102,1103,1102,1102,1102,1103,1103,1103,10001",NA,NA,NA,NA,NA,NA,NA,NA,NA
"2039","flanker_instructions","39","html-keyboard-response","77","1300470","0.0-4.0-37.0","1","2020-1-6 14:19:24","MOUSE",NA,NA,NA,NA,NA,NA,NA,NA,NA,NA,NA,NA,NA,NA
"562","flanker_test","37","image-keyboard-response","78","1302036","0.0-4.0-38.0-0.0","1","2020-1-6 14:19:24","MOUSE",NA,NA,NA,NA,NA,"congruent","left","TRUE",NA,NA,NA,NA,NA,NA
"665","flanker_test","39","image-keyboard-response","79","1303839","0.0-4.0-38.0-0.1","1","2020-1-6 14:19:24","MOUSE",NA,NA,NA,NA,NA,"incongruent","right","TRUE",NA,NA,NA,NA,NA,NA
"562","flanker_test","39","image-keyboard-response","80","1305501","0.0-4.0-38.0-0.2","1","2020-1-6 14:19:24","MOUSE",NA,NA,NA,NA,NA,"congruent","right","TRUE",NA,NA,NA,NA,NA,NA
"670","flanker_test","37","image-keyboard-response","81","1306554","0.0-4.0-38.0-0.3","1","2020-1-6 14:19:24","MOUSE",NA,NA,NA,NA,NA,"incongruent","left","TRUE",NA,NA,NA,NA,NA,NA
"31447","sort_trial",NA,"free-sort","82","1338449","0.0-4.0-39.0","1","2020-1-6 14:19:24","MOUSE",NA,NA,NA,NA,NA,NA,NA,NA,"[{""cat"":20,""src"":12,""x"":23,""y"":432},{""cat"":19,""src"":16,""x"":4,""y"":322},{""cat"":24,""src"":7,""x"":79,""y"":187},{""cat"":20,""src"":13,""x"":28,""y"":28},{""cat"":19,""src"":17,""x"":74,""y"":368},{""cat"":24,""src"":6,""x"":37,""y"":76},{""cat"":20,""src"":9,""x"":8,""y"":494},{""cat"":24,""src"":2,""x"":12,""y"":256},{""cat"":19,""src"":15,""x"":9,""y"":132}]","[{""cat"":""20"",""src"":""9"",""x"":0,""y"":0},{""cat"":""20"",""src"":""13"",""x"":0,""y"":0},{""cat"":""20"",""src"":""12"",""x"":0,""y"":0},{""cat"":""19"",""src"":""16"",""x"":0,""y"":0},{""cat"":""19"",""src"":""17"",""x"":0,""y"":0},{""cat"":""19"",""src"":""15"",""x"":0,""y"":0},{""cat"":""24"",""src"":""6"",""x"":0,""y"":0},{""cat"":""24"",""src"":""7"",""x"":0,""y"":0},{""cat"":""24"",""src"":""2"",""x"":0,""y"":0}]","[{""cat"":20,""src"":9,""loc"":5},{""cat"":20,""src"":13,""loc"":4},{""cat"":20,""src"":12,""loc"":3},{""cat"":19,""src"":16,""loc"":1},{""cat"":19,""src"":17,""loc"":2},{""cat"":19,""src"":15,""loc"":0},{""cat"":24,""src"":6,""loc"":6},{""cat"":24,""src"":7,""loc"":8},{""cat"":24,""src"":2,""loc"":7}]","6","19,19,19,20,20,20,24,24,24,15,16,17,12,13,9,6,2,7,0,1,2,3,4,5,6,7,8,5,3,4,2,1,0,6,8,7",NA
"1496","sort_feedback","32","html-keyboard-response","83","1339949","0.0-4.0-40.0","1","2020-1-6 14:19:24","MOUSE",NA,NA,NA,NA,NA,NA,NA,NA,NA,NA,NA,NA,NA,NA
"19927","setup2",NA,"animation","84","1359876","0.0-4.0-41.0","1","2020-1-6 14:19:24","MOUSE",NA,NA,"[{""cat"":33,""src"":7,""loc"":8},{""cat"":1,""src"":16,""loc"":7},{""cat"":31,""src"":6,""loc"":6},{""cat"":33,""src"":11,""loc"":3},{""cat"":31,""src"":16,""loc"":4},{""cat"":1,""src"":7,""loc"":5},{""cat"":31,""src"":2,""loc"":0},{""cat"":1,""src"":17,""loc"":1},{""cat"":33,""src"":18,""loc"":2}]","2","1105,1103,1102,1105,1102,1102,1102,1103,1101,10001",NA,NA,NA,NA,NA,NA,NA,NA,NA
"1191","flanker_instructions","39","html-keyboard-response","85","1361072","0.0-4.0-42.0","1","2020-1-6 14:19:24","MOUSE",NA,NA,NA,NA,NA,NA,NA,NA,NA,NA,NA,NA,NA,NA
"499","flanker_test","39","image-keyboard-response","86","1362575","0.0-4.0-43.0-0.0","1","2020-1-6 14:19:24","MOUSE",NA,NA,NA,NA,NA,"congruent","right","TRUE",NA,NA,NA,NA,NA,NA
"555","flanker_test","39","image-keyboard-response","87","1363862","0.0-4.0-43.0-0.1","1","2020-1-6 14:19:24","MOUSE",NA,NA,NA,NA,NA,"incongruent","right","TRUE",NA,NA,NA,NA,NA,NA
"416","flanker_test","37","image-keyboard-response","88","1365170","0.0-4.0-43.0-0.2","1","2020-1-6 14:19:24","MOUSE",NA,NA,NA,NA,NA,"congruent","left","TRUE",NA,NA,NA,NA,NA,NA
"706","flanker_test","37","image-keyboard-response","89","1366460","0.0-4.0-43.0-0.3","1","2020-1-6 14:19:24","MOUSE",NA,NA,NA,NA,NA,"incongruent","left","TRUE",NA,NA,NA,NA,NA,NA
"34149","sort_trial",NA,"free-sort","90","1401200","0.0-4.0-44.0","1","2020-1-6 14:19:24","MOUSE",NA,NA,NA,NA,NA,NA,NA,NA,"[{""cat"":33,""src"":7,""x"":61,""y"":74},{""cat"":1,""src"":16,""x"":10,""y"":251},{""cat"":31,""src"":6,""x"":71,""y"":362},{""cat"":33,""src"":11,""x"":13,""y"":188},{""cat"":31,""src"":16,""x"":57,""y"":20},{""cat"":1,""src"":7,""x"":1,""y"":311},{""cat"":31,""src"":2,""x"":50,""y"":148},{""cat"":1,""src"":17,""x"":22,""y"":444},{""cat"":33,""src"":18,""x"":22,""y"":482}]","[{""cat"":""1"",""src"":""7"",""x"":0,""y"":0},{""cat"":""31"",""src"":""16"",""x"":0,""y"":0},{""cat"":""33"",""src"":""11"",""x"":0,""y"":0},{""cat"":""31"",""src"":""6"",""x"":0,""y"":0},{""cat"":""1"",""src"":""17"",""x"":0,""y"":0},{""cat"":""33"",""src"":""7"",""x"":0,""y"":0},{""cat"":""1"",""src"":""16"",""x"":407,""y"":298},{""cat"":""31"",""src"":""2"",""x"":0,""y"":0},{""cat"":""1"",""src"":""16"",""x"":0,""y"":0},{""cat"":""33"",""src"":""18"",""x"":0,""y"":0}]","[{""cat"":1,""src"":7,""loc"":5},{""cat"":31,""src"":16,""loc"":4},{""cat"":33,""src"":11,""loc"":3},{""cat"":31,""src"":6,""loc"":2},{""cat"":1,""src"":17,""loc"":1},{""cat"":33,""src"":7,""loc"":8},{""cat"":31,""src"":2,""loc"":0},{""cat"":1,""src"":16,""loc"":6},{""cat"":33,""src"":18,""loc"":7}]","6","31,1,31,33,31,1,1,33,33,2,17,6,11,16,7,16,18,7,0,1,2,3,4,5,6,7,8,6,4,3,2,1,0,7,8,5",NA
"2065","sort_feedback","32","html-keyboard-response","91","1403268","0.0-4.0-45.0","1","2020-1-6 14:19:24","MOUSE",NA,NA,NA,NA,NA,NA,NA,NA,NA,NA,NA,NA,NA,NA
"19920","setup5",NA,"animation","92","1423190","0.0-4.0-46.0","1","2020-1-6 14:19:24","MOUSE",NA,NA,"[{""cat"":32,""src"":10,""loc"":4},{""cat"":23,""src"":2,""loc"":2},{""cat"":33,""src"":12,""loc"":6},{""cat"":33,""src"":7,""loc"":1},{""cat"":32,""src"":6,""loc"":7},{""cat"":23,""src"":9,""loc"":5},{""cat"":32,""src"":14,""loc"":0},{""cat"":33,""src"":13,""loc"":3},{""cat"":23,""src"":14,""loc"":8}]","5","1103,1102,1101,1103,1101,1102,1102,1102,1103,10000",NA,NA,NA,NA,NA,NA,NA,NA,NA
"1253","flanker_instructions","39","html-keyboard-response","93","1424447","0.0-4.0-47.0","1","2020-1-6 14:19:24","MOUSE",NA,NA,NA,NA,NA,NA,NA,NA,NA,NA,NA,NA,NA,NA
"521","flanker_test","37","image-keyboard-response","94","1425977","0.0-4.0-48.0-0.0","1","2020-1-6 14:19:24","MOUSE",NA,NA,NA,NA,NA,"congruent","left","TRUE",NA,NA,NA,NA,NA,NA
"755","flanker_test","37","image-keyboard-response","95","1427235","0.0-4.0-48.0-0.1","1","2020-1-6 14:19:24","MOUSE",NA,NA,NA,NA,NA,"incongruent","left","TRUE",NA,NA,NA,NA,NA,NA
"593","flanker_test","39","image-keyboard-response","96","1428310","0.0-4.0-48.0-0.2","1","2020-1-6 14:19:24","MOUSE",NA,NA,NA,NA,NA,"incongruent","right","TRUE",NA,NA,NA,NA,NA,NA
"566","flanker_test","39","image-keyboard-response","97","1429891","0.0-4.0-48.0-0.3","1","2020-1-6 14:19:24","MOUSE",NA,NA,NA,NA,NA,"congruent","right","TRUE",NA,NA,NA,NA,NA,NA
"29342","sort_trial",NA,"free-sort","98","1460339","0.0-4.0-49.0","1","2020-1-6 14:19:24","MOUSE",NA,NA,NA,NA,NA,NA,NA,NA,"[{""cat"":32,""src"":10,""x"":69,""y"":16},{""cat"":23,""src"":2,""x"":7,""y"":190},{""cat"":33,""src"":12,""x"":76,""y"":318},{""cat"":33,""src"":7,""x"":54,""y"":125},{""cat"":32,""src"":6,""x"":23,""y"":379},{""cat"":23,""src"":9,""x"":17,""y"":256},{""cat"":32,""src"":14,""x"":21,""y"":484},{""cat"":33,""src"":13,""x"":8,""y"":420},{""cat"":23,""src"":14,""x"":35,""y"":70}]","[{""cat"":""23"",""src"":""9"",""x"":0,""y"":0},{""cat"":""32"",""src"":""10"",""x"":0,""y"":0},{""cat"":""33"",""src"":""13"",""x"":0,""y"":0},{""cat"":""33"",""src"":""7"",""x"":0,""y"":0},{""cat"":""23"",""src"":""2"",""x"":0,""y"":0},{""cat"":""23"",""src"":""14"",""x"":372,""y"":209},{""cat"":""33"",""src"":""12"",""x"":0,""y"":0},{""cat"":""23"",""src"":""14"",""x"":0,""y"":0},{""cat"":""32"",""src"":""6"",""x"":0,""y"":0},{""cat"":""32"",""src"":""14"",""x"":0,""y"":0}]","[{""cat"":23,""src"":9,""loc"":5},{""cat"":32,""src"":10,""loc"":4},{""cat"":33,""src"":13,""loc"":3},{""cat"":33,""src"":7,""loc"":1},{""cat"":23,""src"":2,""loc"":0},{""cat"":33,""src"":12,""loc"":2},{""cat"":23,""src"":14,""loc"":6},{""cat"":32,""src"":6,""loc"":7},{""cat"":32,""src"":14,""loc"":8}]","5","23,33,33,33,32,23,23,32,32,2,7,12,13,10,9,14,6,14,0,1,2,3,4,5,6,7,8,4,3,5,2,1,0,6,7,8",NA
"1234","sort_feedback","32","html-keyboard-response","99","1461577","0.0-4.0-50.0","1","2020-1-6 14:19:24","MOUSE",NA,NA,NA,NA,NA,NA,NA,NA,NA,NA,NA,NA,NA,NA
"19923","setup4",NA,"animation","100","1481501","0.0-4.0-51.0","1","2020-1-6 14:19:24","MOUSE",NA,NA,"[{""cat"":15,""src"":17,""loc"":1},{""cat"":15,""src"":14,""loc"":5},{""cat"":15,""src"":11,""loc"":8},{""cat"":17,""src"":11,""loc"":2},{""cat"":17,""src"":16,""loc"":3},{""cat"":17,""src"":7,""loc"":7},{""cat"":4,""src"":12,""loc"":4},{""cat"":4,""src"":3,""loc"":6},{""cat"":4,""src"":19,""loc"":0}]","4","1103,1103,1102,1102,1101,1102,1103,1103,1102,10001",NA,NA,NA,NA,NA,NA,NA,NA,NA
"1115","flanker_instructions","39","html-keyboard-response","101","1482620","0.0-4.0-52.0","1","2020-1-6 14:19:24","MOUSE",NA,NA,NA,NA,NA,NA,NA,NA,NA,NA,NA,NA,NA,NA
"546","flanker_test","37","image-keyboard-response","102","1484169","0.0-4.0-53.0-0.0","1","2020-1-6 14:19:24","MOUSE",NA,NA,NA,NA,NA,"congruent","left","TRUE",NA,NA,NA,NA,NA,NA
"474","flanker_test","39","image-keyboard-response","103","1485649","0.0-4.0-53.0-0.1","1","2020-1-6 14:19:24","MOUSE",NA,NA,NA,NA,NA,"congruent","right","TRUE",NA,NA,NA,NA,NA,NA
"649","flanker_test","39","image-keyboard-response","104","1486679","0.0-4.0-53.0-0.2","1","2020-1-6 14:19:24","MOUSE",NA,NA,NA,NA,NA,"incongruent","right","TRUE",NA,NA,NA,NA,NA,NA
"642","flanker_test","37","image-keyboard-response","105","1488404","0.0-4.0-53.0-0.3","1","2020-1-6 14:19:24","MOUSE",NA,NA,NA,NA,NA,"incongruent","left","TRUE",NA,NA,NA,NA,NA,NA
"25754","sort_trial",NA,"free-sort","106","1514759","0.0-4.0-54.0","1","2020-1-6 14:19:24","MOUSE",NA,NA,NA,NA,NA,NA,NA,NA,"[{""cat"":15,""src"":17,""x"":19,""y"":508},{""cat"":15,""src"":14,""x"":39,""y"":122},{""cat"":15,""src"":11,""x"":39,""y"":448},{""cat"":17,""src"":11,""x"":52,""y"":78},{""cat"":17,""src"":16,""x"":24,""y"":258},{""cat"":17,""src"":7,""x"":47,""y"":195},{""cat"":4,""src"":12,""x"":69,""y"":10},{""cat"":4,""src"":3,""x"":79,""y"":304},{""cat"":4,""src"":19,""x"":66,""y"":382}]","[{""cat"":""15"",""src"":""14"",""x"":0,""y"":0},{""cat"":""4"",""src"":""12"",""x"":0,""y"":0},{""cat"":""17"",""src"":""16"",""x"":0,""y"":0},{""cat"":""15"",""src"":""11"",""x"":0,""y"":0},{""cat"":""17"",""src"":""11"",""x"":0,""y"":0},{""cat"":""17"",""src"":""7"",""x"":0,""y"":0},{""cat"":""4"",""src"":""3"",""x"":0,""y"":0},{""cat"":""4"",""src"":""19"",""x"":0,""y"":0},{""cat"":""15"",""src"":""17"",""x"":0,""y"":0}]","[{""cat"":15,""src"":14,""loc"":5},{""cat"":4,""src"":12,""loc"":4},{""cat"":17,""src"":16,""loc"":3},{""cat"":15,""src"":11,""loc"":8},{""cat"":17,""src"":11,""loc"":1},{""cat"":17,""src"":7,""loc"":0},{""cat"":4,""src"":3,""loc"":2},{""cat"":4,""src"":19,""loc"":6},{""cat"":15,""src"":17,""loc"":7}]","4","17,17,4,17,4,15,4,15,15,7,11,3,16,12,14,19,17,11,0,1,2,3,4,5,6,7,8,5,4,6,2,1,0,7,8,3",NA
"1185","sort_feedback","32","html-keyboard-response","107","1515948","0.0-4.0-55.0","1","2020-1-6 14:19:24","MOUSE",NA,NA,NA,NA,NA,NA,NA,NA,NA,NA,NA,NA,NA,NA
"19927","setup5",NA,"animation","108","1535876","0.0-4.0-56.0","1","2020-1-6 14:19:24","MOUSE",NA,NA,"[{""cat"":7,""src"":7,""loc"":6},{""cat"":21,""src"":12,""loc"":2},{""cat"":4,""src"":1,""loc"":3},{""cat"":7,""src"":1,""loc"":5},{""cat"":4,""src"":17,""loc"":1},{""cat"":21,""src"":6,""loc"":8},{""cat"":21,""src"":7,""loc"":4},{""cat"":4,""src"":15,""loc"":7},{""cat"":7,""src"":2,""loc"":0}]","5","1106,1102,1102,1102,1102,1104,1103,1103,1103,10000",NA,NA,NA,NA,NA,NA,NA,NA,NA
"1103","flanker_instructions","39","html-keyboard-response","109","1536983","0.0-4.0-57.0","1","2020-1-6 14:19:24","MOUSE",NA,NA,NA,NA,NA,NA,NA,NA,NA,NA,NA,NA,NA,NA
"586","flanker_test","37","image-keyboard-response","110","1538572","0.0-4.0-58.0-0.0","1","2020-1-6 14:19:24","MOUSE",NA,NA,NA,NA,NA,"congruent","left","TRUE",NA,NA,NA,NA,NA,NA
"595","flanker_test","37","image-keyboard-response","111","1540150","0.0-4.0-58.0-0.1","1","2020-1-6 14:19:24","MOUSE",NA,NA,NA,NA,NA,"incongruent","left","TRUE",NA,NA,NA,NA,NA,NA
"582","flanker_test","39","image-keyboard-response","112","1541528","0.0-4.0-58.0-0.2","1","2020-1-6 14:19:24","MOUSE",NA,NA,NA,NA,NA,"incongruent","right","TRUE",NA,NA,NA,NA,NA,NA
"544","flanker_test","39","image-keyboard-response","113","1543234","0.0-4.0-58.0-0.3","1","2020-1-6 14:19:24","MOUSE",NA,NA,NA,NA,NA,"congruent","right","TRUE",NA,NA,NA,NA,NA,NA
"25788","sort_trial",NA,"free-sort","114","1569605","0.0-4.0-59.0","1","2020-1-6 14:19:24","MOUSE",NA,NA,NA,NA,NA,NA,NA,NA,"[{""cat"":7,""src"":7,""x"":47,""y"":262},{""cat"":21,""src"":12,""x"":27,""y"":369},{""cat"":4,""src"":1,""x"":74,""y"":146},{""cat"":7,""src"":1,""x"":31,""y"":204},{""cat"":4,""src"":17,""x"":76,""y"":433},{""cat"":21,""src"":6,""x"":49,""y"":506},{""cat"":21,""src"":7,""x"":58,""y"":17},{""cat"":4,""src"":15,""x"":18,""y"":319},{""cat"":7,""src"":2,""x"":32,""y"":69}]","[{""cat"":""7"",""src"":""1"",""x"":0,""y"":0},{""cat"":""21"",""src"":""7"",""x"":0,""y"":0},{""cat"":""4"",""src"":""1"",""x"":0,""y"":0},{""cat"":""7"",""src"":""2"",""x"":0,""y"":0},{""cat"":""7"",""src"":""7"",""x"":0,""y"":0},{""cat"":""4"",""src"":""15"",""x"":0,""y"":0},{""cat"":""21"",""src"":""12"",""x"":0,""y"":0},{""cat"":""4"",""src"":""17"",""x"":0,""y"":0},{""cat"":""21"",""src"":""6"",""x"":0,""y"":0}]","[{""cat"":7,""src"":1,""loc"":5},{""cat"":21,""src"":7,""loc"":4},{""cat"":4,""src"":1,""loc"":3},{""cat"":7,""src"":2,""loc"":1},{""cat"":7,""src"":7,""loc"":0},{""cat"":4,""src"":15,""loc"":2},{""cat"":21,""src"":12,""loc"":6},{""cat"":4,""src"":17,""loc"":7},{""cat"":21,""src"":6,""loc"":8}]","4","7,7,4,4,21,7,21,4,21,7,2,15,1,7,1,12,17,6,0,1,2,3,4,5,6,7,8,4,3,5,2,1,0,6,7,8",NA
"1438","sort_feedback","32","html-keyboard-response","115","1571047","0.0-4.0-60.0","1","2020-1-6 14:19:24","MOUSE",NA,NA,NA,NA,NA,NA,NA,NA,NA,NA,NA,NA,NA,NA
"19923","setup2",NA,"animation","116","1590971","0.0-4.0-61.0","1","2020-1-6 14:19:24","MOUSE",NA,NA,"[{""cat"":29,""src"":6,""loc"":3},{""cat"":0,""src"":4,""loc"":5},{""cat"":24,""src"":19,""loc"":4},{""cat"":0,""src"":10,""loc"":0},{""cat"":24,""src"":12,""loc"":1},{""cat"":29,""src"":13,""loc"":2},{""cat"":0,""src"":15,""loc"":8},{""cat"":24,""src"":16,""loc"":6},{""cat"":29,""src"":17,""loc"":7}]","2","1106,1102,1102,1101,1101,1102,1102,1102,1104,10000",NA,NA,NA,NA,NA,NA,NA,NA,NA
"985","flanker_instructions","39","html-keyboard-response","117","1591960","0.0-4.0-62.0","1","2020-1-6 14:19:24","MOUSE",NA,NA,NA,NA,NA,NA,NA,NA,NA,NA,NA,NA,NA,NA
"682","flanker_test","39","image-keyboard-response","118","1593646","0.0-4.0-63.0-0.0","1","2020-1-6 14:19:24","MOUSE",NA,NA,NA,NA,NA,"incongruent","right","TRUE",NA,NA,NA,NA,NA,NA
"522","flanker_test","37","image-keyboard-response","119","1594550","0.0-4.0-63.0-0.1","1","2020-1-6 14:19:24","MOUSE",NA,NA,NA,NA,NA,"congruent","left","TRUE",NA,NA,NA,NA,NA,NA
"600","flanker_test","37","image-keyboard-response","120","1595936","0.0-4.0-63.0-0.2","1","2020-1-6 14:19:24","MOUSE",NA,NA,NA,NA,NA,"incongruent","left","TRUE",NA,NA,NA,NA,NA,NA
"549","flanker_test","39","image-keyboard-response","121","1597401","0.0-4.0-63.0-0.3","1","2020-1-6 14:19:24","MOUSE",NA,NA,NA,NA,NA,"congruent","right","TRUE",NA,NA,NA,NA,NA,NA
"28894","sort_trial",NA,"free-sort","122","1627385","0.0-4.0-64.0","1","2020-1-6 14:19:24","MOUSE",NA,NA,NA,NA,NA,NA,NA,NA,"[{""cat"":29,""src"":6,""x"":44,""y"":208},{""cat"":0,""src"":4,""x"":82,""y"":251},{""cat"":24,""src"":19,""x"":21,""y"":6},{""cat"":0,""src"":10,""x"":52,""y"":132},{""cat"":24,""src"":12,""x"":63,""y"":421},{""cat"":29,""src"":13,""x"":36,""y"":498},{""cat"":0,""src"":15,""x"":22,""y"":388},{""cat"":24,""src"":16,""x"":29,""y"":62},{""cat"":29,""src"":17,""x"":82,""y"":325}]","[{""cat"":""0"",""src"":""4"",""x"":0,""y"":0},{""cat"":""29"",""src"":""6"",""x"":0,""y"":0},{""cat"":""24"",""src"":""19"",""x"":0,""y"":0},{""cat"":""24"",""src"":""12"",""x"":0,""y"":0},{""cat"":""24"",""src"":""16"",""x"":0,""y"":0},{""cat"":""0"",""src"":""10"",""x"":0,""y"":0},{""cat"":""29"",""src"":""17"",""x"":0,""y"":0},{""cat"":""0"",""src"":""15"",""x"":0,""y"":0},{""cat"":""29"",""src"":""13"",""x"":0,""y"":0}]","[{""cat"":0,""src"":4,""loc"":5},{""cat"":29,""src"":6,""loc"":3},{""cat"":24,""src"":19,""loc"":4},{""cat"":24,""src"":12,""loc"":1},{""cat"":24,""src"":16,""loc"":0},{""cat"":0,""src"":10,""loc"":2},{""cat"":29,""src"":17,""loc"":8},{""cat"":0,""src"":15,""loc"":6},{""cat"":29,""src"":13,""loc"":7}]","4","24,24,0,29,24,0,0,29,29,16,12,10,6,19,4,15,13,17,0,1,2,3,4,5,6,7,8,4,3,5,1,2,0,7,8,6",NA
"1377","sort_feedback","32","html-keyboard-response","123","1628766","0.0-4.0-65.0","1","2020-1-6 14:19:24","MOUSE",NA,NA,NA,NA,NA,NA,NA,NA,NA,NA,NA,NA,NA,NA
"19924","setup3",NA,"animation","124","1648691","0.0-4.0-66.0","1","2020-1-6 14:19:24","MOUSE",NA,NA,"[{""cat"":21,""src"":0,""loc"":3},{""cat"":24,""src"":4,""loc"":8},{""cat"":9,""src"":8,""loc"":1},{""cat"":21,""src"":11,""loc"":4},{""cat"":9,""src"":15,""loc"":2},{""cat"":24,""src"":14,""loc"":7},{""cat"":21,""src"":1,""loc"":5},{""cat"":24,""src"":15,""loc"":6},{""cat"":9,""src"":13,""loc"":0}]","3","1104,1102,1103,1102,1102,1102,1102,1103,1103,10000",NA,NA,NA,NA,NA,NA,NA,NA,NA
"1073","flanker_instructions","39","html-keyboard-response","125","1649768","0.0-4.0-67.0","1","2020-1-6 14:19:24","MOUSE",NA,NA,NA,NA,NA,NA,NA,NA,NA,NA,NA,NA,NA,NA
"666","flanker_test","39","image-keyboard-response","126","1651439","0.0-4.0-68.0-0.0","1","2020-1-6 14:19:24","MOUSE",NA,NA,NA,NA,NA,"congruent","right","TRUE",NA,NA,NA,NA,NA,NA
"585","flanker_test","37","image-keyboard-response","127","1653112","0.0-4.0-68.0-0.1","1","2020-1-6 14:19:24","MOUSE",NA,NA,NA,NA,NA,"incongruent","left","TRUE",NA,NA,NA,NA,NA,NA
"554","flanker_test","39","image-keyboard-response","128","1654258","0.0-4.0-68.0-0.2","1","2020-1-6 14:19:24","MOUSE",NA,NA,NA,NA,NA,"incongruent","right","TRUE",NA,NA,NA,NA,NA,NA
"594","flanker_test","37","image-keyboard-response","129","1655307","0.0-4.0-68.0-0.3","1","2020-1-6 14:19:24","MOUSE",NA,NA,NA,NA,NA,"congruent","left","TRUE",NA,NA,NA,NA,NA,NA
"25410","sort_trial",NA,"free-sort","130","1681221","0.0-4.0-69.0","1","2020-1-6 14:19:24","MOUSE",NA,NA,NA,NA,NA,NA,NA,NA,"[{""cat"":21,""src"":0,""x"":68,""y"":300},{""cat"":24,""src"":4,""x"":83,""y"":148},{""cat"":9,""src"":8,""x"":58,""y"":386},{""cat"":21,""src"":11,""x"":67,""y"":258},{""cat"":9,""src"":15,""x"":58,""y"":445},{""cat"":24,""src"":14,""x"":48,""y"":505},{""cat"":21,""src"":1,""x"":54,""y"":65},{""cat"":24,""src"":15,""x"":37,""y"":11},{""cat"":9,""src"":13,""x"":71,""y"":191}]","[{""cat"":""24"",""src"":""14"",""x"":0,""y"":0},{""cat"":""24"",""src"":""15"",""x"":0,""y"":0},{""cat"":""24"",""src"":""4"",""x"":0,""y"":0},{""cat"":""21"",""src"":""1"",""x"":0,""y"":0},{""cat"":""9"",""src"":""13"",""x"":0,""y"":0},{""cat"":""21"",""src"":""11"",""x"":0,""y"":0},{""cat"":""21"",""src"":""0"",""x"":0,""y"":0},{""cat"":""9"",""src"":""8"",""x"":0,""y"":0},{""cat"":""9"",""src"":""15"",""x"":0,""y"":0}]","[{""cat"":24,""src"":14,""loc"":7},{""cat"":24,""src"":15,""loc"":6},{""cat"":24,""src"":4,""loc"":8},{""cat"":21,""src"":1,""loc"":1},{""cat"":9,""src"":13,""loc"":0},{""cat"":21,""src"":11,""loc"":2},{""cat"":21,""src"":0,""loc"":5},{""cat"":9,""src"":8,""loc"":4},{""cat"":9,""src"":15,""loc"":3}]","4","9,21,21,9,9,21,24,24,24,13,1,11,15,8,0,15,14,4,0,1,2,3,4,5,6,7,8,4,3,5,8,7,6,1,0,2",NA
"1436","sort_feedback","32","html-keyboard-response","131","1682660","0.0-4.0-70.0","1","2020-1-6 14:19:24","MOUSE",NA,NA,NA,NA,NA,NA,NA,NA,NA,NA,NA,NA,NA,NA
"19926","setup1",NA,"animation","132","1702587","0.0-4.0-71.0","1","2020-1-6 14:19:24","MOUSE",NA,NA,"[{""cat"":26,""src"":0,""loc"":0},{""cat"":26,""src"":6,""loc"":1},{""cat"":26,""src"":7,""loc"":2},{""cat"":16,""src"":17,""loc"":6},{""cat"":16,""src"":5,""loc"":7},{""cat"":16,""src"":14,""loc"":8},{""cat"":13,""src"":10,""loc"":5},{""cat"":13,""src"":18,""loc"":3},{""cat"":13,""src"":6,""loc"":4}]","1","1104,1102,1103,1102,1102,1103,1103,1102,1103,10001",NA,NA,NA,NA,NA,NA,NA,NA,NA
"378","flanker_instructions","37","html-keyboard-response","133","1702968","0.0-4.0-72.0","1","2020-1-6 14:19:24","MOUSE",NA,NA,NA,NA,NA,NA,NA,NA,NA,NA,NA,NA,NA,NA
"512","flanker_test","39","image-keyboard-response","134","1704484","0.0-4.0-73.0-0.0","1","2020-1-6 14:19:24","MOUSE",NA,NA,NA,NA,NA,"congruent","right","TRUE",NA,NA,NA,NA,NA,NA
"607","flanker_test","39","image-keyboard-response","135","1705918","0.0-4.0-73.0-0.1","1","2020-1-6 14:19:24","MOUSE",NA,NA,NA,NA,NA,"incongruent","right","TRUE",NA,NA,NA,NA,NA,NA
"476","flanker_test","37","image-keyboard-response","136","1707268","0.0-4.0-73.0-0.2","1","2020-1-6 14:19:24","MOUSE",NA,NA,NA,NA,NA,"congruent","left","TRUE",NA,NA,NA,NA,NA,NA
"568","flanker_test","37","image-keyboard-response","137","1708232","0.0-4.0-73.0-0.3","1","2020-1-6 14:19:24","MOUSE",NA,NA,NA,NA,NA,"incongruent","left","TRUE",NA,NA,NA,NA,NA,NA
"38538","sort_trial",NA,"free-sort","138","1747841","0.0-4.0-74.0","1","2020-1-6 14:19:24","MOUSE",NA,NA,NA,NA,NA,NA,NA,NA,"[{""cat"":26,""src"":0,""x"":82,""y"":313},{""cat"":26,""src"":6,""x"":45,""y"":61},{""cat"":26,""src"":7,""x"":79,""y"":360},{""cat"":16,""src"":17,""x"":60,""y"":20},{""cat"":16,""src"":5,""x"":57,""y"":252},{""cat"":16,""src"":14,""x"":77,""y"":442},{""cat"":13,""src"":10,""x"":4,""y"":186},{""cat"":13,""src"":18,""x"":73,""y"":139},{""cat"":13,""src"":6,""x"":82,""y"":503}]","[{""cat"":""26"",""src"":""0"",""x"":0,""y"":0},{""cat"":""26"",""src"":""7"",""x"":0,""y"":0},{""cat"":""26"",""src"":""6"",""x"":0,""y"":0},{""cat"":""16"",""src"":""17"",""x"":0,""y"":0},{""cat"":""13"",""src"":""18"",""x"":795,""y"":168},{""cat"":""13"",""src"":""18"",""x"":0,""y"":0},{""cat"":""13"",""src"":""10"",""x"":0,""y"":0},{""cat"":""16"",""src"":""5"",""x"":0,""y"":0},{""cat"":""16"",""src"":""14"",""x"":0,""y"":0},{""cat"":""13"",""src"":""6"",""x"":369,""y"":155},{""cat"":""13"",""src"":""6"",""x"":0,""y"":0}]","[{""cat"":26,""src"":0,""loc"":6},{""cat"":26,""src"":7,""loc"":8},{""cat"":26,""src"":6,""loc"":7},{""cat"":16,""src"":17,""loc"":5},{""cat"":13,""src"":18,""loc"":4},{""cat"":13,""src"":10,""loc"":3},{""cat"":16,""src"":5,""loc"":1},{""cat"":16,""src"":14,""loc"":0},{""cat"":13,""src"":6,""loc"":2}]","0","16,16,13,13,13,16,26,26,26,14,5,6,10,18,17,0,6,7,0,1,2,3,4,5,6,7,8,7,6,8,5,4,3,0,2,1",NA
"1541","sort_feedback","32","html-keyboard-response","139","1749386","0.0-4.0-75.0","1","2020-1-6 14:19:24","MOUSE",NA,NA,NA,NA,NA,NA,NA,NA,NA,NA,NA,NA,NA,NA
"19922","setup4",NA,"animation","140","1769309","0.0-4.0-76.0","1","2020-1-6 14:19:24","MOUSE",NA,NA,"[{""cat"":21,""src"":9,""loc"":2},{""cat"":21,""src"":19,""loc"":4},{""cat"":21,""src"":14,""loc"":6},{""cat"":2,""src"":17,""loc"":8},{""cat"":2,""src"":6,""loc"":5},{""cat"":2,""src"":12,""loc"":1},{""cat"":8,""src"":14,""loc"":3},{""cat"":8,""src"":10,""loc"":0},{""cat"":8,""src"":0,""loc"":7}]","4","1103,1102,1102,1102,1102,1102,1102,1103,1103,10001",NA,NA,NA,NA,NA,NA,NA,NA,NA
"1134","flanker_instructions","39","html-keyboard-response","141","1770448","0.0-4.0-77.0","1","2020-1-6 14:19:24","MOUSE",NA,NA,NA,NA,NA,NA,NA,NA,NA,NA,NA,NA,NA,NA
"588","flanker_test","39","image-keyboard-response","142","1772042","0.0-4.0-78.0-0.0","1","2020-1-6 14:19:24","MOUSE",NA,NA,NA,NA,NA,"congruent","right","TRUE",NA,NA,NA,NA,NA,NA
"475","flanker_test","37","image-keyboard-response","143","1773015","0.0-4.0-78.0-0.1","1","2020-1-6 14:19:24","MOUSE",NA,NA,NA,NA,NA,"incongruent","left","TRUE",NA,NA,NA,NA,NA,NA
"492","flanker_test","37","image-keyboard-response","144","1774362","0.0-4.0-78.0-0.2","1","2020-1-6 14:19:24","MOUSE",NA,NA,NA,NA,NA,"congruent","left","TRUE",NA,NA,NA,NA,NA,NA
"746","flanker_test","39","image-keyboard-response","145","1776302","0.0-4.0-78.0-0.3","1","2020-1-6 14:19:24","MOUSE",NA,NA,NA,NA,NA,"incongruent","right","TRUE",NA,NA,NA,NA,NA,NA
"30138","sort_trial",NA,"free-sort","146","1806882","0.0-4.0-79.0","1","2020-1-6 14:19:24","MOUSE",NA,NA,NA,NA,NA,NA,NA,NA,"[{""cat"":21,""src"":9,""x"":30,""y"":448},{""cat"":21,""src"":19,""x"":37,""y"":496},{""cat"":21,""src"":14,""x"":24,""y"":317},{""cat"":2,""src"":17,""x"":14,""y"":254},{""cat"":2,""src"":6,""x"":57,""y"":376},{""cat"":2,""src"":12,""x"":18,""y"":198},{""cat"":8,""src"":14,""x"":6,""y"":10},{""cat"":8,""src"":10,""x"":34,""y"":76},{""cat"":8,""src"":0,""x"":54,""y"":123}]","[{""cat"":""2"",""src"":""6"",""x"":0,""y"":0},{""cat"":""8"",""src"":""14"",""x"":0,""y"":0},{""cat"":""21"",""src"":""19"",""x"":0,""y"":0},{""cat"":""8"",""src"":""10"",""x"":0,""y"":0},{""cat"":""8"",""src"":""0"",""x"":0,""y"":0},{""cat"":""2"",""src"":""12"",""x"":0,""y"":0},{""cat"":""2"",""src"":""17"",""x"":0,""y"":0},{""cat"":""21"",""src"":""14"",""x"":0,""y"":0},{""cat"":""21"",""src"":""9"",""x"":0,""y"":0}]","[{""cat"":2,""src"":6,""loc"":5},{""cat"":8,""src"":14,""loc"":3},{""cat"":21,""src"":19,""loc"":4},{""cat"":8,""src"":10,""loc"":1},{""cat"":8,""src"":0,""loc"":0},{""cat"":2,""src"":12,""loc"":2},{""cat"":2,""src"":17,""loc"":6},{""cat"":21,""src"":14,""loc"":8},{""cat"":21,""src"":9,""loc"":7}]","3","8,8,2,8,21,2,2,21,21,0,10,12,14,19,6,17,9,14,0,1,2,3,4,5,6,7,8,4,3,5,1,2,0,6,8,7",NA
"979","sort_feedback","32","html-keyboard-response","147","1807865","0.0-4.0-80.0","1","2020-1-6 14:19:24","MOUSE",NA,NA,NA,NA,NA,NA,NA,NA,NA,NA,NA,NA,NA,NA
"19922","setup2",NA,"animation","148","1827788","0.0-4.0-81.0","1","2020-1-6 14:19:24","MOUSE",NA,NA,"[{""cat"":21,""src"":7,""loc"":0},{""cat"":18,""src"":14,""loc"":1},{""cat"":13,""src"":9,""loc"":2},{""cat"":13,""src"":10,""loc"":3},{""cat"":21,""src"":0,""loc"":4},{""cat"":18,""src"":6,""loc"":5},{""cat"":13,""src"":0,""loc"":6},{""cat"":21,""src"":4,""loc"":8},{""cat"":18,""src"":1,""loc"":7}]","2","1103,1102,1102,1102,1103,1101,1103,1102,1103,10001",NA,NA,NA,NA,NA,NA,NA,NA,NA
"984","flanker_instructions","39","html-keyboard-response","149","1828778","0.0-4.0-82.0","1","2020-1-6 14:19:24","MOUSE",NA,NA,NA,NA,NA,NA,NA,NA,NA,NA,NA,NA,NA,NA
"634","flanker_test","37","image-keyboard-response","150","1830416","0.0-4.0-83.0-0.0","1","2020-1-6 14:19:24","MOUSE",NA,NA,NA,NA,NA,"incongruent","left","TRUE",NA,NA,NA,NA,NA,NA
"490","flanker_test","39","image-keyboard-response","151","1831418","0.0-4.0-83.0-0.1","1","2020-1-6 14:19:24","MOUSE",NA,NA,NA,NA,NA,"incongruent","right","TRUE",NA,NA,NA,NA,NA,NA
"444","flanker_test","39","image-keyboard-response","152","1832867","0.0-4.0-83.0-0.2","1","2020-1-6 14:19:24","MOUSE",NA,NA,NA,NA,NA,"congruent","right","TRUE",NA,NA,NA,NA,NA,NA
"401","flanker_test","37","image-keyboard-response","153","1833938","0.0-4.0-83.0-0.3","1","2020-1-6 14:19:24","MOUSE",NA,NA,NA,NA,NA,"congruent","left","TRUE",NA,NA,NA,NA,NA,NA
"45875","sort_trial",NA,"free-sort","154","1880680","0.0-4.0-84.0","1","2020-1-6 14:19:24","MOUSE",NA,NA,NA,NA,NA,NA,NA,NA,"[{""cat"":21,""src"":7,""x"":44,""y"":299},{""cat"":18,""src"":14,""x"":47,""y"":260},{""cat"":13,""src"":9,""x"":15,""y"":10},{""cat"":13,""src"":10,""x"":39,""y"":437},{""cat"":21,""src"":0,""x"":51,""y"":74},{""cat"":18,""src"":6,""x"":55,""y"":505},{""cat"":13,""src"":0,""x"":15,""y"":135},{""cat"":21,""src"":4,""x"":55,""y"":385},{""cat"":18,""src"":1,""x"":71,""y"":192}]","[{""cat"":""18"",""src"":""6"",""x"":0,""y"":0},{""cat"":""21"",""src"":""0"",""x"":0,""y"":0},{""cat"":""13"",""src"":""0"",""x"":0,""y"":0},{""cat"":""18"",""src"":""14"",""x"":0,""y"":0},{""cat"":""13"",""src"":""9"",""x"":0,""y"":0},{""cat"":""21"",""src"":""7"",""x"":0,""y"":0},{""cat"":""18"",""src"":""1"",""x"":0,""y"":0},{""cat"":""21"",""src"":""4"",""x"":0,""y"":0},{""cat"":""13"",""src"":""10"",""x"":0,""y"":0}]","[{""cat"":18,""src"":6,""loc"":5},{""cat"":21,""src"":0,""loc"":4},{""cat"":13,""src"":0,""loc"":3},{""cat"":18,""src"":14,""loc"":1},{""cat"":13,""src"":9,""loc"":2},{""cat"":21,""src"":7,""loc"":0},{""cat"":18,""src"":1,""loc"":6},{""cat"":21,""src"":4,""loc"":7},{""cat"":13,""src"":10,""loc"":8}]","5","21,18,13,13,21,18,18,21,13,7,14,9,0,0,6,1,4,10,0,1,2,3,4,5,6,7,8,5,3,4,2,1,0,6,7,8",NA
"1872","sort_feedback","32","html-keyboard-response","155","1882556","0.0-4.0-85.0","1","2020-1-6 14:19:24","MOUSE",NA,NA,NA,NA,NA,NA,NA,NA,NA,NA,NA,NA,NA,NA
"19924","setup1",NA,"animation","156","1902481","0.0-4.0-86.0","1","2020-1-6 14:19:24","MOUSE",NA,NA,"[{""cat"":4,""src"":11,""loc"":8},{""cat"":4,""src"":18,""loc"":6},{""cat"":4,""src"":0,""loc"":7},{""cat"":22,""src"":6,""loc"":4},{""cat"":22,""src"":14,""loc"":5},{""cat"":22,""src"":3,""loc"":3},{""cat"":25,""src"":7,""loc"":1},{""cat"":25,""src"":15,""loc"":2},{""cat"":25,""src"":0,""loc"":0}]","1","1103,1101,1103,1102,1102,1103,1103,1103,1103,10001",NA,NA,NA,NA,NA,NA,NA,NA,NA
"1513","flanker_instructions","37","html-keyboard-response","157","1903998","0.0-4.0-87.0","1","2020-1-6 14:19:24","MOUSE",NA,NA,NA,NA,NA,NA,NA,NA,NA,NA,NA,NA,NA,NA
"601","flanker_test","39","image-keyboard-response","158","1905603","0.0-4.0-88.0-0.0","1","2020-1-6 14:19:24","MOUSE",NA,NA,NA,NA,NA,"congruent","right","TRUE",NA,NA,NA,NA,NA,NA
"538","flanker_test","37","image-keyboard-response","159","1906550","0.0-4.0-88.0-0.1","1","2020-1-6 14:19:24","MOUSE",NA,NA,NA,NA,NA,"incongruent","left","TRUE",NA,NA,NA,NA,NA,NA
"629","flanker_test","39","image-keyboard-response","160","1907959","0.0-4.0-88.0-0.2","1","2020-1-6 14:19:24","MOUSE",NA,NA,NA,NA,NA,"incongruent","right","TRUE",NA,NA,NA,NA,NA,NA
"442","flanker_test","37","image-keyboard-response","161","1909495","0.0-4.0-88.0-0.3","1","2020-1-6 14:19:24","MOUSE",NA,NA,NA,NA,NA,"congruent","left","TRUE",NA,NA,NA,NA,NA,NA
"30446","sort_trial",NA,"free-sort","162","1940477","0.0-4.0-89.0","1","2020-1-6 14:19:24","MOUSE",NA,NA,NA,NA,NA,NA,NA,NA,"[{""cat"":4,""src"":11,""x"":79,""y"":360},{""cat"":4,""src"":18,""x"":71,""y"":181},{""cat"":4,""src"":0,""x"":25,""y"":22},{""cat"":22,""src"":6,""x"":82,""y"":301},{""cat"":22,""src"":14,""x"":3,""y"":257},{""cat"":22,""src"":3,""x"":66,""y"":76},{""cat"":25,""src"":7,""x"":44,""y"":120},{""cat"":25,""src"":15,""x"":60,""y"":420},{""cat"":25,""src"":0,""x"":36,""y"":503}]","[{""cat"":""22"",""src"":""14"",""x"":0,""y"":0},{""cat"":""22"",""src"":""6"",""x"":0,""y"":0},{""cat"":""22"",""src"":""3"",""x"":0,""y"":0},{""cat"":""25"",""src"":""15"",""x"":0,""y"":0},{""cat"":""25"",""src"":""7"",""x"":0,""y"":0},{""cat"":""4"",""src"":""0"",""x"":0,""y"":0},{""cat"":""4"",""src"":""18"",""x"":0,""y"":0},{""cat"":""4"",""src"":""11"",""x"":0,""y"":0},{""cat"":""25"",""src"":""0"",""x"":0,""y"":0}]","[{""cat"":22,""src"":14,""loc"":5},{""cat"":22,""src"":6,""loc"":4},{""cat"":22,""src"":3,""loc"":3},{""cat"":25,""src"":15,""loc"":2},{""cat"":25,""src"":7,""loc"":1},{""cat"":4,""src"":0,""loc"":0},{""cat"":4,""src"":18,""loc"":6},{""cat"":4,""src"":11,""loc"":8},{""cat"":25,""src"":0,""loc"":7}]","7","4,25,25,22,22,22,4,25,4,0,7,15,3,6,14,18,0,11,0,1,2,3,4,5,6,7,8,5,4,3,2,1,0,6,8,7",NA
"2024","sort_feedback","32","html-keyboard-response","163","1942504","0.0-4.0-90.0","1","2020-1-6 14:19:24","MOUSE",NA,NA,NA,NA,NA,NA,NA,NA,NA,NA,NA,NA,NA,NA
"19924","setup3",NA,"animation","164","1962429","0.0-4.0-91.0","1","2020-1-6 14:19:24","MOUSE",NA,NA,"[{""cat"":3,""src"":2,""loc"":7},{""cat"":27,""src"":10,""loc"":3},{""cat"":21,""src"":0,""loc"":0},{""cat"":3,""src"":15,""loc"":6},{""cat"":27,""src"":9,""loc"":5},{""cat"":21,""src"":9,""loc"":2},{""cat"":27,""src"":3,""loc"":4},{""cat"":21,""src"":2,""loc"":1},{""cat"":3,""src"":12,""loc"":8}]","3","1104,1102,1102,1102,1102,1103,1103,1103,1102,10001",NA,NA,NA,NA,NA,NA,NA,NA,NA
"1765","flanker_instructions","39","html-keyboard-response","165","1964199","0.0-4.0-92.0","1","2020-1-6 14:19:24","MOUSE",NA,NA,NA,NA,NA,NA,NA,NA,NA,NA,NA,NA,NA,NA
"445","flanker_test","37","image-keyboard-response","166","1965649","0.0-4.0-93.0-0.0","1","2020-1-6 14:19:24","MOUSE",NA,NA,NA,NA,NA,"congruent","left","TRUE",NA,NA,NA,NA,NA,NA
"476","flanker_test","39","image-keyboard-response","167","1966648","0.0-4.0-93.0-0.1","1","2020-1-6 14:19:24","MOUSE",NA,NA,NA,NA,NA,"congruent","right","TRUE",NA,NA,NA,NA,NA,NA
"652","flanker_test","39","image-keyboard-response","168","1968210","0.0-4.0-93.0-0.2","1","2020-1-6 14:19:24","MOUSE",NA,NA,NA,NA,NA,"incongruent","right","TRUE",NA,NA,NA,NA,NA,NA
"578","flanker_test","37","image-keyboard-response","169","1969149","0.0-4.0-93.0-0.3","1","2020-1-6 14:19:24","MOUSE",NA,NA,NA,NA,NA,"incongruent","left","TRUE",NA,NA,NA,NA,NA,NA
"28047","sort_trial",NA,"free-sort","170","1998038","0.0-4.0-94.0","1","2020-1-6 14:19:24","MOUSE",NA,NA,NA,NA,NA,NA,NA,NA,"[{""cat"":3,""src"":2,""x"":61,""y"":375},{""cat"":27,""src"":10,""x"":2,""y"":65},{""cat"":21,""src"":0,""x"":8,""y"":139},{""cat"":3,""src"":15,""x"":48,""y"":328},{""cat"":27,""src"":9,""x"":28,""y"":193},{""cat"":21,""src"":9,""x"":14,""y"":247},{""cat"":27,""src"":3,""x"":21,""y"":505},{""cat"":21,""src"":2,""x"":0,""y"":18},{""cat"":3,""src"":12,""x"":31,""y"":445}]","[{""cat"":""27"",""src"":""9"",""x"":0,""y"":0},{""cat"":""27"",""src"":""3"",""x"":0,""y"":0},{""cat"":""21"",""src"":""0"",""x"":0,""y"":0},{""cat"":""3"",""src"":""12"",""x"":0,""y"":0},{""cat"":""21"",""src"":""2"",""x"":0,""y"":0},{""cat"":""27"",""src"":""10"",""x"":0,""y"":0},{""cat"":""21"",""src"":""9"",""x"":0,""y"":0},{""cat"":""3"",""src"":""15"",""x"":0,""y"":0},{""cat"":""3"",""src"":""2"",""x"":0,""y"":0}]","[{""cat"":27,""src"":9,""loc"":5},{""cat"":27,""src"":3,""loc"":4},{""cat"":21,""src"":0,""loc"":3},{""cat"":3,""src"":12,""loc"":1},{""cat"":21,""src"":2,""loc"":0},{""cat"":27,""src"":10,""loc"":2},{""cat"":21,""src"":9,""loc"":6},{""cat"":3,""src"":15,""loc"":7},{""cat"":3,""src"":2,""loc"":8}]","2","21,3,27,21,27,27,21,3,3,2,12,10,0,3,9,9,15,2,0,1,2,3,4,5,6,7,8,4,3,5,2,1,0,6,7,8",NA
"1002","sort_feedback","32","html-keyboard-response","171","1999042","0.0-4.0-95.0","1","2020-1-6 14:19:24","MOUSE",NA,NA,NA,NA,NA,NA,NA,NA,NA,NA,NA,NA,NA,NA
"19925","setup5",NA,"animation","172","2018968","0.0-4.0-96.0","1","2020-1-6 14:19:24","MOUSE",NA,NA,"[{""cat"":9,""src"":10,""loc"":4},{""cat"":0,""src"":15,""loc"":6},{""cat"":25,""src"":8,""loc"":0},{""cat"":25,""src"":9,""loc"":3},{""cat"":0,""src"":19,""loc"":2},{""cat"":9,""src"":5,""loc"":8},{""cat"":25,""src"":7,""loc"":7},{""cat"":0,""src"":17,""loc"":5},{""cat"":9,""src"":3,""loc"":1}]","5","1105,1102,1102,1102,1102,1103,1102,1103,1102,10001",NA,NA,NA,NA,NA,NA,NA,NA,NA
"788","flanker_instructions","39","html-keyboard-response","173","2019761","0.0-4.0-97.0","1","2020-1-6 14:19:24","MOUSE",NA,NA,NA,NA,NA,NA,NA,NA,NA,NA,NA,NA,NA,NA
"491","flanker_test","37","image-keyboard-response","174","2021255","0.0-4.0-98.0-0.0","1","2020-1-6 14:19:24","MOUSE",NA,NA,NA,NA,NA,"congruent","left","TRUE",NA,NA,NA,NA,NA,NA
"499","flanker_test","39","image-keyboard-response","175","2022803","0.0-4.0-98.0-0.1","1","2020-1-6 14:19:24","MOUSE",NA,NA,NA,NA,NA,"congruent","right","TRUE",NA,NA,NA,NA,NA,NA
"656","flanker_test","37","image-keyboard-response","176","2024251","0.0-4.0-98.0-0.2","1","2020-1-6 14:19:24","MOUSE",NA,NA,NA,NA,NA,"incongruent","left","TRUE",NA,NA,NA,NA,NA,NA
"625","flanker_test","39","image-keyboard-response","177","2025251","0.0-4.0-98.0-0.3","1","2020-1-6 14:19:24","MOUSE",NA,NA,NA,NA,NA,"incongruent","right","TRUE",NA,NA,NA,NA,NA,NA
"36766","sort_trial",NA,"free-sort","178","2063075","0.0-4.0-99.0","1","2020-1-6 14:19:24","MOUSE",NA,NA,NA,NA,NA,NA,NA,NA,"[{""cat"":9,""src"":10,""x"":48,""y"":384},{""cat"":0,""src"":15,""x"":15,""y"":304},{""cat"":25,""src"":8,""x"":0,""y"":189},{""cat"":25,""src"":9,""x"":44,""y"":503},{""cat"":0,""src"":19,""x"":19,""y"":16},{""cat"":9,""src"":5,""x"":30,""y"":148},{""cat"":25,""src"":7,""x"":38,""y"":241},{""cat"":0,""src"":17,""x"":9,""y"":75},{""cat"":9,""src"":3,""x"":15,""y"":430}]","[{""cat"":""25"",""src"":""7"",""x"":0,""y"":0},{""cat"":""9"",""src"":""5"",""x"":0,""y"":0},{""cat"":""0"",""src"":""15"",""x"":0,""y"":0},{""cat"":""9"",""src"":""10"",""x"":0,""y"":0},{""cat"":""9"",""src"":""3"",""x"":0,""y"":0},{""cat"":""0"",""src"":""19"",""x"":0,""y"":0},{""cat"":""0"",""src"":""17"",""x"":0,""y"":0},{""cat"":""25"",""src"":""8"",""x"":0,""y"":0},{""cat"":""25"",""src"":""9"",""x"":0,""y"":0}]","[{""cat"":25,""src"":7,""loc"":7},{""cat"":9,""src"":5,""loc"":8},{""cat"":0,""src"":15,""loc"":6},{""cat"":9,""src"":10,""loc"":1},{""cat"":9,""src"":3,""loc"":0},{""cat"":0,""src"":19,""loc"":2},{""cat"":0,""src"":17,""loc"":5},{""cat"":25,""src"":8,""loc"":4},{""cat"":25,""src"":9,""loc"":3}]","6","9,9,0,25,25,0,0,25,9,3,10,19,9,8,17,15,7,5,0,1,2,3,4,5,6,7,8,4,3,5,8,7,6,2,0,1",NA
"1542","sort_feedback","32","html-keyboard-response","179","2064620","0.0-4.0-100.0","1","2020-1-6 14:19:24","MOUSE",NA,NA,NA,NA,NA,NA,NA,NA,NA,NA,NA,NA,NA,NA
NA,"breakStart",NA,"html-keyboard-response","180","2094622","0.0-5.0-0.0","1","2020-1-6 14:19:24","MOUSE",NA,NA,NA,NA,NA,NA,NA,NA,NA,NA,NA,NA,NA,NA
"3165","breakEnd",NA,"html-button-response","181","2097792","0.0-5.0-1.0","1","2020-1-6 14:19:24","MOUSE","0",NA,NA,NA,NA,NA,NA,NA,NA,NA,NA,NA,NA,NA
"19923","setup5",NA,"animation","182","2117718","0.0-6.0-0.0","1","2020-1-6 14:19:24","MOUSE",NA,NA,"[{""cat"":32,""src"":7,""loc"":8},{""cat"":0,""src"":16,""loc"":3},{""cat"":20,""src"":1,""loc"":0},{""cat"":32,""src"":9,""loc"":4},{""cat"":20,""src"":9,""loc"":6},{""cat"":0,""src"":15,""loc"":2},{""cat"":32,""src"":6,""loc"":1},{""cat"":20,""src"":8,""loc"":5},{""cat"":0,""src"":4,""loc"":7}]","5","1105,1101,1102,1101,1102,1104,1102,1103,1103,10000",NA,NA,NA,NA,NA,NA,NA,NA,NA
"997","flanker_instructions","39","html-keyboard-response","183","2118718","0.0-6.0-1.0","1","2020-1-6 14:19:24","MOUSE",NA,NA,NA,NA,NA,NA,NA,NA,NA,NA,NA,NA,NA,NA
"694","flanker_test","37","image-keyboard-response","184","2120417","0.0-6.0-2.0-0.0","1","2020-1-6 14:19:24","MOUSE",NA,NA,NA,NA,NA,"incongruent","left","TRUE",NA,NA,NA,NA,NA,NA
"418","flanker_test","39","image-keyboard-response","185","2121804","0.0-6.0-2.0-0.1","1","2020-1-6 14:19:24","MOUSE",NA,NA,NA,NA,NA,"congruent","right","TRUE",NA,NA,NA,NA,NA,NA
"425","flanker_test","37","image-keyboard-response","186","2123363","0.0-6.0-2.0-0.2","1","2020-1-6 14:19:24","MOUSE",NA,NA,NA,NA,NA,"congruent","left","TRUE",NA,NA,NA,NA,NA,NA
NA,"flanker_test",NA,"image-keyboard-response","187","2125405","0.0-6.0-2.0-0.3","1","2020-1-6 14:19:24","MOUSE",NA,NA,NA,NA,NA,"incongruent","right","FALSE",NA,NA,NA,NA,NA,NA
"32278","sort_trial",NA,"free-sort","188","2158461","0.0-6.0-3.0","1","2020-1-6 14:19:24","MOUSE",NA,NA,NA,NA,NA,NA,NA,NA,"[{""cat"":32,""src"":7,""x"":37,""y"":132},{""cat"":0,""src"":16,""x"":76,""y"":14},{""cat"":20,""src"":1,""x"":75,""y"":264},{""cat"":32,""src"":9,""x"":26,""y"":440},{""cat"":20,""src"":9,""x"":51,""y"":299},{""cat"":0,""src"":15,""x"":47,""y"":362},{""cat"":32,""src"":6,""x"":34,""y"":207},{""cat"":20,""src"":8,""x"":43,""y"":62},{""cat"":0,""src"":4,""x"":31,""y"":495}]","[{""cat"":""20"",""src"":""1"",""x"":0,""y"":0},{""cat"":""32"",""src"":""6"",""x"":0,""y"":0},{""cat"":""0"",""src"":""16"",""x"":0,""y"":0},{""cat"":""20"",""src"":""8"",""x"":0,""y"":0},{""cat"":""32"",""src"":""7"",""x"":0,""y"":0},{""cat"":""20"",""src"":""9"",""x"":0,""y"":0},{""cat"":""0"",""src"":""15"",""x"":0,""y"":0},{""cat"":""32"",""src"":""9"",""x"":0,""y"":0},{""cat"":""0"",""src"":""4"",""x"":0,""y"":0}]","[{""cat"":20,""src"":1,""loc"":0},{""cat"":32,""src"":6,""loc"":1},{""cat"":0,""src"":16,""loc"":3},{""cat"":20,""src"":8,""loc"":2},{""cat"":32,""src"":7,""loc"":5},{""cat"":20,""src"":9,""loc"":4},{""cat"":0,""src"":15,""loc"":6},{""cat"":32,""src"":9,""loc"":7},{""cat"":0,""src"":4,""loc"":8}]","3","20,32,20,0,20,32,0,32,0,1,6,8,16,9,7,15,9,4,0,1,2,3,4,5,6,7,8,0,1,3,2,5,4,6,7,8",NA
"1194","sort_feedback","32","html-keyboard-response","189","2159660","0.0-6.0-4.0","1","2020-1-6 14:19:24","MOUSE",NA,NA,NA,NA,NA,NA,NA,NA,NA,NA,NA,NA,NA,NA
"19925","setup1",NA,"animation","190","2179586","0.0-6.0-5.0","1","2020-1-6 14:19:24","MOUSE",NA,NA,"[{""cat"":21,""src"":5,""loc"":6},{""cat"":21,""src"":11,""loc"":7},{""cat"":21,""src"":19,""loc"":8},{""cat"":24,""src"":8,""loc"":2},{""cat"":24,""src"":17,""loc"":1},{""cat"":24,""src"":14,""loc"":0},{""cat"":31,""src"":9,""loc"":5},{""cat"":31,""src"":10,""loc"":3},{""cat"":31,""src"":13,""loc"":4}]","1","1104,1102,1102,1103,1102,1102,1103,1103,1103,10001",NA,NA,NA,NA,NA,NA,NA,NA,NA
"1285","flanker_instructions","39","html-keyboard-response","191","2180874","0.0-6.0-6.0","1","2020-1-6 14:19:24","MOUSE",NA,NA,NA,NA,NA,NA,NA,NA,NA,NA,NA,NA,NA,NA
"527","flanker_test","39","image-keyboard-response","192","2182404","0.0-6.0-7.0-0.0","1","2020-1-6 14:19:24","MOUSE",NA,NA,NA,NA,NA,"congruent","right","TRUE",NA,NA,NA,NA,NA,NA
"576","flanker_test","37","image-keyboard-response","193","2183649","0.0-6.0-7.0-0.1","1","2020-1-6 14:19:24","MOUSE",NA,NA,NA,NA,NA,"incongruent","left","TRUE",NA,NA,NA,NA,NA,NA
"459","flanker_test","37","image-keyboard-response","194","2185094","0.0-6.0-7.0-0.2","1","2020-1-6 14:19:24","MOUSE",NA,NA,NA,NA,NA,"congruent","left","TRUE",NA,NA,NA,NA,NA,NA
"677","flanker_test","39","image-keyboard-response","195","2186628","0.0-6.0-7.0-0.3","1","2020-1-6 14:19:24","MOUSE",NA,NA,NA,NA,NA,"incongruent","right","TRUE",NA,NA,NA,NA,NA,NA
"30479","sort_trial",NA,"free-sort","196","2217655","0.0-6.0-8.0","1","2020-1-6 14:19:24","MOUSE",NA,NA,NA,NA,NA,NA,NA,NA,"[{""cat"":21,""src"":5,""x"":64,""y"":265},{""cat"":21,""src"":11,""x"":80,""y"":64},{""cat"":21,""src"":19,""x"":1,""y"":430},{""cat"":24,""src"":8,""x"":42,""y"":148},{""cat"":24,""src"":17,""x"":43,""y"":201},{""cat"":24,""src"":14,""x"":19,""y"":6},{""cat"":31,""src"":9,""x"":52,""y"":385},{""cat"":31,""src"":10,""x"":26,""y"":504},{""cat"":31,""src"":13,""x"":56,""y"":309}]","[{""cat"":""21"",""src"":""11"",""x"":0,""y"":0},{""cat"":""21"",""src"":""5"",""x"":0,""y"":0},{""cat"":""21"",""src"":""19"",""x"":0,""y"":0},{""cat"":""31"",""src"":""13"",""x"":0,""y"":0},{""cat"":""31"",""src"":""9"",""x"":0,""y"":0},{""cat"":""31"",""src"":""10"",""x"":0,""y"":0},{""cat"":""24"",""src"":""14"",""x"":0,""y"":0},{""cat"":""24"",""src"":""8"",""x"":0,""y"":0},{""cat"":""24"",""src"":""17"",""x"":0,""y"":0}]","[{""cat"":21,""src"":11,""loc"":0},{""cat"":21,""src"":5,""loc"":1},{""cat"":21,""src"":19,""loc"":2},{""cat"":31,""src"":13,""loc"":4},{""cat"":31,""src"":9,""loc"":5},{""cat"":31,""src"":10,""loc"":3},{""cat"":24,""src"":14,""loc"":6},{""cat"":24,""src"":8,""loc"":7},{""cat"":24,""src"":17,""loc"":8}]","3","21,21,21,31,31,31,24,24,24,11,5,19,10,13,9,14,8,17,0,1,2,3,4,5,6,7,8,0,1,2,5,3,4,6,7,8",NA
"1185","sort_feedback","32","html-keyboard-response","197","2218844","0.0-6.0-9.0","1","2020-1-6 14:19:24","MOUSE",NA,NA,NA,NA,NA,NA,NA,NA,NA,NA,NA,NA,NA,NA
"19922","setup4",NA,"animation","198","2238767","0.0-6.0-10.0","1","2020-1-6 14:19:24","MOUSE",NA,NA,"[{""cat"":8,""src"":1,""loc"":6},{""cat"":8,""src"":19,""loc"":4},{""cat"":8,""src"":6,""loc"":1},{""cat"":9,""src"":13,""loc"":5},{""cat"":9,""src"":8,""loc"":7},{""cat"":9,""src"":12,""loc"":2},{""cat"":17,""src"":9,""loc"":3},{""cat"":17,""src"":2,""loc"":8},{""cat"":17,""src"":11,""loc"":0}]","4","1104,1102,1102,1102,1102,1101,1102,1103,1103,10001",NA,NA,NA,NA,NA,NA,NA,NA,NA
"581","flanker_instructions","39","html-keyboard-response","199","2239353","0.0-6.0-11.0","1","2020-1-6 14:19:24","MOUSE",NA,NA,NA,NA,NA,NA,NA,NA,NA,NA,NA,NA,NA,NA
"664","flanker_test","39","image-keyboard-response","200","2241020","0.0-6.0-12.0-0.0","1","2020-1-6 14:19:24","MOUSE",NA,NA,NA,NA,NA,"incongruent","right","TRUE",NA,NA,NA,NA,NA,NA
"477","flanker_test","37","image-keyboard-response","201","2242035","0.0-6.0-12.0-0.1","1","2020-1-6 14:19:24","MOUSE",NA,NA,NA,NA,NA,"congruent","left","TRUE",NA,NA,NA,NA,NA,NA
"498","flanker_test","37","image-keyboard-response","202","2243244","0.0-6.0-12.0-0.2","1","2020-1-6 14:19:24","MOUSE",NA,NA,NA,NA,NA,"incongruent","left","TRUE",NA,NA,NA,NA,NA,NA
"530","flanker_test","39","image-keyboard-response","203","2244476","0.0-6.0-12.0-0.3","1","2020-1-6 14:19:24","MOUSE",NA,NA,NA,NA,NA,"congruent","right","TRUE",NA,NA,NA,NA,NA,NA
"40104","sort_trial",NA,"free-sort","204","2285420","0.0-6.0-13.0","1","2020-1-6 14:19:24","MOUSE",NA,NA,NA,NA,NA,NA,NA,NA,"[{""cat"":8,""src"":1,""x"":57,""y"":0},{""cat"":8,""src"":19,""x"":9,""y"":86},{""cat"":8,""src"":6,""x"":10,""y"":126},{""cat"":9,""src"":13,""x"":62,""y"":483},{""cat"":9,""src"":8,""x"":19,""y"":268},{""cat"":9,""src"":12,""x"":76,""y"":313},{""cat"":17,""src"":9,""x"":0,""y"":432},{""cat"":17,""src"":2,""x"":81,""y"":194},{""cat"":17,""src"":11,""x"":9,""y"":378}]","[{""cat"":""9"",""src"":""8"",""x"":0,""y"":0},{""cat"":""9"",""src"":""12"",""x"":0,""y"":0},{""cat"":""8"",""src"":""1"",""x"":0,""y"":0},{""cat"":""8"",""src"":""19"",""x"":0,""y"":0},{""cat"":""8"",""src"":""6"",""x"":0,""y"":0},{""cat"":""17"",""src"":""2"",""x"":0,""y"":0},{""cat"":""17"",""src"":""11"",""x"":0,""y"":0},{""cat"":""17"",""src"":""9"",""x"":0,""y"":0},{""cat"":""9"",""src"":""13"",""x"":400,""y"":88},{""cat"":""9"",""src"":""13"",""x"":0,""y"":0}]","[{""cat"":9,""src"":8,""loc"":0},{""cat"":9,""src"":12,""loc"":2},{""cat"":8,""src"":1,""loc"":8},{""cat"":8,""src"":19,""loc"":5},{""cat"":8,""src"":6,""loc"":4},{""cat"":17,""src"":2,""loc"":3},{""cat"":17,""src"":11,""loc"":7},{""cat"":17,""src"":9,""loc"":6},{""cat"":9,""src"":13,""loc"":1}]","1","9,9,9,17,8,8,17,17,8,8,13,12,2,6,19,9,11,1,0,1,2,3,4,5,6,7,8,0,8,1,5,4,3,7,6,2",NA
"942","sort_feedback","32","html-keyboard-response","205","2286365","0.0-6.0-14.0","1","2020-1-6 14:19:24","MOUSE",NA,NA,NA,NA,NA,NA,NA,NA,NA,NA,NA,NA,NA,NA
"19924","setup2",NA,"animation","206","2306290","0.0-6.0-15.0","1","2020-1-6 14:19:24","MOUSE",NA,NA,"[{""cat"":25,""src"":16,""loc"":4},{""cat"":9,""src"":18,""loc"":5},{""cat"":18,""src"":3,""loc"":3},{""cat"":9,""src"":12,""loc"":0},{""cat"":18,""src"":16,""loc"":1},{""cat"":25,""src"":7,""loc"":2},{""cat"":9,""src"":8,""loc"":7},{""cat"":18,""src"":14,""loc"":8},{""cat"":25,""src"":15,""loc"":6}]","2","1104,1101,1101,1102,1101,1104,1103,1103,1103,10001",NA,NA,NA,NA,NA,NA,NA,NA,NA
"548","flanker_instructions","39","html-keyboard-response","207","2306843","0.0-6.0-16.0","1","2020-1-6 14:19:24","MOUSE",NA,NA,NA,NA,NA,NA,NA,NA,NA,NA,NA,NA,NA,NA
"459","flanker_test","39","image-keyboard-response","208","2308305","0.0-6.0-17.0-0.0","1","2020-1-6 14:19:24","MOUSE",NA,NA,NA,NA,NA,"congruent","right","TRUE",NA,NA,NA,NA,NA,NA
"596","flanker_test","37","image-keyboard-response","209","2309704","0.0-6.0-17.0-0.1","1","2020-1-6 14:19:24","MOUSE",NA,NA,NA,NA,NA,"incongruent","left","TRUE",NA,NA,NA,NA,NA,NA
"460","flanker_test","37","image-keyboard-response","210","2310690","0.0-6.0-17.0-0.2","1","2020-1-6 14:19:24","MOUSE",NA,NA,NA,NA,NA,"congruent","left","TRUE",NA,NA,NA,NA,NA,NA
"410","flanker_test","37","image-keyboard-response","211","2311418","0.0-6.0-17.0-0.3","1","2020-1-6 14:19:24","MOUSE",NA,NA,NA,NA,NA,"incongruent","right","FALSE",NA,NA,NA,NA,NA,NA
"26158","sort_trial",NA,"free-sort","212","2338754","0.0-6.0-18.0","1","2020-1-6 14:19:24","MOUSE",NA,NA,NA,NA,NA,NA,NA,NA,"[{""cat"":25,""src"":16,""x"":3,""y"":3},{""cat"":9,""src"":18,""x"":29,""y"":268},{""cat"":18,""src"":3,""x"":30,""y"":327},{""cat"":9,""src"":12,""x"":69,""y"":148},{""cat"":18,""src"":16,""x"":69,""y"":484},{""cat"":25,""src"":7,""x"":24,""y"":190},{""cat"":9,""src"":8,""x"":58,""y"":388},{""cat"":18,""src"":14,""x"":38,""y"":429},{""cat"":25,""src"":15,""x"":51,""y"":60}]","[{""cat"":""9"",""src"":""18"",""x"":0,""y"":0},{""cat"":""25"",""src"":""16"",""x"":0,""y"":0},{""cat"":""18"",""src"":""3"",""x"":0,""y"":0},{""cat"":""18"",""src"":""14"",""x"":0,""y"":0},{""cat"":""25"",""src"":""15"",""x"":0,""y"":0},{""cat"":""9"",""src"":""12"",""x"":0,""y"":0},{""cat"":""25"",""src"":""7"",""x"":0,""y"":0},{""cat"":""9"",""src"":""8"",""x"":0,""y"":0},{""cat"":""18"",""src"":""16"",""x"":0,""y"":0}]","[{""cat"":9,""src"":18,""loc"":5},{""cat"":25,""src"":16,""loc"":4},{""cat"":18,""src"":3,""loc"":3},{""cat"":18,""src"":14,""loc"":0},{""cat"":25,""src"":15,""loc"":1},{""cat"":9,""src"":12,""loc"":2},{""cat"":25,""src"":7,""loc"":6},{""cat"":9,""src"":8,""loc"":7},{""cat"":18,""src"":16,""loc"":8}]","4","18,25,9,18,25,9,25,9,18,14,15,12,3,16,18,7,8,16,0,1,2,3,4,5,6,7,8,3,4,5,2,1,0,6,7,8",NA
"1143","sort_feedback","32","html-keyboard-response","213","2339900","0.0-6.0-19.0","1","2020-1-6 14:19:24","MOUSE",NA,NA,NA,NA,NA,NA,NA,NA,NA,NA,NA,NA,NA,NA
"19919","setup3",NA,"animation","214","2359820","0.0-6.0-20.0","1","2020-1-6 14:19:24","MOUSE",NA,NA,"[{""cat"":7,""src"":1,""loc"":0},{""cat"":28,""src"":17,""loc"":5},{""cat"":26,""src"":19,""loc"":7},{""cat"":28,""src"":7,""loc"":3},{""cat"":26,""src"":5,""loc"":8},{""cat"":7,""src"":11,""loc"":2},{""cat"":28,""src"":12,""loc"":4},{""cat"":7,""src"":12,""loc"":1},{""cat"":26,""src"":0,""loc"":6}]","3","1104,1101,1103,1103,1102,1101,1101,1102,1101,10001",NA,NA,NA,NA,NA,NA,NA,NA,NA
"865","flanker_instructions","39","html-keyboard-response","215","2360690","0.0-6.0-21.0","1","2020-1-6 14:19:24","MOUSE",NA,NA,NA,NA,NA,NA,NA,NA,NA,NA,NA,NA,NA,NA
"556","flanker_test","37","image-keyboard-response","216","2362250","0.0-6.0-22.0-0.0","1","2020-1-6 14:19:24","MOUSE",NA,NA,NA,NA,NA,"congruent","left","TRUE",NA,NA,NA,NA,NA,NA
NA,"flanker_test",NA,"image-keyboard-response","217","2363461","0.0-6.0-22.0-0.1","1","2020-1-6 14:19:24","MOUSE",NA,NA,NA,NA,NA,"incongruent","right","FALSE",NA,NA,NA,NA,NA,NA
"500","flanker_test","39","image-keyboard-response","218","2364888","0.0-6.0-22.0-0.2","1","2020-1-6 14:19:24","MOUSE",NA,NA,NA,NA,NA,"congruent","right","TRUE",NA,NA,NA,NA,NA,NA
"630","flanker_test","37","image-keyboard-response","219","2366579","0.0-6.0-22.0-0.3","1","2020-1-6 14:19:24","MOUSE",NA,NA,NA,NA,NA,"incongruent","left","TRUE",NA,NA,NA,NA,NA,NA
"28260","sort_trial",NA,"free-sort","220","2395373","0.0-6.0-23.0","1","2020-1-6 14:19:24","MOUSE",NA,NA,NA,NA,NA,NA,NA,NA,"[{""cat"":7,""src"":1,""x"":7,""y"":381},{""cat"":28,""src"":17,""x"":37,""y"":200},{""cat"":26,""src"":19,""x"":81,""y"":447},{""cat"":28,""src"":7,""x"":53,""y"":241},{""cat"":26,""src"":5,""x"":21,""y"":2},{""cat"":7,""src"":11,""x"":26,""y"":484},{""cat"":28,""src"":12,""x"":4,""y"":143},{""cat"":7,""src"":12,""x"":76,""y"":67},{""cat"":26,""src"":0,""x"":83,""y"":315}]","[{""cat"":""7"",""src"":""12"",""x"":0,""y"":0},{""cat"":""7"",""src"":""1"",""x"":0,""y"":0},{""cat"":""26"",""src"":""19"",""x"":0,""y"":0},{""cat"":""7"",""src"":""11"",""x"":0,""y"":0},{""cat"":""26"",""src"":""5"",""x"":0,""y"":0},{""cat"":""28"",""src"":""12"",""x"":0,""y"":0},{""cat"":""28"",""src"":""17"",""x"":0,""y"":0},{""cat"":""28"",""src"":""7"",""x"":0,""y"":0},{""cat"":""26"",""src"":""0"",""x"":0,""y"":0}]","[{""cat"":7,""src"":12,""loc"":1},{""cat"":7,""src"":1,""loc"":0},{""cat"":26,""src"":19,""loc"":7},{""cat"":7,""src"":11,""loc"":2},{""cat"":26,""src"":5,""loc"":5},{""cat"":28,""src"":12,""loc"":4},{""cat"":28,""src"":17,""loc"":3},{""cat"":28,""src"":7,""loc"":6},{""cat"":26,""src"":0,""loc"":8}]","5","7,7,7,28,28,26,28,26,26,1,12,11,17,12,5,7,19,0,0,1,2,3,4,5,6,7,8,1,0,3,6,5,4,7,2,8",NA
"1129","sort_feedback","32","html-keyboard-response","221","2396504","0.0-6.0-24.0","1","2020-1-6 14:19:24","MOUSE",NA,NA,NA,NA,NA,NA,NA,NA,NA,NA,NA,NA,NA,NA
"19927","setup4",NA,"animation","222","2416432","0.0-6.0-25.0","1","2020-1-6 14:19:24","MOUSE",NA,NA,"[{""cat"":25,""src"":9,""loc"":5},{""cat"":25,""src"":14,""loc"":7},{""cat"":25,""src"":8,""loc"":2},{""cat"":33,""src"":18,""loc"":6},{""cat"":33,""src"":2,""loc"":4},{""cat"":33,""src"":13,""loc"":0},{""cat"":21,""src"":3,""loc"":1},{""cat"":21,""src"":17,""loc"":3},{""cat"":21,""src"":5,""loc"":8}]","4","1105,1101,1103,1102,1103,1104,1102,1103,1103,10001",NA,NA,NA,NA,NA,NA,NA,NA,NA
"589","flanker_instructions","39","html-keyboard-response","223","2417025","0.0-6.0-26.0","1","2020-1-6 14:19:24","MOUSE",NA,NA,NA,NA,NA,NA,NA,NA,NA,NA,NA,NA,NA,NA
"544","flanker_test","37","image-keyboard-response","224","2418571","0.0-6.0-27.0-0.0","1","2020-1-6 14:19:24","MOUSE",NA,NA,NA,NA,NA,"congruent","left","TRUE",NA,NA,NA,NA,NA,NA
"535","flanker_test","39","image-keyboard-response","225","2420157","0.0-6.0-27.0-0.1","1","2020-1-6 14:19:24","MOUSE",NA,NA,NA,NA,NA,"congruent","right","TRUE",NA,NA,NA,NA,NA,NA
"593","flanker_test","37","image-keyboard-response","226","2421383","0.0-6.0-27.0-0.2","1","2020-1-6 14:19:24","MOUSE",NA,NA,NA,NA,NA,"incongruent","left","TRUE",NA,NA,NA,NA,NA,NA
"610","flanker_test","39","image-keyboard-response","227","2422295","0.0-6.0-27.0-0.3","1","2020-1-6 14:19:24","MOUSE",NA,NA,NA,NA,NA,"incongruent","right","TRUE",NA,NA,NA,NA,NA,NA
"23235","sort_trial",NA,"free-sort","228","2446573","0.0-6.0-28.0","1","2020-1-6 14:19:24","MOUSE",NA,NA,NA,NA,NA,NA,NA,NA,"[{""cat"":25,""src"":9,""x"":21,""y"":262},{""cat"":25,""src"":14,""x"":25,""y"":480},{""cat"":25,""src"":8,""x"":8,""y"":424},{""cat"":33,""src"":18,""x"":65,""y"":132},{""cat"":33,""src"":2,""x"":60,""y"":307},{""cat"":33,""src"":13,""x"":13,""y"":201},{""cat"":21,""src"":3,""x"":64,""y"":14},{""cat"":21,""src"":17,""x"":77,""y"":372},{""cat"":21,""src"":5,""x"":42,""y"":68}]","[{""cat"":""25"",""src"":""9"",""x"":0,""y"":0},{""cat"":""21"",""src"":""17"",""x"":0,""y"":0},{""cat"":""33"",""src"":""2"",""x"":0,""y"":0},{""cat"":""21"",""src"":""3"",""x"":0,""y"":0},{""cat"":""21"",""src"":""5"",""x"":0,""y"":0},{""cat"":""33"",""src"":""18"",""x"":0,""y"":0},{""cat"":""33"",""src"":""13"",""x"":0,""y"":0},{""cat"":""25"",""src"":""8"",""x"":0,""y"":0},{""cat"":""25"",""src"":""14"",""x"":0,""y"":0}]","[{""cat"":25,""src"":9,""loc"":5},{""cat"":21,""src"":17,""loc"":3},{""cat"":33,""src"":2,""loc"":4},{""cat"":21,""src"":3,""loc"":1},{""cat"":21,""src"":5,""loc"":0},{""cat"":33,""src"":18,""loc"":2},{""cat"":33,""src"":13,""loc"":6},{""cat"":25,""src"":8,""loc"":8},{""cat"":25,""src"":14,""loc"":7}]","5","21,21,33,21,33,25,33,25,25,5,3,18,17,2,9,13,14,8,0,1,2,3,4,5,6,7,8,4,3,5,1,2,0,6,8,7",NA
"1583","sort_feedback","32","html-keyboard-response","229","2448159","0.0-6.0-29.0","1","2020-1-6 14:19:24","MOUSE",NA,NA,NA,NA,NA,NA,NA,NA,NA,NA,NA,NA,NA,NA
"19924","setup3",NA,"animation","230","2468083","0.0-6.0-30.0","1","2020-1-6 14:19:24","MOUSE",NA,NA,"[{""cat"":18,""src"":8,""loc"":2},{""cat"":33,""src"":5,""loc"":6},{""cat"":11,""src"":15,""loc"":4},{""cat"":18,""src"":11,""loc"":1},{""cat"":33,""src"":7,""loc"":8},{""cat"":11,""src"":6,""loc"":3},{""cat"":18,""src"":6,""loc"":0},{""cat"":11,""src"":7,""loc"":5},{""cat"":33,""src"":0,""loc"":7}]","3","1104,1102,1101,1102,1103,1102,1103,1103,1103,10001",NA,NA,NA,NA,NA,NA,NA,NA,NA
"809","flanker_instructions","39","html-keyboard-response","231","2468896","0.0-6.0-31.0","1","2020-1-6 14:19:24","MOUSE",NA,NA,NA,NA,NA,NA,NA,NA,NA,NA,NA,NA,NA,NA
"619","flanker_test","39","image-keyboard-response","232","2470518","0.0-6.0-32.0-0.0","1","2020-1-6 14:19:24","MOUSE",NA,NA,NA,NA,NA,"incongruent","right","TRUE",NA,NA,NA,NA,NA,NA
"528","flanker_test","37","image-keyboard-response","233","2472000","0.0-6.0-32.0-0.1","1","2020-1-6 14:19:24","MOUSE",NA,NA,NA,NA,NA,"incongruent","left","TRUE",NA,NA,NA,NA,NA,NA
"434","flanker_test","39","image-keyboard-response","234","2473208","0.0-6.0-32.0-0.2","1","2020-1-6 14:19:24","MOUSE",NA,NA,NA,NA,NA,"congruent","right","TRUE",NA,NA,NA,NA,NA,NA
"490","flanker_test","37","image-keyboard-response","235","2474090","0.0-6.0-32.0-0.3","1","2020-1-6 14:19:24","MOUSE",NA,NA,NA,NA,NA,"congruent","left","TRUE",NA,NA,NA,NA,NA,NA
"28382","sort_trial",NA,"free-sort","236","2503111","0.0-6.0-33.0","1","2020-1-6 14:19:24","MOUSE",NA,NA,NA,NA,NA,NA,NA,NA,"[{""cat"":18,""src"":8,""x"":35,""y"":83},{""cat"":33,""src"":5,""x"":10,""y"":371},{""cat"":11,""src"":15,""x"":28,""y"":323},{""cat"":18,""src"":11,""x"":63,""y"":251},{""cat"":33,""src"":7,""x"":3,""y"":447},{""cat"":11,""src"":6,""x"":55,""y"":11},{""cat"":18,""src"":6,""x"":31,""y"":202},{""cat"":11,""src"":7,""x"":45,""y"":484},{""cat"":33,""src"":0,""x"":26,""y"":127}]","[{""cat"":""18"",""src"":""11"",""x"":0,""y"":0},{""cat"":""18"",""src"":""6"",""x"":0,""y"":0},{""cat"":""18"",""src"":""8"",""x"":0,""y"":0},{""cat"":""11"",""src"":""15"",""x"":0,""y"":0},{""cat"":""11"",""src"":""6"",""x"":0,""y"":0},{""cat"":""11"",""src"":""7"",""x"":0,""y"":0},{""cat"":""33"",""src"":""0"",""x"":0,""y"":0},{""cat"":""33"",""src"":""5"",""x"":0,""y"":0},{""cat"":""33"",""src"":""7"",""x"":0,""y"":0}]","[{""cat"":18,""src"":11,""loc"":1},{""cat"":18,""src"":6,""loc"":0},{""cat"":18,""src"":8,""loc"":2},{""cat"":11,""src"":15,""loc"":5},{""cat"":11,""src"":6,""loc"":4},{""cat"":11,""src"":7,""loc"":3},{""cat"":33,""src"":0,""loc"":6},{""cat"":33,""src"":5,""loc"":7},{""cat"":33,""src"":7,""loc"":8}]","4","18,18,18,11,11,11,33,33,33,6,11,8,7,6,15,0,5,7,0,1,2,3,4,5,6,7,8,1,0,2,5,4,3,6,7,8",NA
"854","sort_feedback","32","html-keyboard-response","237","2503968","0.0-6.0-34.0","1","2020-1-6 14:19:24","MOUSE",NA,NA,NA,NA,NA,NA,NA,NA,NA,NA,NA,NA,NA,NA
"19924","setup2",NA,"animation","238","2523894","0.0-6.0-35.0","1","2020-1-6 14:19:24","MOUSE",NA,NA,"[{""cat"":15,""src"":12,""loc"":6},{""cat"":33,""src"":10,""loc"":7},{""cat"":10,""src"":12,""loc"":8},{""cat"":15,""src"":6,""loc"":4},{""cat"":10,""src"":19,""loc"":3},{""cat"":33,""src"":17,""loc"":5},{""cat"":15,""src"":3,""loc"":0},{""cat"":10,""src"":11,""loc"":2},{""cat"":33,""src"":18,""loc"":1}]","2","1104,1101,1102,1102,1104,1102,1103,1102,1103,10001",NA,NA,NA,NA,NA,NA,NA,NA,NA
"617","flanker_instructions","39","html-keyboard-response","239","2524515","0.0-6.0-36.0","1","2020-1-6 14:19:24","MOUSE",NA,NA,NA,NA,NA,NA,NA,NA,NA,NA,NA,NA,NA,NA
"781","flanker_test","37","image-keyboard-response","240","2526301","0.0-6.0-37.0-0.0","1","2020-1-6 14:19:24","MOUSE",NA,NA,NA,NA,NA,"incongruent","left","TRUE",NA,NA,NA,NA,NA,NA
"539","flanker_test","39","image-keyboard-response","241","2527580","0.0-6.0-37.0-0.1","1","2020-1-6 14:19:24","MOUSE",NA,NA,NA,NA,NA,"incongruent","right","TRUE",NA,NA,NA,NA,NA,NA
"446","flanker_test","37","image-keyboard-response","242","2528611","0.0-6.0-37.0-0.2","1","2020-1-6 14:19:24","MOUSE",NA,NA,NA,NA,NA,"congruent","left","TRUE",NA,NA,NA,NA,NA,NA
"513","flanker_test","39","image-keyboard-response","243","2530261","0.0-6.0-37.0-0.3","1","2020-1-6 14:19:24","MOUSE",NA,NA,NA,NA,NA,"congruent","right","TRUE",NA,NA,NA,NA,NA,NA
"30961","sort_trial",NA,"free-sort","244","2561996","0.0-6.0-38.0","1","2020-1-6 14:19:24","MOUSE",NA,NA,NA,NA,NA,NA,NA,NA,"[{""cat"":15,""src"":12,""x"":55,""y"":319},{""cat"":33,""src"":10,""x"":12,""y"":124},{""cat"":10,""src"":12,""x"":39,""y"":201},{""cat"":15,""src"":6,""x"":69,""y"":420},{""cat"":10,""src"":19,""x"":26,""y"":376},{""cat"":33,""src"":17,""x"":27,""y"":5},{""cat"":15,""src"":3,""x"":64,""y"":251},{""cat"":10,""src"":11,""x"":65,""y"":79},{""cat"":33,""src"":18,""x"":3,""y"":489}]","[{""cat"":""33"",""src"":""17"",""x"":0,""y"":0},{""cat"":""15"",""src"":""6"",""x"":0,""y"":0},{""cat"":""10"",""src"":""19"",""x"":0,""y"":0},{""cat"":""15"",""src"":""3"",""x"":0,""y"":0},{""cat"":""10"",""src"":""11"",""x"":0,""y"":0},{""cat"":""33"",""src"":""10"",""x"":376,""y"":209},{""cat"":""33"",""src"":""10"",""x"":0,""y"":0},{""cat"":""15"",""src"":""12"",""x"":266,""y"":404},{""cat"":""15"",""src"":""12"",""x"":0,""y"":0},{""cat"":""10"",""src"":""12"",""x"":0,""y"":0},{""cat"":""33"",""src"":""18"",""x"":0,""y"":0}]","[{""cat"":33,""src"":17,""loc"":5},{""cat"":15,""src"":6,""loc"":4},{""cat"":10,""src"":19,""loc"":3},{""cat"":15,""src"":3,""loc"":0},{""cat"":10,""src"":11,""loc"":1},{""cat"":33,""src"":10,""loc"":2},{""cat"":15,""src"":12,""loc"":7},{""cat"":10,""src"":12,""loc"":6},{""cat"":33,""src"":18,""loc"":8}]","4","15,10,33,10,15,33,10,15,33,3,11,10,19,6,17,12,12,18,0,1,2,3,4,5,6,7,8,3,4,5,2,1,0,7,6,8",NA
"1009","sort_feedback","32","html-keyboard-response","245","2563008","0.0-6.0-39.0","1","2020-1-6 14:19:24","MOUSE",NA,NA,NA,NA,NA,NA,NA,NA,NA,NA,NA,NA,NA,NA
"19928","setup5",NA,"animation","246","2582938","0.0-6.0-40.0","1","2020-1-6 14:19:24","MOUSE",NA,NA,"[{""cat"":12,""src"":9,""loc"":3},{""cat"":11,""src"":3,""loc"":1},{""cat"":3,""src"":14,""loc"":7},{""cat"":3,""src"":11,""loc"":0},{""cat"":12,""src"":12,""loc"":8},{""cat"":11,""src"":19,""loc"":5},{""cat"":11,""src"":11,""loc"":6},{""cat"":3,""src"":1,""loc"":4},{""cat"":12,""src"":3,""loc"":2}]","5","1106,1102,1102,1103,1103,1102,1102,1103,1103,10002",NA,NA,NA,NA,NA,NA,NA,NA,NA
"707","flanker_instructions","39","html-keyboard-response","247","2583649","0.0-6.0-41.0","1","2020-1-6 14:19:24","MOUSE",NA,NA,NA,NA,NA,NA,NA,NA,NA,NA,NA,NA,NA,NA
"413","flanker_test","39","image-keyboard-response","248","2585066","0.0-6.0-42.0-0.0","1","2020-1-6 14:19:24","MOUSE",NA,NA,NA,NA,NA,"incongruent","left","FALSE",NA,NA,NA,NA,NA,NA
"512","flanker_test","39","image-keyboard-response","249","2586254","0.0-6.0-42.0-0.1","1","2020-1-6 14:19:24","MOUSE",NA,NA,NA,NA,NA,"congruent","right","TRUE",NA,NA,NA,NA,NA,NA
"420","flanker_test","37","image-keyboard-response","250","2587653","0.0-6.0-42.0-0.2","1","2020-1-6 14:19:24","MOUSE",NA,NA,NA,NA,NA,"congruent","left","TRUE",NA,NA,NA,NA,NA,NA
"743","flanker_test","39","image-keyboard-response","251","2589550","0.0-6.0-42.0-0.3","1","2020-1-6 14:19:24","MOUSE",NA,NA,NA,NA,NA,"incongruent","right","TRUE",NA,NA,NA,NA,NA,NA
"26930","sort_trial",NA,"free-sort","252","2617416","0.0-6.0-43.0","1","2020-1-6 14:19:24","MOUSE",NA,NA,NA,NA,NA,NA,NA,NA,"[{""cat"":12,""src"":9,""x"":23,""y"":423},{""cat"":11,""src"":3,""x"":80,""y"":64},{""cat"":3,""src"":14,""x"":41,""y"":192},{""cat"":3,""src"":11,""x"":14,""y"":252},{""cat"":12,""src"":12,""x"":65,""y"":134},{""cat"":11,""src"":19,""x"":69,""y"":387},{""cat"":11,""src"":11,""x"":9,""y"":307},{""cat"":3,""src"":1,""x"":13,""y"":503},{""cat"":12,""src"":3,""x"":10,""y"":16}]","[{""cat"":""11"",""src"":""19"",""x"":0,""y"":0},{""cat"":""3"",""src"":""1"",""x"":0,""y"":0},{""cat"":""12"",""src"":""9"",""x"":0,""y"":0},{""cat"":""12"",""src"":""3"",""x"":0,""y"":0},{""cat"":""11"",""src"":""3"",""x"":0,""y"":0},{""cat"":""12"",""src"":""12"",""x"":0,""y"":0},{""cat"":""3"",""src"":""14"",""x"":0,""y"":0},{""cat"":""3"",""src"":""11"",""x"":0,""y"":0},{""cat"":""11"",""src"":""11"",""x"":0,""y"":0}]","[{""cat"":11,""src"":19,""loc"":5},{""cat"":3,""src"":1,""loc"":4},{""cat"":12,""src"":9,""loc"":3},{""cat"":12,""src"":3,""loc"":1},{""cat"":11,""src"":3,""loc"":0},{""cat"":12,""src"":12,""loc"":2},{""cat"":3,""src"":14,""loc"":6},{""cat"":3,""src"":11,""loc"":7},{""cat"":11,""src"":11,""loc"":8}]","3","11,12,12,12,3,11,3,3,11,3,3,12,9,1,19,14,11,11,0,1,2,3,4,5,6,7,8,4,3,5,2,1,0,6,7,8",NA
"1416","sort_feedback","32","html-keyboard-response","253","2618836","0.0-6.0-44.0","1","2020-1-6 14:19:24","MOUSE",NA,NA,NA,NA,NA,NA,NA,NA,NA,NA,NA,NA,NA,NA
"19923","setup1",NA,"animation","254","2638759","0.0-6.0-45.0","1","2020-1-6 14:19:24","MOUSE",NA,NA,"[{""cat"":29,""src"":4,""loc"":7},{""cat"":29,""src"":12,""loc"":8},{""cat"":29,""src"":2,""loc"":6},{""cat"":27,""src"":2,""loc"":4},{""cat"":27,""src"":19,""loc"":3},{""cat"":27,""src"":10,""loc"":5},{""cat"":22,""src"":19,""loc"":1},{""cat"":22,""src"":9,""loc"":0},{""cat"":22,""src"":11,""loc"":2}]","1","1104,1101,1103,1102,1103,1102,1102,1102,1103,10001",NA,NA,NA,NA,NA,NA,NA,NA,NA
"451","flanker_instructions","39","html-keyboard-response","255","2639214","0.0-6.0-46.0","1","2020-1-6 14:19:24","MOUSE",NA,NA,NA,NA,NA,NA,NA,NA,NA,NA,NA,NA,NA,NA
"421","flanker_test","37","image-keyboard-response","256","2640639","0.0-6.0-47.0-0.0","1","2020-1-6 14:19:24","MOUSE",NA,NA,NA,NA,NA,"congruent","left","TRUE",NA,NA,NA,NA,NA,NA
"561","flanker_test","39","image-keyboard-response","257","2641950","0.0-6.0-47.0-0.1","1","2020-1-6 14:19:24","MOUSE",NA,NA,NA,NA,NA,"congruent","right","TRUE",NA,NA,NA,NA,NA,NA
"449","flanker_test","37","image-keyboard-response","258","2643109","0.0-6.0-47.0-0.2","1","2020-1-6 14:19:24","MOUSE",NA,NA,NA,NA,NA,"incongruent","left","TRUE",NA,NA,NA,NA,NA,NA
"664","flanker_test","39","image-keyboard-response","259","2644077","0.0-6.0-47.0-0.3","1","2020-1-6 14:19:24","MOUSE",NA,NA,NA,NA,NA,"incongruent","right","TRUE",NA,NA,NA,NA,NA,NA
"32142","sort_trial",NA,"free-sort","260","2676991","0.0-6.0-48.0","1","2020-1-6 14:19:24","MOUSE",NA,NA,NA,NA,NA,NA,NA,NA,"[{""cat"":29,""src"":4,""x"":51,""y"":487},{""cat"":29,""src"":12,""x"":45,""y"":189},{""cat"":29,""src"":2,""x"":38,""y"":244},{""cat"":27,""src"":2,""x"":26,""y"":445},{""cat"":27,""src"":19,""x"":83,""y"":126},{""cat"":27,""src"":10,""x"":60,""y"":310},{""cat"":22,""src"":19,""x"":44,""y"":376},{""cat"":22,""src"":9,""x"":62,""y"":83},{""cat"":22,""src"":11,""x"":41,""y"":12}]","[{""cat"":""29"",""src"":""4"",""x"":0,""y"":0},{""cat"":""29"",""src"":""2"",""x"":0,""y"":0},{""cat"":""29"",""src"":""12"",""x"":0,""y"":0},{""cat"":""27"",""src"":""10"",""x"":655,""y"":121},{""cat"":""27"",""src"":""10"",""x"":0,""y"":0},{""cat"":""22"",""src"":""19"",""x"":0,""y"":0},{""cat"":""27"",""src"":""2"",""x"":0,""y"":0},{""cat"":""22"",""src"":""11"",""x"":0,""y"":0},{""cat"":""22"",""src"":""9"",""x"":0,""y"":0},{""cat"":""27"",""src"":""19"",""x"":0,""y"":0}]","[{""cat"":29,""src"":4,""loc"":7},{""cat"":29,""src"":2,""loc"":6},{""cat"":29,""src"":12,""loc"":8},{""cat"":27,""src"":10,""loc"":5},{""cat"":22,""src"":19,""loc"":4},{""cat"":27,""src"":2,""loc"":3},{""cat"":22,""src"":11,""loc"":1},{""cat"":22,""src"":9,""loc"":0},{""cat"":27,""src"":19,""loc"":2}]","5","22,22,27,27,22,27,29,29,29,9,11,19,2,19,10,2,4,12,0,1,2,3,4,5,6,7,8,7,6,8,5,4,3,1,0,2",NA
"1423","sort_feedback","32","html-keyboard-response","261","2678418","0.0-6.0-49.0","1","2020-1-6 14:19:24","MOUSE",NA,NA,NA,NA,NA,NA,NA,NA,NA,NA,NA,NA,NA,NA
"2359","demographics",NA,"html-button-response","262","2680781","0.0-7.0-0.0","1","2020-1-6 14:19:24","MOUSE","0",NA,NA,NA,NA,NA,NA,NA,NA,NA,NA,NA,NA,NA
"4964","workerID",NA,"survey-text","263","2685749","0.0-7.0-1.0","1","2020-1-6 14:19:24","MOUSE",NA,NA,NA,NA,NA,NA,NA,NA,NA,NA,NA,NA,NA,"{""Q0"":""A5NHP0N1XC09K""}"
"6586","attn_check",NA,"survey-multi-choice","264","2692352","0.0-7.0-2.0","1","2020-1-6 14:19:24","MOUSE",NA,NA,NA,NA,NA,NA,NA,NA,NA,NA,NA,NA,NA,"{""Q0"":""MOUSE""}"
"4112","age",NA,"survey-text","265","2696473","0.0-7.0-3.0","1","2020-1-6 14:19:24","MOUSE",NA,NA,NA,NA,NA,NA,NA,NA,NA,NA,NA,NA,NA,"{""Q0"":""54""}"
"2776","gender",NA,"survey-multi-choice","266","2699254","0.0-7.0-4.0","1","2020-1-6 14:19:24","MOUSE",NA,NA,NA,NA,NA,NA,NA,NA,NA,NA,NA,NA,NA,"{""Q0"":""Male""}"
"2164","ethnic",NA,"survey-multi-choice","267","2701422","0.0-7.0-5.0","1","2020-1-6 14:19:24","MOUSE",NA,NA,NA,NA,NA,NA,NA,NA,NA,NA,NA,NA,NA,"{""Q0"":""Not Hispanic or Latino""}"
"2997","race",NA,"survey-multi-select","268","2704430","0.0-7.0-6.0","1","2020-1-6 14:19:24","MOUSE",NA,NA,NA,NA,NA,NA,NA,NA,NA,NA,NA,NA,NA,"{""Q0"":[""White""]}"
"2035","english",NA,"survey-multi-choice","269","2706472","0.0-7.0-7.0","1","2020-1-6 14:19:24","MOUSE",NA,NA,NA,NA,NA,NA,NA,NA,NA,NA,NA,NA,NA,"{""Q0"":""Yes""}"
"3919","understand",NA,"survey-multi-choice","270","2710396","0.0-7.0-8.0","1","2020-1-6 14:19:24","MOUSE",NA,NA,NA,NA,NA,NA,NA,NA,NA,NA,NA,NA,NA,"{""Q0"":""No""}"
"19699","strategies",NA,"survey-text","271","2730099","0.0-7.0-9.0","1","2020-1-6 14:19:24","MOUSE",NA,NA,NA,NA,NA,NA,NA,NA,NA,NA,NA,NA,NA,"{""Q0"":""tried to rtecall some""}"
"2312","comments",NA,"survey-text","272","2732415","0.0-7.0-10.0","1","2020-1-6 14:19:24","MOUSE",NA,NA,NA,NA,NA,NA,NA,NA,NA,NA,NA,NA,NA,"{""Q0"":""""}"
"3107","study_end",NA,"html-button-response","273","2735524","0.0-8.0","1","2020-1-6 14:19:24","MOUSE","0",NA,NA,NA,NA,NA,NA,NA,NA,NA,NA,NA,NA,NA
