"rt","stimulus","key_press","trial_type","trial_index","time_elapsed","internal_node_id","session","startTime","attn_word","button_pressed","view_history","animation_sequence","condition","time_sequence","stim_type","direction","correct","init_locations","moves","final_locations","sort_correct","finalLocations","responses"
"9960","welcome","74","html-keyboard-response","0","9980","0.0-0.0","1","2020-1-6 21:11:2","OTTER",NA,NA,NA,NA,NA,NA,NA,NA,NA,NA,NA,NA,NA,NA
"104128","consent",NA,"html-button-response","1","114118","0.0-1.0","1","2020-1-6 21:11:2","OTTER","0",NA,NA,NA,NA,NA,NA,NA,NA,NA,NA,NA,NA,NA
"99849","instructions",NA,"instructions","2","213971","0.0-2.0","1","2020-1-6 21:11:2","OTTER",NA,"[{""page_index"":0,""viewing_time"":66487},{""page_index"":1,""viewing_time"":2095},{""page_index"":2,""viewing_time"":6059},{""page_index"":3,""viewing_time"":9088},{""page_index"":4,""viewing_time"":2535},{""page_index"":5,""viewing_time"":6862},{""page_index"":6,""viewing_time"":6722}]",NA,NA,NA,NA,NA,NA,NA,NA,NA,NA,NA,NA
"19971","setup5",NA,"animation","3","233946","0.0-3.0-0.0","1","2020-1-6 21:11:2","OTTER",NA,NA,"[{""cat"":20,""src"":13,""loc"":6},{""cat"":10,""src"":1,""loc"":5},{""cat"":7,""src"":0,""loc"":1},{""cat"":20,""src"":1,""loc"":2},{""cat"":7,""src"":12,""loc"":4},{""cat"":10,""src"":8,""loc"":7},{""cat"":10,""src"":4,""loc"":0},{""cat"":20,""src"":9,""loc"":3},{""cat"":7,""src"":5,""loc"":8}]","5","1113,1107,1105,1105,1108,1103,1107,1107,1110,10005",NA,NA,NA,NA,NA,NA,NA,NA,NA
"12618","flanker_instructions","39","html-keyboard-response","4","246578","0.0-3.0-1.0","1","2020-1-6 21:11:2","OTTER",NA,NA,NA,NA,NA,NA,NA,NA,NA,NA,NA,NA,NA,NA
"561","flanker_test","39","image-keyboard-response","5","248159","0.0-3.0-2.0-0.0","1","2020-1-6 21:11:2","OTTER",NA,NA,NA,NA,NA,"congruent","right","TRUE",NA,NA,NA,NA,NA,NA
"529","flanker_test","37","image-keyboard-response","6","249206","0.0-3.0-2.0-0.1","1","2020-1-6 21:11:2","OTTER",NA,NA,NA,NA,NA,"incongruent","left","TRUE",NA,NA,NA,NA,NA,NA
"606","flanker_test","39","image-keyboard-response","7","250942","0.0-3.0-2.0-0.2","1","2020-1-6 21:11:2","OTTER",NA,NA,NA,NA,NA,"incongruent","right","TRUE",NA,NA,NA,NA,NA,NA
"565","flanker_test","37","image-keyboard-response","8","252026","0.0-3.0-2.0-0.3","1","2020-1-6 21:11:2","OTTER",NA,NA,NA,NA,NA,"congruent","left","TRUE",NA,NA,NA,NA,NA,NA
"39266","sort_trial",NA,"free-sort","9","291825","0.0-3.0-3.0","1","2020-1-6 21:11:2","OTTER",NA,NA,NA,NA,NA,NA,NA,NA,"[{""cat"":20,""src"":13,""x"":45,""y"":182},{""cat"":10,""src"":1,""x"":59,""y"":243},{""cat"":7,""src"":0,""x"":29,""y"":497},{""cat"":20,""src"":1,""x"":24,""y"":28},{""cat"":7,""src"":12,""x"":68,""y"":368},{""cat"":10,""src"":8,""x"":32,""y"":60},{""cat"":10,""src"":4,""x"":46,""y"":125},{""cat"":20,""src"":9,""x"":22,""y"":423},{""cat"":7,""src"":5,""x"":65,""y"":328}]","[{""cat"":""10"",""src"":""8"",""x"":0,""y"":0},{""cat"":""20"",""src"":""13"",""x"":0,""y"":0},{""cat"":""7"",""src"":""5"",""x"":0,""y"":0},{""cat"":""7"",""src"":""12"",""x"":0,""y"":0},{""cat"":""10"",""src"":""4"",""x"":0,""y"":0},{""cat"":""20"",""src"":""9"",""x"":0,""y"":0},{""cat"":""20"",""src"":""1"",""x"":0,""y"":0},{""cat"":""10"",""src"":""1"",""x"":0,""y"":0},{""cat"":""7"",""src"":""0"",""x"":0,""y"":0}]","[{""cat"":10,""src"":8,""loc"":7},{""cat"":20,""src"":13,""loc"":6},{""cat"":7,""src"":5,""loc"":8},{""cat"":7,""src"":12,""loc"":3},{""cat"":10,""src"":4,""loc"":0},{""cat"":20,""src"":9,""loc"":4},{""cat"":20,""src"":1,""loc"":1},{""cat"":10,""src"":1,""loc"":2},{""cat"":7,""src"":0,""loc"":5}]","4","10,20,10,7,20,7,20,10,7,4,1,1,12,9,0,13,8,5,0,1,2,3,4,5,6,7,8,4,6,7,3,5,8,1,0,2",NA
"2881","sort_feedback","32","html-keyboard-response","10","294715","0.0-3.0-4.0","1","2020-1-6 21:11:2","OTTER",NA,NA,NA,NA,NA,NA,NA,NA,NA,NA,NA,NA,NA,NA
"19978","setup5",NA,"animation","11","314699","0.0-3.0-5.0","1","2020-1-6 21:11:2","OTTER",NA,NA,"[{""cat"":24,""src"":2,""loc"":1},{""cat"":29,""src"":15,""loc"":7},{""cat"":3,""src"":2,""loc"":3},{""cat"":24,""src"":7,""loc"":8},{""cat"":29,""src"":0,""loc"":4},{""cat"":3,""src"":8,""loc"":2},{""cat"":24,""src"":14,""loc"":5},{""cat"":29,""src"":1,""loc"":0},{""cat"":3,""src"":0,""loc"":6}]","5","1115,1105,1106,1105,1109,1107,1104,1114,1107,10006",NA,NA,NA,NA,NA,NA,NA,NA,NA
"2292","flanker_instructions","39","html-keyboard-response","12","316999","0.0-3.0-6.0","1","2020-1-6 21:11:2","OTTER",NA,NA,NA,NA,NA,NA,NA,NA,NA,NA,NA,NA,NA,NA
"571","flanker_test","39","image-keyboard-response","13","318578","0.0-3.0-7.0-0.0","1","2020-1-6 21:11:2","OTTER",NA,NA,NA,NA,NA,"incongruent","right","TRUE",NA,NA,NA,NA,NA,NA
"462","flanker_test","37","image-keyboard-response","14","320229","0.0-3.0-7.0-0.1","1","2020-1-6 21:11:2","OTTER",NA,NA,NA,NA,NA,"congruent","left","TRUE",NA,NA,NA,NA,NA,NA
"521","flanker_test","37","image-keyboard-response","15","321394","0.0-3.0-7.0-0.2","1","2020-1-6 21:11:2","OTTER",NA,NA,NA,NA,NA,"incongruent","left","TRUE",NA,NA,NA,NA,NA,NA
"437","flanker_test","39","image-keyboard-response","16","322175","0.0-3.0-7.0-0.3","1","2020-1-6 21:11:2","OTTER",NA,NA,NA,NA,NA,"congruent","right","TRUE",NA,NA,NA,NA,NA,NA
"35556","sort_trial",NA,"free-sort","17","358041","0.0-3.0-8.0","1","2020-1-6 21:11:2","OTTER",NA,NA,NA,NA,NA,NA,NA,NA,"[{""cat"":24,""src"":2,""x"":37,""y"":4},{""cat"":29,""src"":15,""x"":13,""y"":76},{""cat"":3,""src"":2,""x"":65,""y"":327},{""cat"":24,""src"":7,""x"":57,""y"":505},{""cat"":29,""src"":0,""x"":8,""y"":148},{""cat"":3,""src"":8,""x"":38,""y"":241},{""cat"":24,""src"":14,""x"":49,""y"":197},{""cat"":29,""src"":1,""x"":65,""y"":419},{""cat"":3,""src"":0,""x"":75,""y"":372}]","[{""cat"":""24"",""src"":""2"",""x"":0,""y"":0},{""cat"":""3"",""src"":""0"",""x"":0,""y"":0},{""cat"":""24"",""src"":""7"",""x"":0,""y"":0},{""cat"":""24"",""src"":""14"",""x"":0,""y"":0},{""cat"":""29"",""src"":""15"",""x"":0,""y"":0},{""cat"":""3"",""src"":""2"",""x"":0,""y"":0},{""cat"":""29"",""src"":""0"",""x"":0,""y"":0},{""cat"":""3"",""src"":""8"",""x"":38,""y"":241},{""cat"":""29"",""src"":""1"",""x"":0,""y"":0},{""cat"":""3"",""src"":""8"",""x"":0,""y"":0}]","[{""cat"":24,""src"":2,""loc"":6},{""cat"":3,""src"":0,""loc"":7},{""cat"":24,""src"":7,""loc"":8},{""cat"":24,""src"":14,""loc"":5},{""cat"":29,""src"":15,""loc"":4},{""cat"":3,""src"":2,""loc"":0},{""cat"":29,""src"":0,""loc"":2},{""cat"":29,""src"":1,""loc"":1},{""cat"":3,""src"":8,""loc"":3}]","2","3,29,29,3,29,24,24,3,24,2,1,0,8,15,14,2,0,7,0,1,2,3,4,5,6,7,8,5,7,6,8,4,3,0,1,2",NA
"1841","sort_feedback","77","html-keyboard-response","18","359891","0.0-3.0-9.0","1","2020-1-6 21:11:2","OTTER",NA,NA,NA,NA,NA,NA,NA,NA,NA,NA,NA,NA,NA,NA
"3547","finalInstructions",NA,"html-button-response","19","363441","0.0-4.0-0.0","1","2020-1-6 21:11:2","OTTER","0",NA,NA,NA,NA,NA,NA,NA,NA,NA,NA,NA,NA,NA
"19959","setup4",NA,"animation","20","383402","0.0-4.0-1.0","1","2020-1-6 21:11:2","OTTER",NA,NA,"[{""cat"":19,""src"":2,""loc"":0},{""cat"":19,""src"":8,""loc"":7},{""cat"":19,""src"":0,""loc"":5},{""cat"":25,""src"":13,""loc"":3},{""cat"":25,""src"":17,""loc"":2},{""cat"":25,""src"":4,""loc"":8},{""cat"":15,""src"":18,""loc"":1},{""cat"":15,""src"":16,""loc"":6},{""cat"":15,""src"":4,""loc"":4}]","4","1107,1103,1104,1104,1106,1107,1109,1106,1109,10003",NA,NA,NA,NA,NA,NA,NA,NA,NA
"1919","flanker_instructions","39","html-keyboard-response","21","385331","0.0-4.0-2.0","1","2020-1-6 21:11:2","OTTER",NA,NA,NA,NA,NA,NA,NA,NA,NA,NA,NA,NA,NA,NA
"491","flanker_test","39","image-keyboard-response","22","386840","0.0-4.0-3.0-0.0","1","2020-1-6 21:11:2","OTTER",NA,NA,NA,NA,NA,"congruent","right","TRUE",NA,NA,NA,NA,NA,NA
"453","flanker_test","37","image-keyboard-response","23","388439","0.0-4.0-3.0-0.1","1","2020-1-6 21:11:2","OTTER",NA,NA,NA,NA,NA,"incongruent","right","FALSE",NA,NA,NA,NA,NA,NA
"549","flanker_test","37","image-keyboard-response","24","389342","0.0-4.0-3.0-0.2","1","2020-1-6 21:11:2","OTTER",NA,NA,NA,NA,NA,"incongruent","left","TRUE",NA,NA,NA,NA,NA,NA
"583","flanker_test","37","image-keyboard-response","25","390866","0.0-4.0-3.0-0.3","1","2020-1-6 21:11:2","OTTER",NA,NA,NA,NA,NA,"congruent","left","TRUE",NA,NA,NA,NA,NA,NA
"30419","sort_trial",NA,"free-sort","26","422255","0.0-4.0-4.0","1","2020-1-6 21:11:2","OTTER",NA,NA,NA,NA,NA,NA,NA,NA,"[{""cat"":19,""src"":2,""x"":25,""y"":255},{""cat"":19,""src"":8,""x"":69,""y"":83},{""cat"":19,""src"":0,""x"":46,""y"":181},{""cat"":25,""src"":13,""x"":1,""y"":425},{""cat"":25,""src"":17,""x"":23,""y"":492},{""cat"":25,""src"":4,""x"":52,""y"":120},{""cat"":15,""src"":18,""x"":47,""y"":314},{""cat"":15,""src"":16,""x"":57,""y"":378},{""cat"":15,""src"":4,""x"":59,""y"":12}]","[{""cat"":""19"",""src"":""8"",""x"":0,""y"":0},{""cat"":""15"",""src"":""4"",""x"":0,""y"":0},{""cat"":""19"",""src"":""2"",""x"":0,""y"":0},{""cat"":""25"",""src"":""17"",""x"":0,""y"":0},{""cat"":""25"",""src"":""13"",""x"":0,""y"":0},{""cat"":""25"",""src"":""4"",""x"":248,""y"":150},{""cat"":""19"",""src"":""0"",""x"":0,""y"":0},{""cat"":""15"",""src"":""16"",""x"":0,""y"":0},{""cat"":""25"",""src"":""4"",""x"":0,""y"":0},{""cat"":""15"",""src"":""18"",""x"":0,""y"":0}]","[{""cat"":19,""src"":8,""loc"":7},{""cat"":15,""src"":4,""loc"":8},{""cat"":19,""src"":2,""loc"":6},{""cat"":25,""src"":17,""loc"":2},{""cat"":25,""src"":13,""loc"":3},{""cat"":19,""src"":0,""loc"":4},{""cat"":15,""src"":16,""loc"":1},{""cat"":25,""src"":4,""loc"":5},{""cat"":15,""src"":18,""loc"":0}]","3","15,15,25,25,19,25,19,19,15,18,16,17,13,0,4,2,8,4,0,1,2,3,4,5,6,7,8,8,6,3,4,5,7,2,0,1",NA
"1934","sort_feedback","75","html-keyboard-response","27","424195","0.0-4.0-5.0","1","2020-1-6 21:11:2","OTTER",NA,NA,NA,NA,NA,NA,NA,NA,NA,NA,NA,NA,NA,NA
"19969","setup1",NA,"animation","28","444177","0.0-4.0-6.0","1","2020-1-6 21:11:2","OTTER",NA,NA,"[{""cat"":29,""src"":5,""loc"":2},{""cat"":29,""src"":11,""loc"":1},{""cat"":29,""src"":10,""loc"":0},{""cat"":7,""src"":12,""loc"":5},{""cat"":7,""src"":16,""loc"":4},{""cat"":7,""src"":19,""loc"":3},{""cat"":4,""src"":13,""loc"":6},{""cat"":4,""src"":12,""loc"":7},{""cat"":4,""src"":10,""loc"":8}]","1","1113,1104,1104,1104,1105,1106,1103,1119,1109,10002",NA,NA,NA,NA,NA,NA,NA,NA,NA
"1722","flanker_instructions","39","html-keyboard-response","29","445907","0.0-4.0-7.0","1","2020-1-6 21:11:2","OTTER",NA,NA,NA,NA,NA,NA,NA,NA,NA,NA,NA,NA,NA,NA
"464","flanker_test","39","image-keyboard-response","30","447385","0.0-4.0-8.0-0.0","1","2020-1-6 21:11:2","OTTER",NA,NA,NA,NA,NA,"incongruent","left","FALSE",NA,NA,NA,NA,NA,NA
"466","flanker_test","37","image-keyboard-response","31","449000","0.0-4.0-8.0-0.1","1","2020-1-6 21:11:2","OTTER",NA,NA,NA,NA,NA,"congruent","left","TRUE",NA,NA,NA,NA,NA,NA
"536","flanker_test","39","image-keyboard-response","32","450583","0.0-4.0-8.0-0.2","1","2020-1-6 21:11:2","OTTER",NA,NA,NA,NA,NA,"congruent","right","TRUE",NA,NA,NA,NA,NA,NA
"595","flanker_test","39","image-keyboard-response","33","451871","0.0-4.0-8.0-0.3","1","2020-1-6 21:11:2","OTTER",NA,NA,NA,NA,NA,"incongruent","right","TRUE",NA,NA,NA,NA,NA,NA
"30666","sort_trial",NA,"free-sort","34","483581","0.0-4.0-9.0","1","2020-1-6 21:11:2","OTTER",NA,NA,NA,NA,NA,NA,NA,NA,"[{""cat"":29,""src"":5,""x"":69,""y"":267},{""cat"":29,""src"":11,""x"":27,""y"":507},{""cat"":29,""src"":10,""x"":20,""y"":376},{""cat"":7,""src"":12,""x"":32,""y"":438},{""cat"":7,""src"":16,""x"":40,""y"":63},{""cat"":7,""src"":19,""x"":5,""y"":192},{""cat"":4,""src"":13,""x"":8,""y"":301},{""cat"":4,""src"":12,""x"":13,""y"":19},{""cat"":4,""src"":10,""x"":58,""y"":125}]","[{""cat"":""7"",""src"":""16"",""x"":0,""y"":0},{""cat"":""29"",""src"":""5"",""x"":0,""y"":0},{""cat"":""4"",""src"":""13"",""x"":0,""y"":0},{""cat"":""29"",""src"":""11"",""x"":0,""y"":0},{""cat"":""29"",""src"":""10"",""x"":267,""y"":99},{""cat"":""29"",""src"":""10"",""x"":0,""y"":0},{""cat"":""4"",""src"":""10"",""x"":0,""y"":0},{""cat"":""4"",""src"":""12"",""x"":0,""y"":0},{""cat"":""7"",""src"":""12"",""x"":0,""y"":0},{""cat"":""7"",""src"":""19"",""x"":0,""y"":0}]","[{""cat"":7,""src"":16,""loc"":4},{""cat"":29,""src"":5,""loc"":2},{""cat"":4,""src"":13,""loc"":6},{""cat"":29,""src"":11,""loc"":1},{""cat"":29,""src"":10,""loc"":0},{""cat"":4,""src"":10,""loc"":8},{""cat"":4,""src"":12,""loc"":7},{""cat"":7,""src"":12,""loc"":3},{""cat"":7,""src"":19,""loc"":5}]","7","29,29,29,7,7,7,4,4,4,10,11,5,12,16,19,13,12,10,0,1,2,3,4,5,6,7,8,4,3,1,7,0,8,2,6,5",NA
"2163","sort_feedback","75","html-keyboard-response","35","485755","0.0-4.0-10.0","1","2020-1-6 21:11:2","OTTER",NA,NA,NA,NA,NA,NA,NA,NA,NA,NA,NA,NA,NA,NA
"19958","setup2",NA,"animation","36","505714","0.0-4.0-11.0","1","2020-1-6 21:11:2","OTTER",NA,NA,"[{""cat"":22,""src"":1,""loc"":5},{""cat"":25,""src"":15,""loc"":3},{""cat"":2,""src"":14,""loc"":4},{""cat"":22,""src"":18,""loc"":1},{""cat"":25,""src"":13,""loc"":0},{""cat"":2,""src"":15,""loc"":2},{""cat"":2,""src"":0,""loc"":6},{""cat"":22,""src"":14,""loc"":8},{""cat"":25,""src"":5,""loc"":7}]","2","1106,1104,1105,1112,1104,1103,1108,1102,1110,10004",NA,NA,NA,NA,NA,NA,NA,NA,NA
"1618","flanker_instructions","39","html-keyboard-response","37","507343","0.0-4.0-12.0","1","2020-1-6 21:11:2","OTTER",NA,NA,NA,NA,NA,NA,NA,NA,NA,NA,NA,NA,NA,NA
"618","flanker_test","37","image-keyboard-response","38","508966","0.0-4.0-13.0-0.0","1","2020-1-6 21:11:2","OTTER",NA,NA,NA,NA,NA,"congruent","left","TRUE",NA,NA,NA,NA,NA,NA
"534","flanker_test","37","image-keyboard-response","39","510055","0.0-4.0-13.0-0.1","1","2020-1-6 21:11:2","OTTER",NA,NA,NA,NA,NA,"incongruent","left","TRUE",NA,NA,NA,NA,NA,NA
"442","flanker_test","39","image-keyboard-response","40","510831","0.0-4.0-13.0-0.2","1","2020-1-6 21:11:2","OTTER",NA,NA,NA,NA,NA,"congruent","right","TRUE",NA,NA,NA,NA,NA,NA
"622","flanker_test","39","image-keyboard-response","41","512077","0.0-4.0-13.0-0.3","1","2020-1-6 21:11:2","OTTER",NA,NA,NA,NA,NA,"incongruent","right","TRUE",NA,NA,NA,NA,NA,NA
"26073","sort_trial",NA,"free-sort","42","538857","0.0-4.0-14.0","1","2020-1-6 21:11:2","OTTER",NA,NA,NA,NA,NA,NA,NA,NA,"[{""cat"":22,""src"":1,""x"":41,""y"":253},{""cat"":25,""src"":15,""x"":66,""y"":387},{""cat"":2,""src"":14,""x"":11,""y"":199},{""cat"":22,""src"":18,""x"":60,""y"":29},{""cat"":25,""src"":13,""x"":43,""y"":299},{""cat"":2,""src"":15,""x"":66,""y"":505},{""cat"":2,""src"":0,""x"":8,""y"":436},{""cat"":22,""src"":14,""x"":27,""y"":60},{""cat"":25,""src"":5,""x"":48,""y"":140}]","[{""cat"":""22"",""src"":""18"",""x"":0,""y"":0},{""cat"":""2"",""src"":""15"",""x"":0,""y"":0},{""cat"":""22"",""src"":""14"",""x"":0,""y"":0},{""cat"":""25"",""src"":""15"",""x"":0,""y"":0},{""cat"":""25"",""src"":""13"",""x"":0,""y"":0},{""cat"":""2"",""src"":""14"",""x"":0,""y"":0},{""cat"":""22"",""src"":""1"",""x"":0,""y"":0},{""cat"":""25"",""src"":""5"",""x"":0,""y"":0},{""cat"":""2"",""src"":""0"",""x"":0,""y"":0}]","[{""cat"":22,""src"":18,""loc"":1},{""cat"":2,""src"":15,""loc"":2},{""cat"":22,""src"":14,""loc"":6},{""cat"":25,""src"":15,""loc"":3},{""cat"":25,""src"":13,""loc"":0},{""cat"":2,""src"":14,""loc"":4},{""cat"":22,""src"":1,""loc"":5},{""cat"":25,""src"":5,""loc"":7},{""cat"":2,""src"":0,""loc"":8}]","7","25,22,2,25,2,22,22,25,2,13,18,15,15,14,1,14,5,0,0,1,2,3,4,5,6,7,8,4,0,1,3,5,6,2,7,8",NA
"3993","sort_feedback","75","html-keyboard-response","43","542854","0.0-4.0-15.0","1","2020-1-6 21:11:2","OTTER",NA,NA,NA,NA,NA,NA,NA,NA,NA,NA,NA,NA,NA,NA
"19962","setup5",NA,"animation","44","562817","0.0-4.0-16.0","1","2020-1-6 21:11:2","OTTER",NA,NA,"[{""cat"":15,""src"":10,""loc"":5},{""cat"":28,""src"":19,""loc"":6},{""cat"":24,""src"":11,""loc"":1},{""cat"":24,""src"":15,""loc"":3},{""cat"":28,""src"":10,""loc"":2},{""cat"":15,""src"":7,""loc"":8},{""cat"":24,""src"":14,""loc"":7},{""cat"":28,""src"":4,""loc"":4},{""cat"":15,""src"":5,""loc"":0}]","5","1107,1103,1107,1107,1105,1104,1107,1104,1115,10003",NA,NA,NA,NA,NA,NA,NA,NA,NA
"1768","flanker_instructions","39","html-keyboard-response","45","564590","0.0-4.0-17.0","1","2020-1-6 21:11:2","OTTER",NA,NA,NA,NA,NA,NA,NA,NA,NA,NA,NA,NA,NA,NA
"828","flanker_test","37","image-keyboard-response","46","566424","0.0-4.0-18.0-0.0","1","2020-1-6 21:11:2","OTTER",NA,NA,NA,NA,NA,"incongruent","left","TRUE",NA,NA,NA,NA,NA,NA
"518","flanker_test","39","image-keyboard-response","47","567282","0.0-4.0-18.0-0.1","1","2020-1-6 21:11:2","OTTER",NA,NA,NA,NA,NA,"incongruent","right","TRUE",NA,NA,NA,NA,NA,NA
"479","flanker_test","37","image-keyboard-response","48","568657","0.0-4.0-18.0-0.2","1","2020-1-6 21:11:2","OTTER",NA,NA,NA,NA,NA,"congruent","left","TRUE",NA,NA,NA,NA,NA,NA
"483","flanker_test","39","image-keyboard-response","49","569747","0.0-4.0-18.0-0.3","1","2020-1-6 21:11:2","OTTER",NA,NA,NA,NA,NA,"congruent","right","TRUE",NA,NA,NA,NA,NA,NA
"33743","sort_trial",NA,"free-sort","50","604669","0.0-4.0-19.0","1","2020-1-6 21:11:2","OTTER",NA,NA,NA,NA,NA,NA,NA,NA,"[{""cat"":15,""src"":10,""x"":22,""y"":136},{""cat"":28,""src"":19,""x"":16,""y"":311},{""cat"":24,""src"":11,""x"":32,""y"":360},{""cat"":24,""src"":15,""x"":64,""y"":500},{""cat"":28,""src"":10,""x"":52,""y"":428},{""cat"":15,""src"":7,""x"":44,""y"":67},{""cat"":24,""src"":14,""x"":70,""y"":261},{""cat"":28,""src"":4,""x"":0,""y"":194},{""cat"":15,""src"":5,""x"":27,""y"":5}]","[{""cat"":""15"",""src"":""10"",""x"":0,""y"":0},{""cat"":""28"",""src"":""10"",""x"":0,""y"":0},{""cat"":""24"",""src"":""11"",""x"":0,""y"":0},{""cat"":""28"",""src"":""19"",""x"":0,""y"":0},{""cat"":""28"",""src"":""4"",""x"":0,""y"":0},{""cat"":""24"",""src"":""15"",""x"":742,""y"":257},{""cat"":""24"",""src"":""15"",""x"":0,""y"":0},{""cat"":""15"",""src"":""5"",""x"":249,""y"":147},{""cat"":""15"",""src"":""5"",""x"":0,""y"":0},{""cat"":""24"",""src"":""14"",""x"":0,""y"":0},{""cat"":""15"",""src"":""7"",""x"":0,""y"":0}]","[{""cat"":15,""src"":10,""loc"":5},{""cat"":28,""src"":10,""loc"":2},{""cat"":24,""src"":11,""loc"":1},{""cat"":28,""src"":19,""loc"":6},{""cat"":28,""src"":4,""loc"":4},{""cat"":24,""src"":15,""loc"":3},{""cat"":15,""src"":5,""loc"":0},{""cat"":24,""src"":14,""loc"":7},{""cat"":15,""src"":7,""loc"":8}]","9","15,24,28,24,28,15,28,24,15,5,11,10,15,4,10,19,14,7,0,1,2,3,4,5,6,7,8,6,2,1,5,4,0,3,7,8",NA
"30355","sort_feedback","74","html-keyboard-response","51","635031","0.0-4.0-20.0","1","2020-1-6 21:11:2","OTTER",NA,NA,NA,NA,NA,NA,NA,NA,NA,NA,NA,NA,NA,NA
"19964","setup3",NA,"animation","52","655002","0.0-4.0-21.0","1","2020-1-6 21:11:2","OTTER",NA,NA,"[{""cat"":21,""src"":3,""loc"":4},{""cat"":26,""src"":16,""loc"":7},{""cat"":31,""src"":1,""loc"":2},{""cat"":26,""src"":12,""loc"":6},{""cat"":21,""src"":12,""loc"":5},{""cat"":31,""src"":9,""loc"":1},{""cat"":26,""src"":1,""loc"":8},{""cat"":21,""src"":7,""loc"":3},{""cat"":31,""src"":7,""loc"":0}]","3","1111,1109,1104,1107,1105,1106,1103,1107,1109,10002",NA,NA,NA,NA,NA,NA,NA,NA,NA
"1831","flanker_instructions","39","html-keyboard-response","53","656848","0.0-4.0-22.0","1","2020-1-6 21:11:2","OTTER",NA,NA,NA,NA,NA,NA,NA,NA,NA,NA,NA,NA,NA,NA
"670","flanker_test","39","image-keyboard-response","54","658527","0.0-4.0-23.0-0.0","1","2020-1-6 21:11:2","OTTER",NA,NA,NA,NA,NA,"incongruent","right","TRUE",NA,NA,NA,NA,NA,NA
"432","flanker_test","39","image-keyboard-response","55","659829","0.0-4.0-23.0-0.1","1","2020-1-6 21:11:2","OTTER",NA,NA,NA,NA,NA,"congruent","right","TRUE",NA,NA,NA,NA,NA,NA
"529","flanker_test","37","image-keyboard-response","56","661138","0.0-4.0-23.0-0.2","1","2020-1-6 21:11:2","OTTER",NA,NA,NA,NA,NA,"congruent","left","TRUE",NA,NA,NA,NA,NA,NA
"348","flanker_test","39","image-keyboard-response","57","662126","0.0-4.0-23.0-0.3","1","2020-1-6 21:11:2","OTTER",NA,NA,NA,NA,NA,"incongruent","left","FALSE",NA,NA,NA,NA,NA,NA
"33367","sort_trial",NA,"free-sort","58","696261","0.0-4.0-24.0","1","2020-1-6 21:11:2","OTTER",NA,NA,NA,NA,NA,NA,NA,NA,"[{""cat"":21,""src"":3,""x"":21,""y"":491},{""cat"":26,""src"":16,""x"":14,""y"":200},{""cat"":31,""src"":1,""x"":5,""y"":16},{""cat"":26,""src"":12,""x"":80,""y"":434},{""cat"":21,""src"":12,""x"":20,""y"":87},{""cat"":31,""src"":9,""x"":66,""y"":319},{""cat"":26,""src"":1,""x"":8,""y"":123},{""cat"":21,""src"":7,""x"":75,""y"":368},{""cat"":31,""src"":7,""x"":43,""y"":252}]","[{""cat"":""26"",""src"":""16"",""x"":0,""y"":0},{""cat"":""26"",""src"":""12"",""x"":0,""y"":0},{""cat"":""21"",""src"":""3"",""x"":0,""y"":0},{""cat"":""26"",""src"":""1"",""x"":0,""y"":0},{""cat"":""31"",""src"":""9"",""x"":0,""y"":0},{""cat"":""31"",""src"":""1"",""x"":0,""y"":0},{""cat"":""21"",""src"":""12"",""x"":0,""y"":0},{""cat"":""21"",""src"":""7"",""x"":0,""y"":0},{""cat"":""31"",""src"":""7"",""x"":0,""y"":0}]","[{""cat"":26,""src"":16,""loc"":6},{""cat"":26,""src"":12,""loc"":7},{""cat"":21,""src"":3,""loc"":4},{""cat"":26,""src"":1,""loc"":8},{""cat"":31,""src"":9,""loc"":2},{""cat"":31,""src"":1,""loc"":1},{""cat"":21,""src"":12,""loc"":5},{""cat"":21,""src"":7,""loc"":3},{""cat"":31,""src"":7,""loc"":0}]","5","31,31,31,21,21,21,26,26,26,7,1,9,7,3,12,16,12,1,0,1,2,3,4,5,6,7,8,8,5,4,7,2,6,0,1,3",NA
"11965","sort_feedback","74","html-keyboard-response","59","708233","0.0-4.0-25.0","1","2020-1-6 21:11:2","OTTER",NA,NA,NA,NA,NA,NA,NA,NA,NA,NA,NA,NA,NA,NA
"19967","setup2",NA,"animation","60","728203","0.0-4.0-26.0","1","2020-1-6 21:11:2","OTTER",NA,NA,"[{""cat"":15,""src"":10,""loc"":8},{""cat"":1,""src"":18,""loc"":7},{""cat"":16,""src"":3,""loc"":6},{""cat"":15,""src"":15,""loc"":2},{""cat"":1,""src"":2,""loc"":1},{""cat"":16,""src"":11,""loc"":0},{""cat"":16,""src"":0,""loc"":5},{""cat"":15,""src"":0,""loc"":3},{""cat"":1,""src"":15,""loc"":4}]","2","1109,1104,1107,1103,1108,1107,1107,1109,1108,10005",NA,NA,NA,NA,NA,NA,NA,NA,NA
"1992","flanker_instructions","39","html-keyboard-response","61","730199","0.0-4.0-27.0","1","2020-1-6 21:11:2","OTTER",NA,NA,NA,NA,NA,NA,NA,NA,NA,NA,NA,NA,NA,NA
"662","flanker_test","39","image-keyboard-response","62","731868","0.0-4.0-28.0-0.0","1","2020-1-6 21:11:2","OTTER",NA,NA,NA,NA,NA,"incongruent","right","TRUE",NA,NA,NA,NA,NA,NA
"436","flanker_test","37","image-keyboard-response","63","732847","0.0-4.0-28.0-0.1","1","2020-1-6 21:11:2","OTTER",NA,NA,NA,NA,NA,"congruent","left","TRUE",NA,NA,NA,NA,NA,NA
"459","flanker_test","39","image-keyboard-response","64","734025","0.0-4.0-28.0-0.2","1","2020-1-6 21:11:2","OTTER",NA,NA,NA,NA,NA,"congruent","right","TRUE",NA,NA,NA,NA,NA,NA
"596","flanker_test","37","image-keyboard-response","65","735169","0.0-4.0-28.0-0.3","1","2020-1-6 21:11:2","OTTER",NA,NA,NA,NA,NA,"incongruent","left","TRUE",NA,NA,NA,NA,NA,NA
"23666","sort_trial",NA,"free-sort","66","759243","0.0-4.0-29.0","1","2020-1-6 21:11:2","OTTER",NA,NA,NA,NA,NA,NA,NA,NA,"[{""cat"":15,""src"":10,""x"":21,""y"":267},{""cat"":1,""src"":18,""x"":47,""y"":78},{""cat"":16,""src"":3,""x"":80,""y"":130},{""cat"":15,""src"":15,""x"":56,""y"":20},{""cat"":1,""src"":2,""x"":34,""y"":185},{""cat"":16,""src"":11,""x"":62,""y"":482},{""cat"":16,""src"":0,""x"":81,""y"":429},{""cat"":15,""src"":0,""x"":44,""y"":386},{""cat"":1,""src"":15,""x"":22,""y"":321}]","[{""cat"":""15"",""src"":""10"",""x"":0,""y"":0},{""cat"":""1"",""src"":""2"",""x"":0,""y"":0},{""cat"":""1"",""src"":""18"",""x"":0,""y"":0},{""cat"":""16"",""src"":""3"",""x"":0,""y"":0},{""cat"":""1"",""src"":""15"",""x"":0,""y"":0},{""cat"":""15"",""src"":""15"",""x"":0,""y"":0},{""cat"":""15"",""src"":""0"",""x"":0,""y"":0},{""cat"":""16"",""src"":""11"",""x"":0,""y"":0},{""cat"":""16"",""src"":""0"",""x"":0,""y"":0}]","[{""cat"":15,""src"":10,""loc"":8},{""cat"":1,""src"":2,""loc"":6},{""cat"":1,""src"":18,""loc"":0},{""cat"":16,""src"":3,""loc"":2},{""cat"":1,""src"":15,""loc"":1},{""cat"":15,""src"":15,""loc"":7},{""cat"":15,""src"":0,""loc"":3},{""cat"":16,""src"":11,""loc"":5},{""cat"":16,""src"":0,""loc"":4}]","2","1,1,16,15,16,16,1,15,15,18,15,3,0,0,11,2,15,10,0,1,2,3,4,5,6,7,8,2,4,3,6,8,7,1,5,0",NA
"1148","sort_feedback","77","html-keyboard-response","67","760396","0.0-4.0-30.0","1","2020-1-6 21:11:2","OTTER",NA,NA,NA,NA,NA,NA,NA,NA,NA,NA,NA,NA,NA,NA
"19965","setup3",NA,"animation","68","780366","0.0-4.0-31.0","1","2020-1-6 21:11:2","OTTER",NA,NA,"[{""cat"":26,""src"":13,""loc"":0},{""cat"":19,""src"":13,""loc"":4},{""cat"":28,""src"":7,""loc"":8},{""cat"":19,""src"":19,""loc"":3},{""cat"":26,""src"":0,""loc"":2},{""cat"":28,""src"":9,""loc"":6},{""cat"":19,""src"":12,""loc"":5},{""cat"":28,""src"":13,""loc"":7},{""cat"":26,""src"":18,""loc"":1}]","3","1114,1102,1105,1106,1106,1109,1108,1105,1107,10003",NA,NA,NA,NA,NA,NA,NA,NA,NA
"1788","flanker_instructions","39","html-keyboard-response","69","782162","0.0-4.0-32.0","1","2020-1-6 21:11:2","OTTER",NA,NA,NA,NA,NA,NA,NA,NA,NA,NA,NA,NA,NA,NA
"490","flanker_test","39","image-keyboard-response","70","783656","0.0-4.0-33.0-0.0","1","2020-1-6 21:11:2","OTTER",NA,NA,NA,NA,NA,"congruent","right","TRUE",NA,NA,NA,NA,NA,NA
"519","flanker_test","37","image-keyboard-response","71","784673","0.0-4.0-33.0-0.1","1","2020-1-6 21:11:2","OTTER",NA,NA,NA,NA,NA,"incongruent","left","TRUE",NA,NA,NA,NA,NA,NA
"485","flanker_test","39","image-keyboard-response","72","785895","0.0-4.0-33.0-0.2","1","2020-1-6 21:11:2","OTTER",NA,NA,NA,NA,NA,"incongruent","right","TRUE",NA,NA,NA,NA,NA,NA
"446","flanker_test","37","image-keyboard-response","73","787249","0.0-4.0-33.0-0.3","1","2020-1-6 21:11:2","OTTER",NA,NA,NA,NA,NA,"congruent","left","TRUE",NA,NA,NA,NA,NA,NA
"31854","sort_trial",NA,"free-sort","74","820076","0.0-4.0-34.0","1","2020-1-6 21:11:2","OTTER",NA,NA,NA,NA,NA,NA,NA,NA,"[{""cat"":26,""src"":13,""x"":73,""y"":241},{""cat"":19,""src"":13,""x"":52,""y"":440},{""cat"":28,""src"":7,""x"":5,""y"":502},{""cat"":19,""src"":19,""x"":62,""y"":141},{""cat"":26,""src"":0,""x"":33,""y"":363},{""cat"":28,""src"":9,""x"":62,""y"":306},{""cat"":19,""src"":12,""x"":48,""y"":2},{""cat"":28,""src"":13,""x"":27,""y"":201},{""cat"":26,""src"":18,""x"":15,""y"":65}]","[{""cat"":""19"",""src"":""19"",""x"":0,""y"":0},{""cat"":""26"",""src"":""13"",""x"":0,""y"":0},{""cat"":""19"",""src"":""12"",""x"":0,""y"":0},{""cat"":""26"",""src"":""18"",""x"":0,""y"":0},{""cat"":""19"",""src"":""13"",""x"":0,""y"":0},{""cat"":""26"",""src"":""0"",""x"":354,""y"":208},{""cat"":""26"",""src"":""0"",""x"":0,""y"":0},{""cat"":""28"",""src"":""13"",""x"":0,""y"":0},{""cat"":""28"",""src"":""9"",""x"":0,""y"":0},{""cat"":""28"",""src"":""7"",""x"":0,""y"":0}]","[{""cat"":19,""src"":19,""loc"":4},{""cat"":26,""src"":13,""loc"":0},{""cat"":19,""src"":12,""loc"":5},{""cat"":26,""src"":18,""loc"":1},{""cat"":19,""src"":13,""loc"":3},{""cat"":26,""src"":0,""loc"":2},{""cat"":28,""src"":13,""loc"":7},{""cat"":28,""src"":9,""loc"":6},{""cat"":28,""src"":7,""loc"":8}]","7","26,26,26,19,19,19,28,28,28,13,18,0,13,19,12,9,13,7,0,1,2,3,4,5,6,7,8,1,3,5,4,0,2,7,6,8",NA
"1423","sort_feedback","77","html-keyboard-response","75","821509","0.0-4.0-35.0","1","2020-1-6 21:11:2","OTTER",NA,NA,NA,NA,NA,NA,NA,NA,NA,NA,NA,NA,NA,NA
"19973","setup1",NA,"animation","76","841485","0.0-4.0-36.0","1","2020-1-6 21:11:2","OTTER",NA,NA,"[{""cat"":24,""src"":18,""loc"":0},{""cat"":24,""src"":15,""loc"":1},{""cat"":24,""src"":4,""loc"":2},{""cat"":5,""src"":13,""loc"":6},{""cat"":5,""src"":14,""loc"":8},{""cat"":5,""src"":4,""loc"":7},{""cat"":28,""src"":1,""loc"":3},{""cat"":28,""src"":6,""loc"":5},{""cat"":28,""src"":17,""loc"":4}]","1","1108,1107,1105,1105,1107,1105,1112,1108,1113,10003",NA,NA,NA,NA,NA,NA,NA,NA,NA
"941","flanker_instructions","39","html-keyboard-response","77","842435","0.0-4.0-37.0","1","2020-1-6 21:11:2","OTTER",NA,NA,NA,NA,NA,NA,NA,NA,NA,NA,NA,NA,NA,NA
"653","flanker_test","39","image-keyboard-response","78","844099","0.0-4.0-38.0-0.0","1","2020-1-6 21:11:2","OTTER",NA,NA,NA,NA,NA,"incongruent","right","TRUE",NA,NA,NA,NA,NA,NA
"548","flanker_test","37","image-keyboard-response","79","845699","0.0-4.0-38.0-0.1","1","2020-1-6 21:11:2","OTTER",NA,NA,NA,NA,NA,"incongruent","left","TRUE",NA,NA,NA,NA,NA,NA
"603","flanker_test","39","image-keyboard-response","80","846950","0.0-4.0-38.0-0.2","1","2020-1-6 21:11:2","OTTER",NA,NA,NA,NA,NA,"congruent","right","TRUE",NA,NA,NA,NA,NA,NA
"484","flanker_test","37","image-keyboard-response","81","848439","0.0-4.0-38.0-0.3","1","2020-1-6 21:11:2","OTTER",NA,NA,NA,NA,NA,"congruent","left","TRUE",NA,NA,NA,NA,NA,NA
"31052","sort_trial",NA,"free-sort","82","880439","0.0-4.0-39.0","1","2020-1-6 21:11:2","OTTER",NA,NA,NA,NA,NA,NA,NA,NA,"[{""cat"":24,""src"":18,""x"":50,""y"":448},{""cat"":24,""src"":15,""x"":23,""y"":360},{""cat"":24,""src"":4,""x"":63,""y"":485},{""cat"":5,""src"":13,""x"":78,""y"":244},{""cat"":5,""src"":14,""x"":66,""y"":22},{""cat"":5,""src"":4,""x"":67,""y"":69},{""cat"":28,""src"":1,""x"":71,""y"":203},{""cat"":28,""src"":6,""x"":60,""y"":329},{""cat"":28,""src"":17,""x"":46,""y"":128}]","[{""cat"":""28"",""src"":""6"",""x"":0,""y"":0},{""cat"":""24"",""src"":""15"",""x"":0,""y"":0},{""cat"":""24"",""src"":""4"",""x"":0,""y"":0},{""cat"":""24"",""src"":""18"",""x"":0,""y"":0},{""cat"":""5"",""src"":""13"",""x"":0,""y"":0},{""cat"":""28"",""src"":""17"",""x"":0,""y"":0},{""cat"":""28"",""src"":""1"",""x"":0,""y"":0},{""cat"":""5"",""src"":""4"",""x"":0,""y"":0},{""cat"":""5"",""src"":""14"",""x"":0,""y"":0}]","[{""cat"":28,""src"":6,""loc"":5},{""cat"":24,""src"":15,""loc"":1},{""cat"":24,""src"":4,""loc"":2},{""cat"":24,""src"":18,""loc"":0},{""cat"":5,""src"":13,""loc"":8},{""cat"":28,""src"":17,""loc"":4},{""cat"":28,""src"":1,""loc"":3},{""cat"":5,""src"":4,""loc"":7},{""cat"":5,""src"":14,""loc"":6}]","7","24,24,24,28,28,28,5,5,5,18,15,4,1,17,6,14,4,13,0,1,2,3,4,5,6,7,8,3,1,2,6,5,0,8,7,4",NA
"1457","sort_feedback","74","html-keyboard-response","83","881905","0.0-4.0-40.0","1","2020-1-6 21:11:2","OTTER",NA,NA,NA,NA,NA,NA,NA,NA,NA,NA,NA,NA,NA,NA
"19996","setup5",NA,"animation","84","901904","0.0-4.0-41.0","1","2020-1-6 21:11:2","OTTER",NA,NA,"[{""cat"":3,""src"":9,""loc"":3},{""cat"":13,""src"":5,""loc"":2},{""cat"":8,""src"":19,""loc"":6},{""cat"":8,""src"":6,""loc"":0},{""cat"":3,""src"":1,""loc"":7},{""cat"":13,""src"":16,""loc"":5},{""cat"":3,""src"":17,""loc"":1},{""cat"":13,""src"":2,""loc"":8},{""cat"":8,""src"":4,""loc"":4}]","5","1111,1106,1111,1110,1107,1115,1105,1118,1109,10003",NA,NA,NA,NA,NA,NA,NA,NA,NA
"1857","flanker_instructions","39","html-keyboard-response","85","903768","0.0-4.0-42.0","1","2020-1-6 21:11:2","OTTER",NA,NA,NA,NA,NA,NA,NA,NA,NA,NA,NA,NA,NA,NA
"524","flanker_test","39","image-keyboard-response","86","905312","0.0-4.0-43.0-0.0","1","2020-1-6 21:11:2","OTTER",NA,NA,NA,NA,NA,"incongruent","right","TRUE",NA,NA,NA,NA,NA,NA
"501","flanker_test","37","image-keyboard-response","87","906415","0.0-4.0-43.0-0.1","1","2020-1-6 21:11:2","OTTER",NA,NA,NA,NA,NA,"congruent","left","TRUE",NA,NA,NA,NA,NA,NA
"613","flanker_test","37","image-keyboard-response","88","907529","0.0-4.0-43.0-0.2","1","2020-1-6 21:11:2","OTTER",NA,NA,NA,NA,NA,"incongruent","left","TRUE",NA,NA,NA,NA,NA,NA
"485","flanker_test","39","image-keyboard-response","89","908722","0.0-4.0-43.0-0.3","1","2020-1-6 21:11:2","OTTER",NA,NA,NA,NA,NA,"congruent","right","TRUE",NA,NA,NA,NA,NA,NA
"26595","sort_trial",NA,"free-sort","90","936178","0.0-4.0-44.0","1","2020-1-6 21:11:2","OTTER",NA,NA,NA,NA,NA,NA,NA,NA,"[{""cat"":3,""src"":9,""x"":9,""y"":443},{""cat"":13,""src"":5,""x"":27,""y"":88},{""cat"":8,""src"":19,""x"":9,""y"":134},{""cat"":8,""src"":6,""x"":82,""y"":491},{""cat"":3,""src"":1,""x"":73,""y"":304},{""cat"":13,""src"":16,""x"":20,""y"":195},{""cat"":3,""src"":17,""x"":42,""y"":261},{""cat"":13,""src"":2,""x"":66,""y"":387},{""cat"":8,""src"":4,""x"":9,""y"":0}]","[{""cat"":""3"",""src"":""1"",""x"":0,""y"":0},{""cat"":""13"",""src"":""2"",""x"":0,""y"":0},{""cat"":""8"",""src"":""19"",""x"":0,""y"":0},{""cat"":""13"",""src"":""16"",""x"":0,""y"":0},{""cat"":""3"",""src"":""9"",""x"":0,""y"":0},{""cat"":""13"",""src"":""5"",""x"":0,""y"":0},{""cat"":""8"",""src"":""4"",""x"":9,""y"":0},{""cat"":""3"",""src"":""17"",""x"":0,""y"":0},{""cat"":""8"",""src"":""4"",""x"":0,""y"":0},{""cat"":""8"",""src"":""6"",""x"":0,""y"":0}]","[{""cat"":3,""src"":1,""loc"":7},{""cat"":13,""src"":2,""loc"":8},{""cat"":8,""src"":19,""loc"":6},{""cat"":13,""src"":16,""loc"":5},{""cat"":3,""src"":9,""loc"":4},{""cat"":13,""src"":5,""loc"":2},{""cat"":3,""src"":17,""loc"":1},{""cat"":8,""src"":4,""loc"":3},{""cat"":8,""src"":6,""loc"":0}]","7","8,3,13,8,3,13,8,3,13,6,17,5,4,9,16,19,1,2,0,1,2,3,4,5,6,7,8,8,6,5,7,4,3,2,0,1",NA
"1054","sort_feedback","77","html-keyboard-response","91","937244","0.0-4.0-45.0","1","2020-1-6 21:11:2","OTTER",NA,NA,NA,NA,NA,NA,NA,NA,NA,NA,NA,NA,NA,NA
"19977","setup4",NA,"animation","92","957226","0.0-4.0-46.0","1","2020-1-6 21:11:2","OTTER",NA,NA,"[{""cat"":28,""src"":1,""loc"":3},{""cat"":28,""src"":2,""loc"":2},{""cat"":28,""src"":13,""loc"":6},{""cat"":9,""src"":8,""loc"":4},{""cat"":9,""src"":3,""loc"":7},{""cat"":9,""src"":17,""loc"":0},{""cat"":0,""src"":14,""loc"":5},{""cat"":0,""src"":1,""loc"":1},{""cat"":0,""src"":15,""loc"":8}]","4","1112,1105,1111,1107,1113,1107,1107,1104,1107,10004",NA,NA,NA,NA,NA,NA,NA,NA,NA
"1027","flanker_instructions","39","html-keyboard-response","93","958260","0.0-4.0-47.0","1","2020-1-6 21:11:2","OTTER",NA,NA,NA,NA,NA,NA,NA,NA,NA,NA,NA,NA,NA,NA
"504","flanker_test","37","image-keyboard-response","94","959774","0.0-4.0-48.0-0.0","1","2020-1-6 21:11:2","OTTER",NA,NA,NA,NA,NA,"incongruent","left","TRUE",NA,NA,NA,NA,NA,NA
"486","flanker_test","39","image-keyboard-response","95","960903","0.0-4.0-48.0-0.1","1","2020-1-6 21:11:2","OTTER",NA,NA,NA,NA,NA,"incongruent","right","TRUE",NA,NA,NA,NA,NA,NA
"466","flanker_test","39","image-keyboard-response","96","962060","0.0-4.0-48.0-0.2","1","2020-1-6 21:11:2","OTTER",NA,NA,NA,NA,NA,"congruent","right","TRUE",NA,NA,NA,NA,NA,NA
"722","flanker_test","37","image-keyboard-response","97","963096","0.0-4.0-48.0-0.3","1","2020-1-6 21:11:2","OTTER",NA,NA,NA,NA,NA,"congruent","left","TRUE",NA,NA,NA,NA,NA,NA
"31375","sort_trial",NA,"free-sort","98","995537","0.0-4.0-49.0","1","2020-1-6 21:11:2","OTTER",NA,NA,NA,NA,NA,NA,NA,NA,"[{""cat"":28,""src"":1,""x"":80,""y"":141},{""cat"":28,""src"":2,""x"":23,""y"":189},{""cat"":28,""src"":13,""x"":74,""y"":299},{""cat"":9,""src"":8,""x"":6,""y"":388},{""cat"":9,""src"":3,""x"":40,""y"":490},{""cat"":9,""src"":17,""x"":68,""y"":248},{""cat"":0,""src"":14,""x"":63,""y"":28},{""cat"":0,""src"":1,""x"":65,""y"":66},{""cat"":0,""src"":15,""x"":6,""y"":439}]","[{""cat"":""28"",""src"":""13"",""x"":0,""y"":0},{""cat"":""9"",""src"":""8"",""x"":0,""y"":0},{""cat"":""0"",""src"":""15"",""x"":0,""y"":0},{""cat"":""9"",""src"":""3"",""x"":337,""y"":375},{""cat"":""9"",""src"":""17"",""x"":0,""y"":0},{""cat"":""28"",""src"":""2"",""x"":0,""y"":0},{""cat"":""9"",""src"":""3"",""x"":0,""y"":0},{""cat"":""28"",""src"":""1"",""x"":0,""y"":0},{""cat"":""0"",""src"":""14"",""x"":63,""y"":28},{""cat"":""0"",""src"":""1"",""x"":0,""y"":0},{""cat"":""0"",""src"":""14"",""x"":279,""y"":167},{""cat"":""0"",""src"":""14"",""x"":0,""y"":0}]","[{""cat"":28,""src"":13,""loc"":6},{""cat"":9,""src"":8,""loc"":4},{""cat"":0,""src"":15,""loc"":8},{""cat"":9,""src"":17,""loc"":1},{""cat"":28,""src"":2,""loc"":2},{""cat"":9,""src"":3,""loc"":5},{""cat"":28,""src"":1,""loc"":3},{""cat"":0,""src"":1,""loc"":7},{""cat"":0,""src"":14,""loc"":0}]","5","0,9,28,28,9,9,28,0,0,14,17,2,1,8,3,13,1,15,0,1,2,3,4,5,6,7,8,8,3,4,6,1,5,0,7,2",NA
"1097","sort_feedback","77","html-keyboard-response","99","996638","0.0-4.0-50.0","1","2020-1-6 21:11:2","OTTER",NA,NA,NA,NA,NA,NA,NA,NA,NA,NA,NA,NA,NA,NA
"19952","setup2",NA,"animation","100","1016591","0.0-4.0-51.0","1","2020-1-6 21:11:2","OTTER",NA,NA,"[{""cat"":29,""src"":15,""loc"":8},{""cat"":25,""src"":1,""loc"":6},{""cat"":2,""src"":12,""loc"":7},{""cat"":2,""src"":9,""loc"":1},{""cat"":29,""src"":8,""loc"":0},{""cat"":25,""src"":14,""loc"":2},{""cat"":29,""src"":11,""loc"":4},{""cat"":2,""src"":5,""loc"":5},{""cat"":25,""src"":2,""loc"":3}]","2","1107,1102,1106,1107,1105,1108,1103,1105,1107,10002",NA,NA,NA,NA,NA,NA,NA,NA,NA
"1653","flanker_instructions","39","html-keyboard-response","101","1018249","0.0-4.0-52.0","1","2020-1-6 21:11:2","OTTER",NA,NA,NA,NA,NA,NA,NA,NA,NA,NA,NA,NA,NA,NA
"515","flanker_test","39","image-keyboard-response","102","1019776","0.0-4.0-53.0-0.0","1","2020-1-6 21:11:2","OTTER",NA,NA,NA,NA,NA,"congruent","right","TRUE",NA,NA,NA,NA,NA,NA
"446","flanker_test","37","image-keyboard-response","103","1021090","0.0-4.0-53.0-0.1","1","2020-1-6 21:11:2","OTTER",NA,NA,NA,NA,NA,"congruent","left","TRUE",NA,NA,NA,NA,NA,NA
"528","flanker_test","37","image-keyboard-response","104","1022630","0.0-4.0-53.0-0.2","1","2020-1-6 21:11:2","OTTER",NA,NA,NA,NA,NA,"incongruent","left","TRUE",NA,NA,NA,NA,NA,NA
"530","flanker_test","39","image-keyboard-response","105","1023921","0.0-4.0-53.0-0.3","1","2020-1-6 21:11:2","OTTER",NA,NA,NA,NA,NA,"incongruent","right","TRUE",NA,NA,NA,NA,NA,NA
"32732","sort_trial",NA,"free-sort","106","1057596","0.0-4.0-54.0","1","2020-1-6 21:11:2","OTTER",NA,NA,NA,NA,NA,NA,NA,NA,"[{""cat"":29,""src"":15,""x"":23,""y"":479},{""cat"":25,""src"":1,""x"":11,""y"":11},{""cat"":2,""src"":12,""x"":40,""y"":132},{""cat"":2,""src"":9,""x"":25,""y"":315},{""cat"":29,""src"":8,""x"":36,""y"":259},{""cat"":25,""src"":14,""x"":42,""y"":435},{""cat"":29,""src"":11,""x"":2,""y"":84},{""cat"":2,""src"":5,""x"":12,""y"":363},{""cat"":25,""src"":2,""x"":42,""y"":196}]","[{""cat"":""25"",""src"":""2"",""x"":0,""y"":0},{""cat"":""25"",""src"":""1"",""x"":0,""y"":0},{""cat"":""25"",""src"":""14"",""x"":0,""y"":0},{""cat"":""29"",""src"":""8"",""x"":0,""y"":0},{""cat"":""2"",""src"":""12"",""x"":1,""y"":188},{""cat"":""2"",""src"":""9"",""x"":0,""y"":0},{""cat"":""29"",""src"":""15"",""x"":46,""y"":486},{""cat"":""29"",""src"":""11"",""x"":0,""y"":0},{""cat"":""29"",""src"":""15"",""x"":0,""y"":0},{""cat"":""2"",""src"":""12"",""x"":0,""y"":0},{""cat"":""2"",""src"":""5"",""x"":0,""y"":0}]","[{""cat"":25,""src"":2,""loc"":3},{""cat"":25,""src"":1,""loc"":6},{""cat"":25,""src"":14,""loc"":2},{""cat"":29,""src"":8,""loc"":0},{""cat"":2,""src"":9,""loc"":1},{""cat"":29,""src"":11,""loc"":4},{""cat"":29,""src"":15,""loc"":8},{""cat"":2,""src"":12,""loc"":5},{""cat"":2,""src"":5,""loc"":7}]","7","29,2,25,25,29,2,25,2,29,8,9,14,2,11,12,1,5,15,0,1,2,3,4,5,6,7,8,3,4,2,0,5,7,1,8,6",NA
"1154","sort_feedback","74","html-keyboard-response","107","1058758","0.0-4.0-55.0","1","2020-1-6 21:11:2","OTTER",NA,NA,NA,NA,NA,NA,NA,NA,NA,NA,NA,NA,NA,NA
"19969","setup1",NA,"animation","108","1078731","0.0-4.0-56.0","1","2020-1-6 21:11:2","OTTER",NA,NA,"[{""cat"":13,""src"":17,""loc"":3},{""cat"":13,""src"":10,""loc"":5},{""cat"":13,""src"":18,""loc"":4},{""cat"":29,""src"":15,""loc"":1},{""cat"":29,""src"":5,""loc"":0},{""cat"":29,""src"":6,""loc"":2},{""cat"":23,""src"":12,""loc"":8},{""cat"":23,""src"":3,""loc"":7},{""cat"":23,""src"":11,""loc"":6}]","1","1118,1106,1108,1107,1105,1107,1104,1103,1108,10003",NA,NA,NA,NA,NA,NA,NA,NA,NA
"992","flanker_instructions","39","html-keyboard-response","109","1079727","0.0-4.0-57.0","1","2020-1-6 21:11:2","OTTER",NA,NA,NA,NA,NA,NA,NA,NA,NA,NA,NA,NA,NA,NA
"564","flanker_test","39","image-keyboard-response","110","1081298","0.0-4.0-58.0-0.0","1","2020-1-6 21:11:2","OTTER",NA,NA,NA,NA,NA,"congruent","right","TRUE",NA,NA,NA,NA,NA,NA
"800","flanker_test","37","image-keyboard-response","111","1082684","0.0-4.0-58.0-0.1","1","2020-1-6 21:11:2","OTTER",NA,NA,NA,NA,NA,"congruent","left","TRUE",NA,NA,NA,NA,NA,NA
"360","flanker_test","39","image-keyboard-response","112","1084243","0.0-4.0-58.0-0.2","1","2020-1-6 21:11:2","OTTER",NA,NA,NA,NA,NA,"incongruent","left","FALSE",NA,NA,NA,NA,NA,NA
"481","flanker_test","39","image-keyboard-response","113","1085050","0.0-4.0-58.0-0.3","1","2020-1-6 21:11:2","OTTER",NA,NA,NA,NA,NA,"incongruent","right","TRUE",NA,NA,NA,NA,NA,NA
"30191","sort_trial",NA,"free-sort","114","1116231","0.0-4.0-59.0","1","2020-1-6 21:11:2","OTTER",NA,NA,NA,NA,NA,NA,NA,NA,"[{""cat"":13,""src"":17,""x"":76,""y"":183},{""cat"":13,""src"":10,""x"":6,""y"":24},{""cat"":13,""src"":18,""x"":81,""y"":127},{""cat"":29,""src"":15,""x"":54,""y"":315},{""cat"":29,""src"":5,""x"":70,""y"":440},{""cat"":29,""src"":6,""x"":17,""y"":60},{""cat"":23,""src"":12,""x"":42,""y"":363},{""cat"":23,""src"":3,""x"":62,""y"":253},{""cat"":23,""src"":11,""x"":78,""y"":484}]","[{""cat"":""13"",""src"":""18"",""x"":0,""y"":0},{""cat"":""13"",""src"":""17"",""x"":0,""y"":0},{""cat"":""29"",""src"":""5"",""x"":0,""y"":0},{""cat"":""23"",""src"":""11"",""x"":420,""y"":297},{""cat"":""29"",""src"":""15"",""x"":0,""y"":0},{""cat"":""29"",""src"":""6"",""x"":0,""y"":0},{""cat"":""13"",""src"":""10"",""x"":0,""y"":0},{""cat"":""23"",""src"":""11"",""x"":0,""y"":0},{""cat"":""23"",""src"":""12"",""x"":0,""y"":0},{""cat"":""23"",""src"":""3"",""x"":0,""y"":0}]","[{""cat"":13,""src"":18,""loc"":4},{""cat"":13,""src"":17,""loc"":3},{""cat"":29,""src"":5,""loc"":2},{""cat"":29,""src"":15,""loc"":1},{""cat"":29,""src"":6,""loc"":0},{""cat"":13,""src"":10,""loc"":5},{""cat"":23,""src"":11,""loc"":6},{""cat"":23,""src"":12,""loc"":8},{""cat"":23,""src"":3,""loc"":7}]","7","29,29,29,13,13,13,23,23,23,6,15,5,17,18,10,11,3,12,0,1,2,3,4,5,6,7,8,4,3,2,1,0,5,6,8,7",NA
"1565","sort_feedback","74","html-keyboard-response","115","1117800","0.0-4.0-60.0","1","2020-1-6 21:11:2","OTTER",NA,NA,NA,NA,NA,NA,NA,NA,NA,NA,NA,NA,NA,NA
"19960","setup5",NA,"animation","116","1137764","0.0-4.0-61.0","1","2020-1-6 21:11:2","OTTER",NA,NA,"[{""cat"":17,""src"":11,""loc"":7},{""cat"":30,""src"":17,""loc"":1},{""cat"":1,""src"":8,""loc"":5},{""cat"":1,""src"":3,""loc"":8},{""cat"":30,""src"":11,""loc"":4},{""cat"":17,""src"":7,""loc"":2},{""cat"":30,""src"":19,""loc"":6},{""cat"":17,""src"":13,""loc"":3},{""cat"":1,""src"":17,""loc"":0}]","5","1109,1105,1105,1103,1106,1110,1106,1104,1106,10005",NA,NA,NA,NA,NA,NA,NA,NA,NA
"1376","flanker_instructions","39","html-keyboard-response","117","1139151","0.0-4.0-62.0","1","2020-1-6 21:11:2","OTTER",NA,NA,NA,NA,NA,NA,NA,NA,NA,NA,NA,NA,NA,NA
"570","flanker_test","37","image-keyboard-response","118","1140734","0.0-4.0-63.0-0.0","1","2020-1-6 21:11:2","OTTER",NA,NA,NA,NA,NA,"congruent","left","TRUE",NA,NA,NA,NA,NA,NA
"476","flanker_test","39","image-keyboard-response","119","1142260","0.0-4.0-63.0-0.1","1","2020-1-6 21:11:2","OTTER",NA,NA,NA,NA,NA,"congruent","right","TRUE",NA,NA,NA,NA,NA,NA
"621","flanker_test","39","image-keyboard-response","120","1143518","0.0-4.0-63.0-0.2","1","2020-1-6 21:11:2","OTTER",NA,NA,NA,NA,NA,"incongruent","right","TRUE",NA,NA,NA,NA,NA,NA
"558","flanker_test","37","image-keyboard-response","121","1144836","0.0-4.0-63.0-0.3","1","2020-1-6 21:11:2","OTTER",NA,NA,NA,NA,NA,"incongruent","left","TRUE",NA,NA,NA,NA,NA,NA
"27230","sort_trial",NA,"free-sort","122","1172702","0.0-4.0-64.0","1","2020-1-6 21:11:2","OTTER",NA,NA,NA,NA,NA,NA,NA,NA,"[{""cat"":17,""src"":11,""x"":56,""y"":15},{""cat"":30,""src"":17,""x"":29,""y"":65},{""cat"":1,""src"":8,""x"":24,""y"":192},{""cat"":1,""src"":3,""x"":46,""y"":439},{""cat"":30,""src"":11,""x"":79,""y"":131},{""cat"":17,""src"":7,""x"":61,""y"":319},{""cat"":30,""src"":19,""x"":19,""y"":493},{""cat"":17,""src"":13,""x"":70,""y"":383},{""cat"":1,""src"":17,""x"":41,""y"":247}]","[{""cat"":""1"",""src"":""17"",""x"":0,""y"":0},{""cat"":""17"",""src"":""7"",""x"":0,""y"":0},{""cat"":""17"",""src"":""13"",""x"":0,""y"":0},{""cat"":""17"",""src"":""11"",""x"":0,""y"":0},{""cat"":""30"",""src"":""17"",""x"":0,""y"":0},{""cat"":""1"",""src"":""3"",""x"":0,""y"":0},{""cat"":""1"",""src"":""8"",""x"":0,""y"":0},{""cat"":""30"",""src"":""11"",""x"":0,""y"":0},{""cat"":""30"",""src"":""19"",""x"":0,""y"":0}]","[{""cat"":1,""src"":17,""loc"":1},{""cat"":17,""src"":7,""loc"":0},{""cat"":17,""src"":13,""loc"":4},{""cat"":17,""src"":11,""loc"":6},{""cat"":30,""src"":17,""loc"":8},{""cat"":1,""src"":3,""loc"":7},{""cat"":1,""src"":8,""loc"":5},{""cat"":30,""src"":11,""loc"":3},{""cat"":30,""src"":19,""loc"":2}]","1","17,1,30,30,17,1,17,1,30,7,17,19,11,13,8,11,3,17,0,1,2,3,4,5,6,7,8,1,0,8,7,2,6,3,5,4",NA
"28379","sort_feedback","13","html-keyboard-response","123","1201085","0.0-4.0-65.0","1","2020-1-6 21:11:2","OTTER",NA,NA,NA,NA,NA,NA,NA,NA,NA,NA,NA,NA,NA,NA
"19957","setup3",NA,"animation","124","1221044","0.0-4.0-66.0","1","2020-1-6 21:11:2","OTTER",NA,NA,"[{""cat"":29,""src"":10,""loc"":3},{""cat"":16,""src"":19,""loc"":7},{""cat"":17,""src"":12,""loc"":0},{""cat"":17,""src"":8,""loc"":1},{""cat"":29,""src"":0,""loc"":4},{""cat"":16,""src"":5,""loc"":8},{""cat"":29,""src"":3,""loc"":5},{""cat"":16,""src"":2,""loc"":6},{""cat"":17,""src"":16,""loc"":2}]","3","1109,1105,1108,1106,1103,1107,1104,1104,1109,10002",NA,NA,NA,NA,NA,NA,NA,NA,NA
"878","flanker_instructions","39","html-keyboard-response","125","1221932","0.0-4.0-67.0","1","2020-1-6 21:11:2","OTTER",NA,NA,NA,NA,NA,NA,NA,NA,NA,NA,NA,NA,NA,NA
"585","flanker_test","37","image-keyboard-response","126","1223522","0.0-4.0-68.0-0.0","1","2020-1-6 21:11:2","OTTER",NA,NA,NA,NA,NA,"congruent","left","TRUE",NA,NA,NA,NA,NA,NA
"561","flanker_test","39","image-keyboard-response","127","1225103","0.0-4.0-68.0-0.1","1","2020-1-6 21:11:2","OTTER",NA,NA,NA,NA,NA,"incongruent","right","TRUE",NA,NA,NA,NA,NA,NA
"752","flanker_test","37","image-keyboard-response","128","1226350","0.0-4.0-68.0-0.2","1","2020-1-6 21:11:2","OTTER",NA,NA,NA,NA,NA,"incongruent","left","TRUE",NA,NA,NA,NA,NA,NA
"395","flanker_test","39","image-keyboard-response","129","1227272","0.0-4.0-68.0-0.3","1","2020-1-6 21:11:2","OTTER",NA,NA,NA,NA,NA,"congruent","right","TRUE",NA,NA,NA,NA,NA,NA
"27838","sort_trial",NA,"free-sort","130","1255784","0.0-4.0-69.0","1","2020-1-6 21:11:2","OTTER",NA,NA,NA,NA,NA,NA,NA,NA,"[{""cat"":29,""src"":10,""x"":43,""y"":77},{""cat"":16,""src"":19,""x"":8,""y"":444},{""cat"":17,""src"":12,""x"":46,""y"":305},{""cat"":17,""src"":8,""x"":0,""y"":481},{""cat"":29,""src"":0,""x"":38,""y"":144},{""cat"":16,""src"":5,""x"":4,""y"":260},{""cat"":29,""src"":3,""x"":64,""y"":199},{""cat"":16,""src"":2,""x"":72,""y"":369},{""cat"":17,""src"":16,""x"":27,""y"":20}]","[{""cat"":""29"",""src"":""3"",""x"":0,""y"":0},{""cat"":""29"",""src"":""0"",""x"":852,""y"":152},{""cat"":""29"",""src"":""0"",""x"":0,""y"":0},{""cat"":""29"",""src"":""10"",""x"":0,""y"":0},{""cat"":""17"",""src"":""16"",""x"":0,""y"":0},{""cat"":""16"",""src"":""5"",""x"":0,""y"":0},{""cat"":""16"",""src"":""2"",""x"":0,""y"":0},{""cat"":""17"",""src"":""8"",""x"":0,""y"":0},{""cat"":""17"",""src"":""12"",""x"":0,""y"":0},{""cat"":""16"",""src"":""19"",""x"":0,""y"":0}]","[{""cat"":29,""src"":3,""loc"":5},{""cat"":29,""src"":0,""loc"":4},{""cat"":29,""src"":10,""loc"":3},{""cat"":17,""src"":16,""loc"":2},{""cat"":16,""src"":5,""loc"":7},{""cat"":16,""src"":2,""loc"":6},{""cat"":17,""src"":8,""loc"":1},{""cat"":17,""src"":12,""loc"":0},{""cat"":16,""src"":19,""loc"":8}]","7","17,17,17,29,29,29,16,16,16,12,8,16,10,0,3,2,5,19,0,1,2,3,4,5,6,7,8,7,6,3,2,1,0,5,4,8",NA
"5756","sort_feedback","74","html-keyboard-response","131","1261545","0.0-4.0-70.0","1","2020-1-6 21:11:2","OTTER",NA,NA,NA,NA,NA,NA,NA,NA,NA,NA,NA,NA,NA,NA
"19969","setup4",NA,"animation","132","1281518","0.0-4.0-71.0","1","2020-1-6 21:11:2","OTTER",NA,NA,"[{""cat"":21,""src"":0,""loc"":7},{""cat"":21,""src"":2,""loc"":4},{""cat"":21,""src"":5,""loc"":0},{""cat"":28,""src"":10,""loc"":2},{""cat"":28,""src"":9,""loc"":6},{""cat"":28,""src"":0,""loc"":5},{""cat"":30,""src"":10,""loc"":1},{""cat"":30,""src"":19,""loc"":3},{""cat"":30,""src"":5,""loc"":8}]","4","1109,1104,1103,1104,1107,1109,1106,1108,1114,10004",NA,NA,NA,NA,NA,NA,NA,NA,NA
"1334","flanker_instructions","39","html-keyboard-response","133","1282863","0.0-4.0-72.0","1","2020-1-6 21:11:2","OTTER",NA,NA,NA,NA,NA,NA,NA,NA,NA,NA,NA,NA,NA,NA
"506","flanker_test","37","image-keyboard-response","134","1284384","0.0-4.0-73.0-0.0","1","2020-1-6 21:11:2","OTTER",NA,NA,NA,NA,NA,"congruent","left","TRUE",NA,NA,NA,NA,NA,NA
"656","flanker_test","39","image-keyboard-response","135","1286066","0.0-4.0-73.0-0.1","1","2020-1-6 21:11:2","OTTER",NA,NA,NA,NA,NA,"incongruent","right","TRUE",NA,NA,NA,NA,NA,NA
"380","flanker_test","39","image-keyboard-response","136","1287242","0.0-4.0-73.0-0.2","1","2020-1-6 21:11:2","OTTER",NA,NA,NA,NA,NA,"congruent","right","TRUE",NA,NA,NA,NA,NA,NA
"601","flanker_test","37","image-keyboard-response","137","1288824","0.0-4.0-73.0-0.3","1","2020-1-6 21:11:2","OTTER",NA,NA,NA,NA,NA,"incongruent","left","TRUE",NA,NA,NA,NA,NA,NA
"30867","sort_trial",NA,"free-sort","138","1320141","0.0-4.0-74.0","1","2020-1-6 21:11:2","OTTER",NA,NA,NA,NA,NA,NA,NA,NA,"[{""cat"":21,""src"":0,""x"":38,""y"":143},{""cat"":21,""src"":2,""x"":5,""y"":83},{""cat"":21,""src"":5,""x"":23,""y"":369},{""cat"":28,""src"":10,""x"":62,""y"":300},{""cat"":28,""src"":9,""x"":76,""y"":443},{""cat"":28,""src"":0,""x"":57,""y"":267},{""cat"":30,""src"":10,""x"":12,""y"":504},{""cat"":30,""src"":19,""x"":7,""y"":180},{""cat"":30,""src"":5,""x"":5,""y"":23}]","[{""cat"":""21"",""src"":""0"",""x"":0,""y"":0},{""cat"":""28"",""src"":""9"",""x"":0,""y"":0},{""cat"":""28"",""src"":""0"",""x"":0,""y"":0},{""cat"":""28"",""src"":""10"",""x"":0,""y"":0},{""cat"":""21"",""src"":""2"",""x"":0,""y"":0},{""cat"":""21"",""src"":""5"",""x"":0,""y"":0},{""cat"":""30"",""src"":""5"",""x"":0,""y"":0},{""cat"":""30"",""src"":""10"",""x"":0,""y"":0},{""cat"":""30"",""src"":""19"",""x"":0,""y"":0}]","[{""cat"":21,""src"":0,""loc"":0},{""cat"":28,""src"":9,""loc"":6},{""cat"":28,""src"":0,""loc"":5},{""cat"":28,""src"":10,""loc"":2},{""cat"":21,""src"":2,""loc"":4},{""cat"":21,""src"":5,""loc"":7},{""cat"":30,""src"":5,""loc"":8},{""cat"":30,""src"":10,""loc"":1},{""cat"":30,""src"":19,""loc"":3}]","7","21,30,28,30,21,28,28,21,30,0,10,10,19,2,0,9,5,5,0,1,2,3,4,5,6,7,8,0,7,3,8,4,2,1,5,6",NA
"4217","sort_feedback","78","html-keyboard-response","139","1324367","0.0-4.0-75.0","1","2020-1-6 21:11:2","OTTER",NA,NA,NA,NA,NA,NA,NA,NA,NA,NA,NA,NA,NA,NA
"19952","setup2",NA,"animation","140","1344324","0.0-4.0-76.0","1","2020-1-6 21:11:2","OTTER",NA,NA,"[{""cat"":2,""src"":18,""loc"":1},{""cat"":29,""src"":7,""loc"":2},{""cat"":24,""src"":16,""loc"":0},{""cat"":24,""src"":14,""loc"":8},{""cat"":29,""src"":16,""loc"":6},{""cat"":2,""src"":19,""loc"":7},{""cat"":24,""src"":8,""loc"":3},{""cat"":29,""src"":15,""loc"":4},{""cat"":2,""src"":0,""loc"":5}]","2","1106,1105,1104,1105,1107,1107,1104,1105,1108,10001",NA,NA,NA,NA,NA,NA,NA,NA,NA
"729","flanker_instructions","37","html-keyboard-response","141","1345065","0.0-4.0-77.0","1","2020-1-6 21:11:2","OTTER",NA,NA,NA,NA,NA,NA,NA,NA,NA,NA,NA,NA,NA,NA
"541","flanker_test","37","image-keyboard-response","142","1346614","0.0-4.0-78.0-0.0","1","2020-1-6 21:11:2","OTTER",NA,NA,NA,NA,NA,"congruent","left","TRUE",NA,NA,NA,NA,NA,NA
"702","flanker_test","39","image-keyboard-response","143","1347635","0.0-4.0-78.0-0.1","1","2020-1-6 21:11:2","OTTER",NA,NA,NA,NA,NA,"congruent","right","TRUE",NA,NA,NA,NA,NA,NA
"624","flanker_test","37","image-keyboard-response","144","1348755","0.0-4.0-78.0-0.2","1","2020-1-6 21:11:2","OTTER",NA,NA,NA,NA,NA,"incongruent","left","TRUE",NA,NA,NA,NA,NA,NA
"631","flanker_test","39","image-keyboard-response","145","1349990","0.0-4.0-78.0-0.3","1","2020-1-6 21:11:2","OTTER",NA,NA,NA,NA,NA,"incongruent","right","TRUE",NA,NA,NA,NA,NA,NA
"29960","sort_trial",NA,"free-sort","146","1380811","0.0-4.0-79.0","1","2020-1-6 21:11:2","OTTER",NA,NA,NA,NA,NA,NA,NA,NA,"[{""cat"":2,""src"":18,""x"":62,""y"":268},{""cat"":29,""src"":7,""x"":53,""y"":149},{""cat"":24,""src"":16,""x"":58,""y"":319},{""cat"":24,""src"":14,""x"":68,""y"":68},{""cat"":29,""src"":16,""x"":65,""y"":507},{""cat"":2,""src"":19,""x"":75,""y"":5},{""cat"":24,""src"":8,""x"":27,""y"":388},{""cat"":29,""src"":15,""x"":13,""y"":208},{""cat"":2,""src"":0,""x"":2,""y"":434}]","[{""cat"":""2"",""src"":""18"",""x"":62,""y"":268},{""cat"":""29"",""src"":""15"",""x"":0,""y"":0},{""cat"":""2"",""src"":""18"",""x"":0,""y"":0},{""cat"":""24"",""src"":""8"",""x"":0,""y"":0},{""cat"":""24"",""src"":""14"",""x"":0,""y"":0},{""cat"":""24"",""src"":""16"",""x"":0,""y"":0},{""cat"":""2"",""src"":""0"",""x"":308,""y"":144},{""cat"":""29"",""src"":""7"",""x"":0,""y"":0},{""cat"":""2"",""src"":""19"",""x"":0,""y"":0},{""cat"":""2"",""src"":""0"",""x"":0,""y"":0},{""cat"":""29"",""src"":""16"",""x"":0,""y"":0}]","[{""cat"":29,""src"":15,""loc"":4},{""cat"":2,""src"":18,""loc"":1},{""cat"":24,""src"":8,""loc"":3},{""cat"":24,""src"":14,""loc"":7},{""cat"":24,""src"":16,""loc"":5},{""cat"":29,""src"":7,""loc"":0},{""cat"":2,""src"":19,""loc"":2},{""cat"":2,""src"":0,""loc"":6},{""cat"":29,""src"":16,""loc"":8}]","3","29,2,2,24,29,24,2,24,29,7,18,19,8,15,16,0,14,16,0,1,2,3,4,5,6,7,8,5,1,6,2,0,4,7,3,8",NA
"2152","sort_feedback","75","html-keyboard-response","147","1382971","0.0-4.0-80.0","1","2020-1-6 21:11:2","OTTER",NA,NA,NA,NA,NA,NA,NA,NA,NA,NA,NA,NA,NA,NA
"19984","setup1",NA,"animation","148","1402960","0.0-4.0-81.0","1","2020-1-6 21:11:2","OTTER",NA,NA,"[{""cat"":12,""src"":7,""loc"":4},{""cat"":12,""src"":11,""loc"":5},{""cat"":12,""src"":15,""loc"":3},{""cat"":19,""src"":18,""loc"":7},{""cat"":19,""src"":10,""loc"":8},{""cat"":19,""src"":15,""loc"":6},{""cat"":13,""src"":17,""loc"":2},{""cat"":13,""src"":1,""loc"":0},{""cat"":13,""src"":19,""loc"":1}]","1","1108,1104,1104,1109,1109,1103,1106,1127,1110,10004",NA,NA,NA,NA,NA,NA,NA,NA,NA
"1012","flanker_instructions","39","html-keyboard-response","149","1403982","0.0-4.0-82.0","1","2020-1-6 21:11:2","OTTER",NA,NA,NA,NA,NA,NA,NA,NA,NA,NA,NA,NA,NA,NA
"599","flanker_test","37","image-keyboard-response","150","1405594","0.0-4.0-83.0-0.0","1","2020-1-6 21:11:2","OTTER",NA,NA,NA,NA,NA,"incongruent","left","TRUE",NA,NA,NA,NA,NA,NA
"594","flanker_test","39","image-keyboard-response","151","1407138","0.0-4.0-83.0-0.1","1","2020-1-6 21:11:2","OTTER",NA,NA,NA,NA,NA,"incongruent","right","TRUE",NA,NA,NA,NA,NA,NA
"411","flanker_test","39","image-keyboard-response","152","1408332","0.0-4.0-83.0-0.2","1","2020-1-6 21:11:2","OTTER",NA,NA,NA,NA,NA,"congruent","right","TRUE",NA,NA,NA,NA,NA,NA
"446","flanker_test","37","image-keyboard-response","153","1409574","0.0-4.0-83.0-0.3","1","2020-1-6 21:11:2","OTTER",NA,NA,NA,NA,NA,"congruent","left","TRUE",NA,NA,NA,NA,NA,NA
"24174","sort_trial",NA,"free-sort","154","1434817","0.0-4.0-84.0","1","2020-1-6 21:11:2","OTTER",NA,NA,NA,NA,NA,NA,NA,NA,"[{""cat"":12,""src"":7,""x"":37,""y"":26},{""cat"":12,""src"":11,""x"":51,""y"":185},{""cat"":12,""src"":15,""x"":53,""y"":88},{""cat"":19,""src"":18,""x"":4,""y"":504},{""cat"":19,""src"":10,""x"":15,""y"":382},{""cat"":19,""src"":15,""x"":17,""y"":264},{""cat"":13,""src"":17,""x"":49,""y"":139},{""cat"":13,""src"":1,""x"":50,""y"":303},{""cat"":13,""src"":19,""x"":9,""y"":448}]","[{""cat"":""12"",""src"":""11"",""x"":0,""y"":0},{""cat"":""12"",""src"":""7"",""x"":0,""y"":0},{""cat"":""13"",""src"":""17"",""x"":0,""y"":0},{""cat"":""13"",""src"":""1"",""x"":0,""y"":0},{""cat"":""13"",""src"":""19"",""x"":0,""y"":0},{""cat"":""19"",""src"":""18"",""x"":0,""y"":0},{""cat"":""19"",""src"":""15"",""x"":0,""y"":0},{""cat"":""19"",""src"":""10"",""x"":0,""y"":0},{""cat"":""12"",""src"":""15"",""x"":0,""y"":0}]","[{""cat"":12,""src"":11,""loc"":5},{""cat"":12,""src"":7,""loc"":4},{""cat"":13,""src"":17,""loc"":2},{""cat"":13,""src"":1,""loc"":0},{""cat"":13,""src"":19,""loc"":1},{""cat"":19,""src"":18,""loc"":7},{""cat"":19,""src"":15,""loc"":6},{""cat"":19,""src"":10,""loc"":8},{""cat"":12,""src"":15,""loc"":3}]","9","13,13,13,12,12,12,19,19,19,1,19,17,15,7,11,15,18,10,0,1,2,3,4,5,6,7,8,3,4,2,8,1,0,6,5,7",NA
"108743","sort_feedback","74","html-keyboard-response","155","1543566","0.0-4.0-85.0","1","2020-1-6 21:11:2","OTTER",NA,NA,NA,NA,NA,NA,NA,NA,NA,NA,NA,NA,NA,NA
"19956","setup5",NA,"animation","156","1563525","0.0-4.0-86.0","1","2020-1-6 21:11:2","OTTER",NA,NA,"[{""cat"":23,""src"":4,""loc"":5},{""cat"":22,""src"":2,""loc"":1},{""cat"":7,""src"":3,""loc"":6},{""cat"":23,""src"":15,""loc"":0},{""cat"":7,""src"":11,""loc"":3},{""cat"":22,""src"":0,""loc"":8},{""cat"":7,""src"":9,""loc"":2},{""cat"":22,""src"":14,""loc"":4},{""cat"":23,""src"":16,""loc"":7}]","5","1108,1104,1104,1108,1102,1107,1108,1105,1108,10002",NA,NA,NA,NA,NA,NA,NA,NA,NA
"1904","flanker_instructions","39","html-keyboard-response","157","1565440","0.0-4.0-87.0","1","2020-1-6 21:11:2","OTTER",NA,NA,NA,NA,NA,NA,NA,NA,NA,NA,NA,NA,NA,NA
"721","flanker_test","37","image-keyboard-response","158","1567167","0.0-4.0-88.0-0.0","1","2020-1-6 21:11:2","OTTER",NA,NA,NA,NA,NA,"incongruent","left","TRUE",NA,NA,NA,NA,NA,NA
"583","flanker_test","39","image-keyboard-response","159","1568062","0.0-4.0-88.0-0.1","1","2020-1-6 21:11:2","OTTER",NA,NA,NA,NA,NA,"incongruent","right","TRUE",NA,NA,NA,NA,NA,NA
"473","flanker_test","39","image-keyboard-response","160","1569241","0.0-4.0-88.0-0.2","1","2020-1-6 21:11:2","OTTER",NA,NA,NA,NA,NA,"congruent","right","TRUE",NA,NA,NA,NA,NA,NA
"502","flanker_test","37","image-keyboard-response","161","1570247","0.0-4.0-88.0-0.3","1","2020-1-6 21:11:2","OTTER",NA,NA,NA,NA,NA,"congruent","left","TRUE",NA,NA,NA,NA,NA,NA
"35068","sort_trial",NA,"free-sort","162","1605846","0.0-4.0-89.0","1","2020-1-6 21:11:2","OTTER",NA,NA,NA,NA,NA,NA,NA,NA,"[{""cat"":23,""src"":4,""x"":63,""y"":242},{""cat"":22,""src"":2,""x"":46,""y"":508},{""cat"":7,""src"":3,""x"":77,""y"":312},{""cat"":23,""src"":15,""x"":43,""y"":8},{""cat"":7,""src"":11,""x"":23,""y"":208},{""cat"":22,""src"":0,""x"":77,""y"":89},{""cat"":7,""src"":9,""x"":75,""y"":142},{""cat"":22,""src"":14,""x"":56,""y"":386},{""cat"":23,""src"":16,""x"":69,""y"":442}]","[{""cat"":""22"",""src"":""14"",""x"":0,""y"":0},{""cat"":""23"",""src"":""15"",""x"":0,""y"":0},{""cat"":""7"",""src"":""9"",""x"":0,""y"":0},{""cat"":""23"",""src"":""16"",""x"":0,""y"":0},{""cat"":""7"",""src"":""3"",""x"":0,""y"":0},{""cat"":""22"",""src"":""0"",""x"":0,""y"":0},{""cat"":""7"",""src"":""11"",""x"":0,""y"":0},{""cat"":""23"",""src"":""4"",""x"":0,""y"":0},{""cat"":""22"",""src"":""2"",""x"":0,""y"":0}]","[{""cat"":22,""src"":14,""loc"":1},{""cat"":23,""src"":15,""loc"":0},{""cat"":7,""src"":9,""loc"":2},{""cat"":23,""src"":16,""loc"":6},{""cat"":7,""src"":3,""loc"":7},{""cat"":22,""src"":0,""loc"":8},{""cat"":7,""src"":11,""loc"":5},{""cat"":23,""src"":4,""loc"":4},{""cat"":22,""src"":2,""loc"":3}]","3","23,22,7,22,23,7,23,7,22,15,14,9,2,4,11,16,3,0,0,1,2,3,4,5,6,7,8,1,0,2,8,7,6,3,4,5",NA
"25029","sort_feedback","85","html-keyboard-response","163","1630881","0.0-4.0-90.0","1","2020-1-6 21:11:2","OTTER",NA,NA,NA,NA,NA,NA,NA,NA,NA,NA,NA,NA,NA,NA
"19961","setup4",NA,"animation","164","1650849","0.0-4.0-91.0","1","2020-1-6 21:11:2","OTTER",NA,NA,"[{""cat"":10,""src"":10,""loc"":8},{""cat"":10,""src"":9,""loc"":0},{""cat"":10,""src"":19,""loc"":4},{""cat"":8,""src"":4,""loc"":5},{""cat"":8,""src"":13,""loc"":7},{""cat"":8,""src"":1,""loc"":2},{""cat"":31,""src"":7,""loc"":6},{""cat"":31,""src"":3,""loc"":1},{""cat"":31,""src"":2,""loc"":3}]","4","1110,1109,1107,1102,1106,1107,1106,1105,1107,10002",NA,NA,NA,NA,NA,NA,NA,NA,NA
"880","flanker_instructions","39","html-keyboard-response","165","1651734","0.0-4.0-92.0","1","2020-1-6 21:11:2","OTTER",NA,NA,NA,NA,NA,NA,NA,NA,NA,NA,NA,NA,NA,NA
"441","flanker_test","37","image-keyboard-response","166","1653183","0.0-4.0-93.0-0.0","1","2020-1-6 21:11:2","OTTER",NA,NA,NA,NA,NA,"incongruent","right","FALSE",NA,NA,NA,NA,NA,NA
"508","flanker_test","39","image-keyboard-response","167","1654378","0.0-4.0-93.0-0.1","1","2020-1-6 21:11:2","OTTER",NA,NA,NA,NA,NA,"congruent","right","TRUE",NA,NA,NA,NA,NA,NA
"497","flanker_test","37","image-keyboard-response","168","1655944","0.0-4.0-93.0-0.2","1","2020-1-6 21:11:2","OTTER",NA,NA,NA,NA,NA,"incongruent","left","TRUE",NA,NA,NA,NA,NA,NA
"559","flanker_test","37","image-keyboard-response","169","1657264","0.0-4.0-93.0-0.3","1","2020-1-6 21:11:2","OTTER",NA,NA,NA,NA,NA,"congruent","left","TRUE",NA,NA,NA,NA,NA,NA
"36501","sort_trial",NA,"free-sort","170","1694889","0.0-4.0-94.0","1","2020-1-6 21:11:2","OTTER",NA,NA,NA,NA,NA,NA,NA,NA,"[{""cat"":10,""src"":10,""x"":13,""y"":432},{""cat"":10,""src"":9,""x"":62,""y"":7},{""cat"":10,""src"":19,""x"":47,""y"":148},{""cat"":8,""src"":4,""x"":35,""y"":380},{""cat"":8,""src"":13,""x"":61,""y"":504},{""cat"":8,""src"":1,""x"":66,""y"":246},{""cat"":31,""src"":7,""x"":55,""y"":304},{""cat"":31,""src"":3,""x"":36,""y"":78},{""cat"":31,""src"":2,""x"":6,""y"":193}]","[{""cat"":""10"",""src"":""9"",""x"":0,""y"":0},{""cat"":""31"",""src"":""3"",""x"":0,""y"":0},{""cat"":""31"",""src"":""7"",""x"":0,""y"":0},{""cat"":""8"",""src"":""4"",""x"":0,""y"":0},{""cat"":""31"",""src"":""2"",""x"":0,""y"":0},{""cat"":""10"",""src"":""10"",""x"":0,""y"":0},{""cat"":""8"",""src"":""13"",""x"":0,""y"":0},{""cat"":""8"",""src"":""1"",""x"":529,""y"":344},{""cat"":""8"",""src"":""1"",""x"":0,""y"":0},{""cat"":""10"",""src"":""19"",""x"":779,""y"":252},{""cat"":""10"",""src"":""19"",""x"":0,""y"":0}]","[{""cat"":10,""src"":9,""loc"":2},{""cat"":31,""src"":3,""loc"":1},{""cat"":31,""src"":7,""loc"":7},{""cat"":8,""src"":4,""loc"":5},{""cat"":31,""src"":2,""loc"":4},{""cat"":10,""src"":10,""loc"":6},{""cat"":8,""src"":13,""loc"":0},{""cat"":8,""src"":1,""loc"":8},{""cat"":10,""src"":19,""loc"":3}]","2","8,31,10,10,31,8,10,31,8,13,3,9,19,2,4,10,7,1,0,1,2,3,4,5,6,7,8,6,1,0,8,4,3,5,2,7",NA
"2846","sort_feedback","75","html-keyboard-response","171","1697739","0.0-4.0-95.0","1","2020-1-6 21:11:2","OTTER",NA,NA,NA,NA,NA,NA,NA,NA,NA,NA,NA,NA,NA,NA
"19962","setup3",NA,"animation","172","1717702","0.0-4.0-96.0","1","2020-1-6 21:11:2","OTTER",NA,NA,"[{""cat"":13,""src"":17,""loc"":0},{""cat"":11,""src"":1,""loc"":4},{""cat"":17,""src"":7,""loc"":8},{""cat"":13,""src"":11,""loc"":2},{""cat"":17,""src"":1,""loc"":6},{""cat"":11,""src"":11,""loc"":5},{""cat"":11,""src"":6,""loc"":3},{""cat"":17,""src"":5,""loc"":7},{""cat"":13,""src"":12,""loc"":1}]","3","1107,1105,1103,1105,1105,1114,1109,1104,1103,10007",NA,NA,NA,NA,NA,NA,NA,NA,NA
"2273","flanker_instructions","39","html-keyboard-response","173","1719980","0.0-4.0-97.0","1","2020-1-6 21:11:2","OTTER",NA,NA,NA,NA,NA,NA,NA,NA,NA,NA,NA,NA,NA,NA
"388","flanker_test","39","image-keyboard-response","174","1721377","0.0-4.0-98.0-0.0","1","2020-1-6 21:11:2","OTTER",NA,NA,NA,NA,NA,"congruent","right","TRUE",NA,NA,NA,NA,NA,NA
"418","flanker_test","39","image-keyboard-response","175","1722512","0.0-4.0-98.0-0.1","1","2020-1-6 21:11:2","OTTER",NA,NA,NA,NA,NA,"incongruent","right","TRUE",NA,NA,NA,NA,NA,NA
"835","flanker_test","37","image-keyboard-response","176","1723793","0.0-4.0-98.0-0.2","1","2020-1-6 21:11:2","OTTER",NA,NA,NA,NA,NA,"incongruent","left","TRUE",NA,NA,NA,NA,NA,NA
"562","flanker_test","39","image-keyboard-response","177","1725374","0.0-4.0-98.0-0.3","1","2020-1-6 21:11:2","OTTER",NA,NA,NA,NA,NA,"congruent","left","FALSE",NA,NA,NA,NA,NA,NA
"26176","sort_trial",NA,"free-sort","178","1752599","0.0-4.0-99.0","1","2020-1-6 21:11:2","OTTER",NA,NA,NA,NA,NA,NA,NA,NA,"[{""cat"":13,""src"":17,""x"":80,""y"":262},{""cat"":11,""src"":1,""x"":36,""y"":376},{""cat"":17,""src"":7,""x"":68,""y"":320},{""cat"":13,""src"":11,""x"":4,""y"":5},{""cat"":17,""src"":1,""x"":62,""y"":144},{""cat"":11,""src"":11,""x"":28,""y"":484},{""cat"":11,""src"":6,""x"":46,""y"":62},{""cat"":17,""src"":5,""x"":10,""y"":187},{""cat"":13,""src"":12,""x"":39,""y"":432}]","[{""cat"":""11"",""src"":""6"",""x"":0,""y"":0},{""cat"":""11"",""src"":""11"",""x"":0,""y"":0},{""cat"":""11"",""src"":""1"",""x"":0,""y"":0},{""cat"":""17"",""src"":""7"",""x"":0,""y"":0},{""cat"":""17"",""src"":""1"",""x"":0,""y"":0},{""cat"":""17"",""src"":""5"",""x"":272,""y"":407},{""cat"":""17"",""src"":""5"",""x"":0,""y"":0},{""cat"":""13"",""src"":""12"",""x"":0,""y"":0},{""cat"":""13"",""src"":""11"",""x"":0,""y"":0},{""cat"":""13"",""src"":""17"",""x"":0,""y"":0}]","[{""cat"":11,""src"":6,""loc"":4},{""cat"":11,""src"":11,""loc"":5},{""cat"":11,""src"":1,""loc"":3},{""cat"":17,""src"":7,""loc"":8},{""cat"":17,""src"":1,""loc"":6},{""cat"":17,""src"":5,""loc"":7},{""cat"":13,""src"":12,""loc"":1},{""cat"":13,""src"":11,""loc"":2},{""cat"":13,""src"":17,""loc"":0}]","7","13,13,13,11,11,11,17,17,17,17,12,11,1,6,11,1,5,7,0,1,2,3,4,5,6,7,8,8,6,7,2,0,1,4,5,3",NA
"108596","sort_feedback","75","html-keyboard-response","179","1861202","0.0-4.0-100.0","1","2020-1-6 21:11:2","OTTER",NA,NA,NA,NA,NA,NA,NA,NA,NA,NA,NA,NA,NA,NA
NA,"breakStart",NA,"html-keyboard-response","180","1891209","0.0-5.0-0.0","1","2020-1-6 21:11:2","OTTER",NA,NA,NA,NA,NA,NA,NA,NA,NA,NA,NA,NA,NA,NA
"2314","breakEnd",NA,"html-button-response","181","1893528","0.0-5.0-1.0","1","2020-1-6 21:11:2","OTTER","0",NA,NA,NA,NA,NA,NA,NA,NA,NA,NA,NA,NA,NA
"19953","setup2",NA,"animation","182","1913484","0.0-6.0-0.0","1","2020-1-6 21:11:2","OTTER",NA,NA,"[{""cat"":18,""src"":1,""loc"":3},{""cat"":27,""src"":2,""loc"":4},{""cat"":12,""src"":3,""loc"":5},{""cat"":18,""src"":15,""loc"":6},{""cat"":12,""src"":0,""loc"":7},{""cat"":27,""src"":13,""loc"":8},{""cat"":18,""src"":10,""loc"":2},{""cat"":27,""src"":4,""loc"":0},{""cat"":12,""src"":4,""loc"":1}]","2","1109,1101,1108,1104,1105,1107,1105,1106,1107,10001",NA,NA,NA,NA,NA,NA,NA,NA,NA
"1743","flanker_instructions","39","html-keyboard-response","183","1915232","0.0-6.0-1.0","1","2020-1-6 21:11:2","OTTER",NA,NA,NA,NA,NA,NA,NA,NA,NA,NA,NA,NA,NA,NA
"600","flanker_test","39","image-keyboard-response","184","1916841","0.0-6.0-2.0-0.0","1","2020-1-6 21:11:2","OTTER",NA,NA,NA,NA,NA,"incongruent","right","TRUE",NA,NA,NA,NA,NA,NA
"462","flanker_test","37","image-keyboard-response","185","1917882","0.0-6.0-2.0-0.1","1","2020-1-6 21:11:2","OTTER",NA,NA,NA,NA,NA,"incongruent","left","TRUE",NA,NA,NA,NA,NA,NA
"435","flanker_test","39","image-keyboard-response","186","1919310","0.0-6.0-2.0-0.2","1","2020-1-6 21:11:2","OTTER",NA,NA,NA,NA,NA,"congruent","right","TRUE",NA,NA,NA,NA,NA,NA
"427","flanker_test","37","image-keyboard-response","187","1920224","0.0-6.0-2.0-0.3","1","2020-1-6 21:11:2","OTTER",NA,NA,NA,NA,NA,"congruent","left","TRUE",NA,NA,NA,NA,NA,NA
"21589","sort_trial",NA,"free-sort","188","1942795","0.0-6.0-3.0","1","2020-1-6 21:11:2","OTTER",NA,NA,NA,NA,NA,NA,NA,NA,"[{""cat"":18,""src"":1,""x"":73,""y"":437},{""cat"":27,""src"":2,""x"":7,""y"":371},{""cat"":12,""src"":3,""x"":61,""y"":63},{""cat"":18,""src"":15,""x"":83,""y"":320},{""cat"":12,""src"":0,""x"":67,""y"":121},{""cat"":27,""src"":13,""x"":63,""y"":246},{""cat"":18,""src"":10,""x"":71,""y"":195},{""cat"":27,""src"":4,""x"":77,""y"":4},{""cat"":12,""src"":4,""x"":20,""y"":480}]","[{""cat"":""27"",""src"":""4"",""x"":0,""y"":0},{""cat"":""27"",""src"":""13"",""x"":0,""y"":0},{""cat"":""18"",""src"":""15"",""x"":0,""y"":0},{""cat"":""18"",""src"":""1"",""x"":0,""y"":0},{""cat"":""18"",""src"":""10"",""x"":0,""y"":0},{""cat"":""12"",""src"":""0"",""x"":0,""y"":0},{""cat"":""12"",""src"":""3"",""x"":258,""y"":154},{""cat"":""12"",""src"":""4"",""x"":0,""y"":0},{""cat"":""27"",""src"":""2"",""x"":0,""y"":0},{""cat"":""12"",""src"":""3"",""x"":0,""y"":0}]","[{""cat"":27,""src"":4,""loc"":4},{""cat"":27,""src"":13,""loc"":8},{""cat"":18,""src"":15,""loc"":6},{""cat"":18,""src"":1,""loc"":3},{""cat"":18,""src"":10,""loc"":1},{""cat"":12,""src"":0,""loc"":2},{""cat"":12,""src"":4,""loc"":5},{""cat"":27,""src"":2,""loc"":0},{""cat"":12,""src"":3,""loc"":7}]","3","27,18,12,18,27,12,18,12,27,2,10,0,1,4,4,15,3,13,0,1,2,3,4,5,6,7,8,7,4,5,3,0,6,2,8,1",NA
"153554","sort_feedback","78","html-keyboard-response","189","2096354","0.0-6.0-4.0","1","2020-1-6 21:11:2","OTTER",NA,NA,NA,NA,NA,NA,NA,NA,NA,NA,NA,NA,NA,NA
"19974","setup1",NA,"animation","190","2116334","0.0-6.0-5.0","1","2020-1-6 21:11:2","OTTER",NA,NA,"[{""cat"":8,""src"":4,""loc"":0},{""cat"":8,""src"":13,""loc"":1},{""cat"":8,""src"":1,""loc"":2},{""cat"":9,""src"":1,""loc"":8},{""cat"":9,""src"":7,""loc"":6},{""cat"":9,""src"":19,""loc"":7},{""cat"":20,""src"":11,""loc"":5},{""cat"":20,""src"":9,""loc"":3},{""cat"":20,""src"":17,""loc"":4}]","1","1114,1110,1107,1105,1108,1106,1105,1104,1112,10003",NA,NA,NA,NA,NA,NA,NA,NA,NA
"1821","flanker_instructions","39","html-keyboard-response","191","2118164","0.0-6.0-6.0","1","2020-1-6 21:11:2","OTTER",NA,NA,NA,NA,NA,NA,NA,NA,NA,NA,NA,NA,NA,NA
"562","flanker_test","39","image-keyboard-response","192","2119739","0.0-6.0-7.0-0.0","1","2020-1-6 21:11:2","OTTER",NA,NA,NA,NA,NA,"incongruent","right","TRUE",NA,NA,NA,NA,NA,NA
"571","flanker_test","37","image-keyboard-response","193","2121291","0.0-6.0-7.0-0.1","1","2020-1-6 21:11:2","OTTER",NA,NA,NA,NA,NA,"incongruent","left","TRUE",NA,NA,NA,NA,NA,NA
"659","flanker_test","37","image-keyboard-response","194","2122841","0.0-6.0-7.0-0.2","1","2020-1-6 21:11:2","OTTER",NA,NA,NA,NA,NA,"congruent","left","TRUE",NA,NA,NA,NA,NA,NA
"508","flanker_test","39","image-keyboard-response","195","2124136","0.0-6.0-7.0-0.3","1","2020-1-6 21:11:2","OTTER",NA,NA,NA,NA,NA,"congruent","right","TRUE",NA,NA,NA,NA,NA,NA
"32128","sort_trial",NA,"free-sort","196","2156961","0.0-6.0-8.0","1","2020-1-6 21:11:2","OTTER",NA,NA,NA,NA,NA,NA,NA,NA,"[{""cat"":8,""src"":4,""x"":11,""y"":127},{""cat"":8,""src"":13,""x"":61,""y"":20},{""cat"":8,""src"":1,""x"":63,""y"":493},{""cat"":9,""src"":1,""x"":4,""y"":83},{""cat"":9,""src"":7,""x"":52,""y"":382},{""cat"":9,""src"":19,""x"":83,""y"":302},{""cat"":20,""src"":11,""x"":59,""y"":246},{""cat"":20,""src"":9,""x"":10,""y"":184},{""cat"":20,""src"":17,""x"":58,""y"":435}]","[{""cat"":""8"",""src"":""13"",""x"":0,""y"":0},{""cat"":""20"",""src"":""17"",""x"":0,""y"":0},{""cat"":""20"",""src"":""9"",""x"":0,""y"":0},{""cat"":""9"",""src"":""1"",""x"":0,""y"":0},{""cat"":""9"",""src"":""7"",""x"":0,""y"":0},{""cat"":""9"",""src"":""19"",""x"":0,""y"":0},{""cat"":""8"",""src"":""4"",""x"":0,""y"":0},{""cat"":""8"",""src"":""1"",""x"":0,""y"":0},{""cat"":""20"",""src"":""11"",""x"":273,""y"":397},{""cat"":""20"",""src"":""11"",""x"":0,""y"":0}]","[{""cat"":8,""src"":13,""loc"":5},{""cat"":20,""src"":17,""loc"":4},{""cat"":20,""src"":9,""loc"":3},{""cat"":9,""src"":1,""loc"":1},{""cat"":9,""src"":7,""loc"":2},{""cat"":9,""src"":19,""loc"":0},{""cat"":8,""src"":4,""loc"":8},{""cat"":8,""src"":1,""loc"":6},{""cat"":20,""src"":11,""loc"":7}]","2","9,9,9,20,20,8,8,20,8,19,1,7,9,17,13,1,11,4,0,1,2,3,4,5,6,7,8,5,3,4,2,1,0,7,8,6",NA
"1113","sort_feedback","74","html-keyboard-response","197","2158080","0.0-6.0-9.0","1","2020-1-6 21:11:2","OTTER",NA,NA,NA,NA,NA,NA,NA,NA,NA,NA,NA,NA,NA,NA
"19969","setup4",NA,"animation","198","2178053","0.0-6.0-10.0","1","2020-1-6 21:11:2","OTTER",NA,NA,"[{""cat"":9,""src"":18,""loc"":0},{""cat"":9,""src"":1,""loc"":7},{""cat"":9,""src"":16,""loc"":4},{""cat"":2,""src"":19,""loc"":6},{""cat"":2,""src"":4,""loc"":1},{""cat"":2,""src"":18,""loc"":5},{""cat"":22,""src"":8,""loc"":8},{""cat"":22,""src"":12,""loc"":3},{""cat"":22,""src"":13,""loc"":2}]","4","1113,1103,1105,1108,1106,1106,1106,1109,1110,10002",NA,NA,NA,NA,NA,NA,NA,NA,NA
"1006","flanker_instructions","39","html-keyboard-response","199","2179065","0.0-6.0-11.0","1","2020-1-6 21:11:2","OTTER",NA,NA,NA,NA,NA,NA,NA,NA,NA,NA,NA,NA,NA,NA
"496","flanker_test","39","image-keyboard-response","200","2180573","0.0-6.0-12.0-0.0","1","2020-1-6 21:11:2","OTTER",NA,NA,NA,NA,NA,"incongruent","right","TRUE",NA,NA,NA,NA,NA,NA
"487","flanker_test","37","image-keyboard-response","201","2181516","0.0-6.0-12.0-0.1","1","2020-1-6 21:11:2","OTTER",NA,NA,NA,NA,NA,"congruent","left","TRUE",NA,NA,NA,NA,NA,NA
"419","flanker_test","39","image-keyboard-response","202","2182479","0.0-6.0-12.0-0.2","1","2020-1-6 21:11:2","OTTER",NA,NA,NA,NA,NA,"congruent","right","TRUE",NA,NA,NA,NA,NA,NA
"552","flanker_test","37","image-keyboard-response","203","2183965","0.0-6.0-12.0-0.3","1","2020-1-6 21:11:2","OTTER",NA,NA,NA,NA,NA,"incongruent","left","TRUE",NA,NA,NA,NA,NA,NA
"24122","sort_trial",NA,"free-sort","204","2209182","0.0-6.0-13.0","1","2020-1-6 21:11:2","OTTER",NA,NA,NA,NA,NA,NA,NA,NA,"[{""cat"":9,""src"":18,""x"":67,""y"":125},{""cat"":9,""src"":1,""x"":42,""y"":362},{""cat"":9,""src"":16,""x"":76,""y"":197},{""cat"":2,""src"":19,""x"":33,""y"":77},{""cat"":2,""src"":4,""x"":72,""y"":435},{""cat"":2,""src"":18,""x"":46,""y"":479},{""cat"":22,""src"":8,""x"":27,""y"":240},{""cat"":22,""src"":12,""x"":56,""y"":326},{""cat"":22,""src"":13,""x"":28,""y"":16}]","[{""cat"":""9"",""src"":""1"",""x"":227,""y"":378},{""cat"":""9"",""src"":""1"",""x"":0,""y"":0},{""cat"":""2"",""src"":""19"",""x"":0,""y"":0},{""cat"":""22"",""src"":""8"",""x"":0,""y"":0},{""cat"":""9"",""src"":""16"",""x"":0,""y"":0},{""cat"":""2"",""src"":""4"",""x"":0,""y"":0},{""cat"":""2"",""src"":""18"",""x"":0,""y"":0},{""cat"":""9"",""src"":""18"",""x"":0,""y"":0},{""cat"":""22"",""src"":""13"",""x"":0,""y"":0},{""cat"":""22"",""src"":""12"",""x"":56,""y"":326},{""cat"":""22"",""src"":""12"",""x"":0,""y"":0}]","[{""cat"":9,""src"":1,""loc"":7},{""cat"":2,""src"":19,""loc"":6},{""cat"":22,""src"":8,""loc"":8},{""cat"":9,""src"":16,""loc"":4},{""cat"":2,""src"":4,""loc"":3},{""cat"":2,""src"":18,""loc"":5},{""cat"":9,""src"":18,""loc"":1},{""cat"":22,""src"":13,""loc"":0},{""cat"":22,""src"":12,""loc"":2}]","5","22,9,22,2,9,2,2,9,22,13,18,12,4,16,18,19,1,8,0,1,2,3,4,5,6,7,8,7,6,8,4,3,5,1,0,2",NA
"1307","sort_feedback","72","html-keyboard-response","205","2210501","0.0-6.0-14.0","1","2020-1-6 21:11:2","OTTER",NA,NA,NA,NA,NA,NA,NA,NA,NA,NA,NA,NA,NA,NA
"19963","setup5",NA,"animation","206","2230465","0.0-6.0-15.0","1","2020-1-6 21:11:2","OTTER",NA,NA,"[{""cat"":29,""src"":4,""loc"":5},{""cat"":6,""src"":14,""loc"":6},{""cat"":16,""src"":17,""loc"":0},{""cat"":16,""src"":16,""loc"":4},{""cat"":6,""src"":3,""loc"":1},{""cat"":29,""src"":3,""loc"":8},{""cat"":29,""src"":6,""loc"":2},{""cat"":16,""src"":5,""loc"":7},{""cat"":6,""src"":2,""loc"":3}]","5","1111,1104,1102,1106,1108,1108,1109,1109,1102,10004",NA,NA,NA,NA,NA,NA,NA,NA,NA
"2245","flanker_instructions","37","html-keyboard-response","207","2232714","0.0-6.0-16.0","1","2020-1-6 21:11:2","OTTER",NA,NA,NA,NA,NA,NA,NA,NA,NA,NA,NA,NA,NA,NA
"631","flanker_test","37","image-keyboard-response","208","2234354","0.0-6.0-17.0-0.0","1","2020-1-6 21:11:2","OTTER",NA,NA,NA,NA,NA,"incongruent","left","TRUE",NA,NA,NA,NA,NA,NA
"480","flanker_test","37","image-keyboard-response","209","2235486","0.0-6.0-17.0-0.1","1","2020-1-6 21:11:2","OTTER",NA,NA,NA,NA,NA,"congruent","left","TRUE",NA,NA,NA,NA,NA,NA
"534","flanker_test","39","image-keyboard-response","210","2236921","0.0-6.0-17.0-0.2","1","2020-1-6 21:11:2","OTTER",NA,NA,NA,NA,NA,"incongruent","right","TRUE",NA,NA,NA,NA,NA,NA
"471","flanker_test","39","image-keyboard-response","211","2238563","0.0-6.0-17.0-0.3","1","2020-1-6 21:11:2","OTTER",NA,NA,NA,NA,NA,"congruent","right","TRUE",NA,NA,NA,NA,NA,NA
"20862","sort_trial",NA,"free-sort","212","2260051","0.0-6.0-18.0","1","2020-1-6 21:11:2","OTTER",NA,NA,NA,NA,NA,NA,NA,NA,"[{""cat"":29,""src"":4,""x"":19,""y"":308},{""cat"":6,""src"":14,""x"":10,""y"":488},{""cat"":16,""src"":17,""x"":21,""y"":80},{""cat"":16,""src"":16,""x"":25,""y"":259},{""cat"":6,""src"":3,""x"":4,""y"":147},{""cat"":29,""src"":3,""x"":46,""y"":376},{""cat"":29,""src"":6,""x"":42,""y"":422},{""cat"":16,""src"":5,""x"":4,""y"":23},{""cat"":6,""src"":2,""x"":70,""y"":188}]","[{""cat"":""29"",""src"":""6"",""x"":0,""y"":0},{""cat"":""29"",""src"":""3"",""x"":0,""y"":0},{""cat"":""29"",""src"":""4"",""x"":0,""y"":0},{""cat"":""16"",""src"":""17"",""x"":0,""y"":0},{""cat"":""16"",""src"":""5"",""x"":0,""y"":0},{""cat"":""16"",""src"":""16"",""x"":0,""y"":0},{""cat"":""6"",""src"":""14"",""x"":0,""y"":0},{""cat"":""6"",""src"":""3"",""x"":0,""y"":0},{""cat"":""6"",""src"":""2"",""x"":0,""y"":0}]","[{""cat"":29,""src"":6,""loc"":2},{""cat"":29,""src"":3,""loc"":8},{""cat"":29,""src"":4,""loc"":5},{""cat"":16,""src"":17,""loc"":0},{""cat"":16,""src"":5,""loc"":7},{""cat"":16,""src"":16,""loc"":4},{""cat"":6,""src"":14,""loc"":6},{""cat"":6,""src"":3,""loc"":1},{""cat"":6,""src"":2,""loc"":3}]","9","16,6,29,6,16,29,6,16,29,17,3,6,2,16,4,14,5,3,0,1,2,3,4,5,6,7,8,3,7,0,8,5,2,6,4,1",NA
"1161","sort_feedback","74","html-keyboard-response","213","2261217","0.0-6.0-19.0","1","2020-1-6 21:11:2","OTTER",NA,NA,NA,NA,NA,NA,NA,NA,NA,NA,NA,NA,NA,NA
"19963","setup3",NA,"animation","214","2281184","0.0-6.0-20.0","1","2020-1-6 21:11:2","OTTER",NA,NA,"[{""cat"":18,""src"":19,""loc"":5},{""cat"":25,""src"":2,""loc"":6},{""cat"":26,""src"":19,""loc"":1},{""cat"":25,""src"":12,""loc"":8},{""cat"":18,""src"":1,""loc"":4},{""cat"":26,""src"":10,""loc"":0},{""cat"":18,""src"":18,""loc"":3},{""cat"":26,""src"":16,""loc"":2},{""cat"":25,""src"":17,""loc"":7}]","3","1114,1107,1104,1103,1104,1107,1109,1102,1110,10002",NA,NA,NA,NA,NA,NA,NA,NA,NA
"1783","flanker_instructions","37","html-keyboard-response","215","2282977","0.0-6.0-21.0","1","2020-1-6 21:11:2","OTTER",NA,NA,NA,NA,NA,NA,NA,NA,NA,NA,NA,NA,NA,NA
"594","flanker_test","37","image-keyboard-response","216","2284588","0.0-6.0-22.0-0.0","1","2020-1-6 21:11:2","OTTER",NA,NA,NA,NA,NA,"congruent","left","TRUE",NA,NA,NA,NA,NA,NA
"643","flanker_test","37","image-keyboard-response","217","2285865","0.0-6.0-22.0-0.1","1","2020-1-6 21:11:2","OTTER",NA,NA,NA,NA,NA,"incongruent","left","TRUE",NA,NA,NA,NA,NA,NA
"417","flanker_test","37","image-keyboard-response","218","2287348","0.0-6.0-22.0-0.2","1","2020-1-6 21:11:2","OTTER",NA,NA,NA,NA,NA,"incongruent","right","FALSE",NA,NA,NA,NA,NA,NA
"474","flanker_test","39","image-keyboard-response","219","2288669","0.0-6.0-22.0-0.3","1","2020-1-6 21:11:2","OTTER",NA,NA,NA,NA,NA,"congruent","right","TRUE",NA,NA,NA,NA,NA,NA
"27395","sort_trial",NA,"free-sort","220","2316783","0.0-6.0-23.0","1","2020-1-6 21:11:2","OTTER",NA,NA,NA,NA,NA,NA,NA,NA,"[{""cat"":18,""src"":19,""x"":38,""y"":361},{""cat"":25,""src"":2,""x"":1,""y"":126},{""cat"":26,""src"":19,""x"":41,""y"":422},{""cat"":25,""src"":12,""x"":5,""y"":203},{""cat"":18,""src"":1,""x"":3,""y"":70},{""cat"":26,""src"":10,""x"":15,""y"":11},{""cat"":18,""src"":18,""x"":66,""y"":249},{""cat"":26,""src"":16,""x"":7,""y"":498},{""cat"":25,""src"":17,""x"":15,""y"":319}]","[{""cat"":""26"",""src"":""19"",""x"":0,""y"":0},{""cat"":""26"",""src"":""10"",""x"":0,""y"":0},{""cat"":""26"",""src"":""16"",""x"":0,""y"":0},{""cat"":""25"",""src"":""2"",""x"":0,""y"":0},{""cat"":""18"",""src"":""1"",""x"":0,""y"":0},{""cat"":""18"",""src"":""19"",""x"":0,""y"":0},{""cat"":""18"",""src"":""18"",""x"":0,""y"":0},{""cat"":""25"",""src"":""12"",""x"":0,""y"":0},{""cat"":""25"",""src"":""17"",""x"":0,""y"":0}]","[{""cat"":26,""src"":19,""loc"":1},{""cat"":26,""src"":10,""loc"":0},{""cat"":26,""src"":16,""loc"":2},{""cat"":25,""src"":2,""loc"":6},{""cat"":18,""src"":1,""loc"":4},{""cat"":18,""src"":19,""loc"":5},{""cat"":18,""src"":18,""loc"":3},{""cat"":25,""src"":12,""loc"":8},{""cat"":25,""src"":17,""loc"":7}]","9","26,26,26,18,18,18,25,25,25,10,19,16,18,1,19,2,17,12,0,1,2,3,4,5,6,7,8,1,0,2,6,4,5,3,8,7",NA
"1264","sort_feedback","77","html-keyboard-response","221","2318052","0.0-6.0-24.0","1","2020-1-6 21:11:2","OTTER",NA,NA,NA,NA,NA,NA,NA,NA,NA,NA,NA,NA,NA,NA
"19975","setup2",NA,"animation","222","2338031","0.0-6.0-25.0","1","2020-1-6 21:11:2","OTTER",NA,NA,"[{""cat"":30,""src"":2,""loc"":8},{""cat"":1,""src"":7,""loc"":7},{""cat"":23,""src"":8,""loc"":6},{""cat"":23,""src"":3,""loc"":2},{""cat"":1,""src"":11,""loc"":1},{""cat"":30,""src"":16,""loc"":0},{""cat"":23,""src"":6,""loc"":4},{""cat"":1,""src"":8,""loc"":3},{""cat"":30,""src"":12,""loc"":5}]","2","1110,1105,1107,1110,1107,1105,1107,1109,1110,10005",NA,NA,NA,NA,NA,NA,NA,NA,NA
"975","flanker_instructions","39","html-keyboard-response","223","2339015","0.0-6.0-26.0","1","2020-1-6 21:11:2","OTTER",NA,NA,NA,NA,NA,NA,NA,NA,NA,NA,NA,NA,NA,NA
"594","flanker_test","37","image-keyboard-response","224","2340619","0.0-6.0-27.0-0.0","1","2020-1-6 21:11:2","OTTER",NA,NA,NA,NA,NA,"incongruent","left","TRUE",NA,NA,NA,NA,NA,NA
"445","flanker_test","39","image-keyboard-response","225","2341476","0.0-6.0-27.0-0.1","1","2020-1-6 21:11:2","OTTER",NA,NA,NA,NA,NA,"congruent","right","TRUE",NA,NA,NA,NA,NA,NA
"450","flanker_test","37","image-keyboard-response","226","2342272","0.0-6.0-27.0-0.2","1","2020-1-6 21:11:2","OTTER",NA,NA,NA,NA,NA,"congruent","left","TRUE",NA,NA,NA,NA,NA,NA
"512","flanker_test","39","image-keyboard-response","227","2343835","0.0-6.0-27.0-0.3","1","2020-1-6 21:11:2","OTTER",NA,NA,NA,NA,NA,"incongruent","right","TRUE",NA,NA,NA,NA,NA,NA
"24793","sort_trial",NA,"free-sort","228","2368988","0.0-6.0-28.0","1","2020-1-6 21:11:2","OTTER",NA,NA,NA,NA,NA,NA,NA,NA,"[{""cat"":30,""src"":2,""x"":70,""y"":149},{""cat"":1,""src"":7,""x"":54,""y"":265},{""cat"":23,""src"":8,""x"":16,""y"":201},{""cat"":23,""src"":3,""x"":63,""y"":319},{""cat"":1,""src"":11,""x"":79,""y"":382},{""cat"":30,""src"":16,""x"":73,""y"":429},{""cat"":23,""src"":6,""x"":27,""y"":12},{""cat"":1,""src"":8,""x"":72,""y"":500},{""cat"":30,""src"":12,""x"":2,""y"":75}]","[{""cat"":""1"",""src"":""7"",""x"":0,""y"":0},{""cat"":""23"",""src"":""8"",""x"":0,""y"":0},{""cat"":""30"",""src"":""2"",""x"":0,""y"":0},{""cat"":""23"",""src"":""3"",""x"":0,""y"":0},{""cat"":""23"",""src"":""6"",""x"":0,""y"":0},{""cat"":""1"",""src"":""8"",""x"":0,""y"":0},{""cat"":""1"",""src"":""11"",""x"":0,""y"":0},{""cat"":""30"",""src"":""16"",""x"":0,""y"":0},{""cat"":""30"",""src"":""12"",""x"":0,""y"":0}]","[{""cat"":1,""src"":7,""loc"":7},{""cat"":23,""src"":8,""loc"":6},{""cat"":30,""src"":2,""loc"":8},{""cat"":23,""src"":3,""loc"":2},{""cat"":23,""src"":6,""loc"":4},{""cat"":1,""src"":8,""loc"":3},{""cat"":1,""src"":11,""loc"":1},{""cat"":30,""src"":16,""loc"":0},{""cat"":30,""src"":12,""loc"":5}]","9","30,1,23,1,23,30,23,1,30,16,11,3,8,6,12,8,7,2,0,1,2,3,4,5,6,7,8,7,6,3,5,4,8,1,0,2",NA
"997","sort_feedback","74","html-keyboard-response","229","2369989","0.0-6.0-29.0","1","2020-1-6 21:11:2","OTTER",NA,NA,NA,NA,NA,NA,NA,NA,NA,NA,NA,NA,NA,NA
"19950","setup3",NA,"animation","230","2389940","0.0-6.0-30.0","1","2020-1-6 21:11:2","OTTER",NA,NA,"[{""cat"":1,""src"":11,""loc"":1},{""cat"":13,""src"":6,""loc"":5},{""cat"":24,""src"":5,""loc"":7},{""cat"":1,""src"":12,""loc"":2},{""cat"":13,""src"":12,""loc"":3},{""cat"":24,""src"":18,""loc"":6},{""cat"":13,""src"":13,""loc"":4},{""cat"":24,""src"":14,""loc"":8},{""cat"":1,""src"":16,""loc"":0}]","3","1106,1103,1103,1108,1107,1104,1106,1104,1108,10001",NA,NA,NA,NA,NA,NA,NA,NA,NA
"1957","flanker_instructions","39","html-keyboard-response","231","2391902","0.0-6.0-31.0","1","2020-1-6 21:11:2","OTTER",NA,NA,NA,NA,NA,NA,NA,NA,NA,NA,NA,NA,NA,NA
NA,"flanker_test",NA,"image-keyboard-response","232","2393813","0.0-6.0-32.0-0.0","1","2020-1-6 21:11:2","OTTER",NA,NA,NA,NA,NA,"incongruent","left","FALSE",NA,NA,NA,NA,NA,NA
"686","flanker_test","39","image-keyboard-response","233","2394981","0.0-6.0-32.0-0.1","1","2020-1-6 21:11:2","OTTER",NA,NA,NA,NA,NA,"incongruent","right","TRUE",NA,NA,NA,NA,NA,NA
"471","flanker_test","37","image-keyboard-response","234","2396441","0.0-6.0-32.0-0.2","1","2020-1-6 21:11:2","OTTER",NA,NA,NA,NA,NA,"congruent","left","TRUE",NA,NA,NA,NA,NA,NA
"451","flanker_test","39","image-keyboard-response","235","2398069","0.0-6.0-32.0-0.3","1","2020-1-6 21:11:2","OTTER",NA,NA,NA,NA,NA,"congruent","right","TRUE",NA,NA,NA,NA,NA,NA
"26502","sort_trial",NA,"free-sort","236","2425531","0.0-6.0-33.0","1","2020-1-6 21:11:2","OTTER",NA,NA,NA,NA,NA,NA,NA,NA,"[{""cat"":1,""src"":11,""x"":51,""y"":360},{""cat"":13,""src"":6,""x"":24,""y"":429},{""cat"":24,""src"":5,""x"":76,""y"":481},{""cat"":1,""src"":12,""x"":3,""y"":260},{""cat"":13,""src"":12,""x"":19,""y"":60},{""cat"":24,""src"":18,""x"":15,""y"":308},{""cat"":13,""src"":13,""x"":50,""y"":144},{""cat"":24,""src"":14,""x"":74,""y"":5},{""cat"":1,""src"":16,""x"":35,""y"":205}]","[{""cat"":""1"",""src"":""16"",""x"":0,""y"":0},{""cat"":""1"",""src"":""11"",""x"":0,""y"":0},{""cat"":""1"",""src"":""12"",""x"":0,""y"":0},{""cat"":""13"",""src"":""6"",""x"":0,""y"":0},{""cat"":""24"",""src"":""14"",""x"":74,""y"":5},{""cat"":""13"",""src"":""13"",""x"":0,""y"":0},{""cat"":""13"",""src"":""12"",""x"":0,""y"":0},{""cat"":""24"",""src"":""18"",""x"":0,""y"":0},{""cat"":""24"",""src"":""5"",""x"":0,""y"":0},{""cat"":""24"",""src"":""14"",""x"":0,""y"":0}]","[{""cat"":1,""src"":16,""loc"":0},{""cat"":1,""src"":11,""loc"":1},{""cat"":1,""src"":12,""loc"":2},{""cat"":13,""src"":6,""loc"":5},{""cat"":13,""src"":13,""loc"":4},{""cat"":13,""src"":12,""loc"":3},{""cat"":24,""src"":18,""loc"":7},{""cat"":24,""src"":5,""loc"":6},{""cat"":24,""src"":14,""loc"":8}]","7","1,1,1,13,13,13,24,24,24,16,11,12,12,13,6,5,18,14,0,1,2,3,4,5,6,7,8,0,1,2,5,4,3,7,6,8",NA
"2195","sort_feedback","73","html-keyboard-response","237","2427732","0.0-6.0-34.0","1","2020-1-6 21:11:2","OTTER",NA,NA,NA,NA,NA,NA,NA,NA,NA,NA,NA,NA,NA,NA
"19959","setup5",NA,"animation","238","2447693","0.0-6.0-35.0","1","2020-1-6 21:11:2","OTTER",NA,NA,"[{""cat"":19,""src"":3,""loc"":1},{""cat"":22,""src"":1,""loc"":8},{""cat"":27,""src"":12,""loc"":5},{""cat"":22,""src"":10,""loc"":3},{""cat"":19,""src"":10,""loc"":6},{""cat"":27,""src"":15,""loc"":0},{""cat"":22,""src"":16,""loc"":2},{""cat"":27,""src"":18,""loc"":7},{""cat"":19,""src"":0,""loc"":4}]","5","1111,1104,1105,1108,1107,1106,1107,1104,1105,10002",NA,NA,NA,NA,NA,NA,NA,NA,NA
"1534","flanker_instructions","39","html-keyboard-response","239","2449230","0.0-6.0-36.0","1","2020-1-6 21:11:2","OTTER",NA,NA,NA,NA,NA,NA,NA,NA,NA,NA,NA,NA,NA,NA
"653","flanker_test","39","image-keyboard-response","240","2450894","0.0-6.0-37.0-0.0","1","2020-1-6 21:11:2","OTTER",NA,NA,NA,NA,NA,"incongruent","right","TRUE",NA,NA,NA,NA,NA,NA
"454","flanker_test","37","image-keyboard-response","241","2452487","0.0-6.0-37.0-0.1","1","2020-1-6 21:11:2","OTTER",NA,NA,NA,NA,NA,"incongruent","left","TRUE",NA,NA,NA,NA,NA,NA
"423","flanker_test","37","image-keyboard-response","242","2454081","0.0-6.0-37.0-0.2","1","2020-1-6 21:11:2","OTTER",NA,NA,NA,NA,NA,"congruent","left","TRUE",NA,NA,NA,NA,NA,NA
"436","flanker_test","39","image-keyboard-response","243","2455451","0.0-6.0-37.0-0.3","1","2020-1-6 21:11:2","OTTER",NA,NA,NA,NA,NA,"congruent","right","TRUE",NA,NA,NA,NA,NA,NA
"20369","sort_trial",NA,"free-sort","244","2476502","0.0-6.0-38.0","1","2020-1-6 21:11:2","OTTER",NA,NA,NA,NA,NA,NA,NA,NA,"[{""cat"":19,""src"":3,""x"":14,""y"":24},{""cat"":22,""src"":1,""x"":16,""y"":202},{""cat"":27,""src"":12,""x"":64,""y"":147},{""cat"":22,""src"":10,""x"":63,""y"":72},{""cat"":19,""src"":10,""x"":32,""y"":377},{""cat"":27,""src"":15,""x"":34,""y"":264},{""cat"":22,""src"":16,""x"":25,""y"":492},{""cat"":27,""src"":18,""x"":81,""y"":312},{""cat"":19,""src"":0,""x"":11,""y"":448}]","[{""cat"":""27"",""src"":""15"",""x"":0,""y"":0},{""cat"":""19"",""src"":""10"",""x"":0,""y"":0},{""cat"":""19"",""src"":""3"",""x"":0,""y"":0},{""cat"":""27"",""src"":""12"",""x"":0,""y"":0},{""cat"":""27"",""src"":""18"",""x"":0,""y"":0},{""cat"":""22"",""src"":""16"",""x"":0,""y"":0},{""cat"":""22"",""src"":""1"",""x"":0,""y"":0},{""cat"":""19"",""src"":""0"",""x"":0,""y"":0},{""cat"":""22"",""src"":""10"",""x"":0,""y"":0}]","[{""cat"":27,""src"":15,""loc"":0},{""cat"":19,""src"":10,""loc"":6},{""cat"":19,""src"":3,""loc"":1},{""cat"":27,""src"":12,""loc"":5},{""cat"":27,""src"":18,""loc"":7},{""cat"":22,""src"":16,""loc"":2},{""cat"":22,""src"":1,""loc"":3},{""cat"":19,""src"":0,""loc"":8},{""cat"":22,""src"":10,""loc"":4}]","6","27,19,22,22,22,27,19,27,19,15,3,16,1,10,12,10,18,0,0,1,2,3,4,5,6,7,8,0,2,5,6,8,3,1,4,7",NA
"1004","sort_feedback","75","html-keyboard-response","245","2477515","0.0-6.0-39.0","1","2020-1-6 21:11:2","OTTER",NA,NA,NA,NA,NA,NA,NA,NA,NA,NA,NA,NA,NA,NA
"19967","setup1",NA,"animation","246","2497486","0.0-6.0-40.0","1","2020-1-6 21:11:2","OTTER",NA,NA,"[{""cat"":13,""src"":9,""loc"":2},{""cat"":13,""src"":8,""loc"":1},{""cat"":13,""src"":18,""loc"":0},{""cat"":14,""src"":4,""loc"":8},{""cat"":14,""src"":14,""loc"":7},{""cat"":14,""src"":8,""loc"":6},{""cat"":11,""src"":15,""loc"":3},{""cat"":11,""src"":1,""loc"":5},{""cat"":11,""src"":5,""loc"":4}]","1","1111,1103,1105,1106,1104,1107,1111,1105,1106,10008",NA,NA,NA,NA,NA,NA,NA,NA,NA
"2381","flanker_instructions","39","html-keyboard-response","247","2499886","0.0-6.0-41.0","1","2020-1-6 21:11:2","OTTER",NA,NA,NA,NA,NA,NA,NA,NA,NA,NA,NA,NA,NA,NA
"583","flanker_test","37","image-keyboard-response","248","2501478","0.0-6.0-42.0-0.0","1","2020-1-6 21:11:2","OTTER",NA,NA,NA,NA,NA,"congruent","left","TRUE",NA,NA,NA,NA,NA,NA
"593","flanker_test","39","image-keyboard-response","249","2502505","0.0-6.0-42.0-0.1","1","2020-1-6 21:11:2","OTTER",NA,NA,NA,NA,NA,"congruent","right","TRUE",NA,NA,NA,NA,NA,NA
"438","flanker_test","37","image-keyboard-response","250","2503977","0.0-6.0-42.0-0.2","1","2020-1-6 21:11:2","OTTER",NA,NA,NA,NA,NA,"incongruent","right","FALSE",NA,NA,NA,NA,NA,NA
"801","flanker_test","37","image-keyboard-response","251","2505169","0.0-6.0-42.0-0.3","1","2020-1-6 21:11:2","OTTER",NA,NA,NA,NA,NA,"incongruent","left","TRUE",NA,NA,NA,NA,NA,NA
"22688","sort_trial",NA,"free-sort","252","2528625","0.0-6.0-43.0","1","2020-1-6 21:11:2","OTTER",NA,NA,NA,NA,NA,NA,NA,NA,"[{""cat"":13,""src"":9,""x"":43,""y"":261},{""cat"":13,""src"":8,""x"":38,""y"":502},{""cat"":13,""src"":18,""x"":83,""y"":23},{""cat"":14,""src"":4,""x"":0,""y"":375},{""cat"":14,""src"":14,""x"":31,""y"":200},{""cat"":14,""src"":8,""x"":79,""y"":147},{""cat"":11,""src"":15,""x"":73,""y"":304},{""cat"":11,""src"":1,""x"":24,""y"":76},{""cat"":11,""src"":5,""x"":67,""y"":429}]","[{""cat"":""11"",""src"":""1"",""x"":0,""y"":0},{""cat"":""11"",""src"":""5"",""x"":0,""y"":0},{""cat"":""11"",""src"":""15"",""x"":0,""y"":0},{""cat"":""13"",""src"":""8"",""x"":0,""y"":0},{""cat"":""13"",""src"":""18"",""x"":0,""y"":0},{""cat"":""13"",""src"":""9"",""x"":0,""y"":0},{""cat"":""14"",""src"":""4"",""x"":0,""y"":0},{""cat"":""14"",""src"":""14"",""x"":0,""y"":0},{""cat"":""14"",""src"":""8"",""x"":0,""y"":0}]","[{""cat"":11,""src"":1,""loc"":4},{""cat"":11,""src"":5,""loc"":5},{""cat"":11,""src"":15,""loc"":3},{""cat"":13,""src"":8,""loc"":1},{""cat"":13,""src"":18,""loc"":0},{""cat"":13,""src"":9,""loc"":2},{""cat"":14,""src"":4,""loc"":6},{""cat"":14,""src"":14,""loc"":7},{""cat"":14,""src"":8,""loc"":8}]","5","13,13,13,11,11,11,14,14,14,18,8,9,15,1,5,4,14,8,0,1,2,3,4,5,6,7,8,4,3,5,2,0,1,6,7,8",NA
"1042","sort_feedback","75","html-keyboard-response","253","2529673","0.0-6.0-44.0","1","2020-1-6 21:11:2","OTTER",NA,NA,NA,NA,NA,NA,NA,NA,NA,NA,NA,NA,NA,NA
"19964","setup4",NA,"animation","254","2549640","0.0-6.0-45.0","1","2020-1-6 21:11:2","OTTER",NA,NA,"[{""cat"":25,""src"":13,""loc"":4},{""cat"":25,""src"":6,""loc"":1},{""cat"":25,""src"":9,""loc"":8},{""cat"":23,""src"":17,""loc"":3},{""cat"":23,""src"":7,""loc"":2},{""cat"":23,""src"":19,""loc"":7},{""cat"":18,""src"":17,""loc"":5},{""cat"":18,""src"":3,""loc"":0},{""cat"":18,""src"":5,""loc"":6}]","4","1109,1104,1106,1106,1106,1107,1107,1112,1104,10003",NA,NA,NA,NA,NA,NA,NA,NA,NA
"1318","flanker_instructions","39","html-keyboard-response","255","2550963","0.0-6.0-46.0","1","2020-1-6 21:11:2","OTTER",NA,NA,NA,NA,NA,NA,NA,NA,NA,NA,NA,NA,NA,NA
"530","flanker_test","39","image-keyboard-response","256","2552502","0.0-6.0-47.0-0.0","1","2020-1-6 21:11:2","OTTER",NA,NA,NA,NA,NA,"incongruent","right","TRUE",NA,NA,NA,NA,NA,NA
"548","flanker_test","37","image-keyboard-response","257","2553942","0.0-6.0-47.0-0.1","1","2020-1-6 21:11:2","OTTER",NA,NA,NA,NA,NA,"congruent","left","TRUE",NA,NA,NA,NA,NA,NA
"429","flanker_test","39","image-keyboard-response","258","2555025","0.0-6.0-47.0-0.2","1","2020-1-6 21:11:2","OTTER",NA,NA,NA,NA,NA,"congruent","right","TRUE",NA,NA,NA,NA,NA,NA
"645","flanker_test","37","image-keyboard-response","259","2556198","0.0-6.0-47.0-0.3","1","2020-1-6 21:11:2","OTTER",NA,NA,NA,NA,NA,"incongruent","left","TRUE",NA,NA,NA,NA,NA,NA
"27416","sort_trial",NA,"free-sort","260","2584546","0.0-6.0-48.0","1","2020-1-6 21:11:2","OTTER",NA,NA,NA,NA,NA,NA,NA,NA,"[{""cat"":25,""src"":13,""x"":29,""y"":74},{""cat"":25,""src"":6,""x"":76,""y"":135},{""cat"":25,""src"":9,""x"":46,""y"":481},{""cat"":23,""src"":17,""x"":21,""y"":263},{""cat"":23,""src"":7,""x"":81,""y"":23},{""cat"":23,""src"":19,""x"":12,""y"":440},{""cat"":18,""src"":17,""x"":13,""y"":205},{""cat"":18,""src"":3,""x"":67,""y"":364},{""cat"":18,""src"":5,""x"":21,""y"":307}]","[{""cat"":""18"",""src"":""5"",""x"":0,""y"":0},{""cat"":""25"",""src"":""13"",""x"":0,""y"":0},{""cat"":""25"",""src"":""6"",""x"":0,""y"":0},{""cat"":""25"",""src"":""9"",""x"":0,""y"":0},{""cat"":""18"",""src"":""3"",""x"":0,""y"":0},{""cat"":""18"",""src"":""17"",""x"":0,""y"":0},{""cat"":""23"",""src"":""7"",""x"":0,""y"":0},{""cat"":""23"",""src"":""19"",""x"":0,""y"":0},{""cat"":""23"",""src"":""17"",""x"":0,""y"":0}]","[{""cat"":18,""src"":5,""loc"":6},{""cat"":25,""src"":13,""loc"":4},{""cat"":25,""src"":6,""loc"":1},{""cat"":25,""src"":9,""loc"":8},{""cat"":18,""src"":3,""loc"":0},{""cat"":18,""src"":17,""loc"":5},{""cat"":23,""src"":7,""loc"":2},{""cat"":23,""src"":19,""loc"":3},{""cat"":23,""src"":17,""loc"":7}]","7","18,25,23,23,25,18,18,23,25,3,6,7,19,13,17,5,17,9,0,1,2,3,4,5,6,7,8,4,2,6,7,1,5,0,8,3",NA
"797","sort_feedback","73","html-keyboard-response","261","2585358","0.0-6.0-49.0","1","2020-1-6 21:11:2","OTTER",NA,NA,NA,NA,NA,NA,NA,NA,NA,NA,NA,NA,NA,NA
"2106","demographics",NA,"html-button-response","262","2587473","0.0-7.0-0.0","1","2020-1-6 21:11:2","OTTER","0",NA,NA,NA,NA,NA,NA,NA,NA,NA,NA,NA,NA,NA
"4907","workerID",NA,"survey-text","263","2592387","0.0-7.0-1.0","1","2020-1-6 21:11:2","OTTER",NA,NA,NA,NA,NA,NA,NA,NA,NA,NA,NA,NA,NA,"{""Q0"":""A1OSRAPSRT934Z""}"
"5057","attn_check",NA,"survey-multi-choice","264","2597471","0.0-7.0-2.0","1","2020-1-6 21:11:2","OTTER",NA,NA,NA,NA,NA,NA,NA,NA,NA,NA,NA,NA,NA,"{""Q0"":""OTTER""}"
"2983","age",NA,"survey-text","265","2600464","0.0-7.0-3.0","1","2020-1-6 21:11:2","OTTER",NA,NA,NA,NA,NA,NA,NA,NA,NA,NA,NA,NA,NA,"{""Q0"":""30""}"
"2787","gender",NA,"survey-multi-choice","266","2603258","0.0-7.0-4.0","1","2020-1-6 21:11:2","OTTER",NA,NA,NA,NA,NA,NA,NA,NA,NA,NA,NA,NA,NA,"{""Q0"":""Female""}"
"1565","ethnic",NA,"survey-multi-choice","267","2604831","0.0-7.0-5.0","1","2020-1-6 21:11:2","OTTER",NA,NA,NA,NA,NA,NA,NA,NA,NA,NA,NA,NA,NA,"{""Q0"":""Not Hispanic or Latino""}"
"2168","race",NA,"survey-multi-select","268","2607016","0.0-7.0-6.0","1","2020-1-6 21:11:2","OTTER",NA,NA,NA,NA,NA,NA,NA,NA,NA,NA,NA,NA,NA,"{""Q0"":[""Black or African American""]}"
"1942","english",NA,"survey-multi-choice","269","2608967","0.0-7.0-7.0","1","2020-1-6 21:11:2","OTTER",NA,NA,NA,NA,NA,NA,NA,NA,NA,NA,NA,NA,NA,"{""Q0"":""Yes""}"
"3267","understand",NA,"survey-multi-choice","270","2612241","0.0-7.0-8.0","1","2020-1-6 21:11:2","OTTER",NA,NA,NA,NA,NA,NA,NA,NA,NA,NA,NA,NA,NA,"{""Q0"":""No""}"
"36762","strategies",NA,"survey-text","271","2649011","0.0-7.0-9.0","1","2020-1-6 21:11:2","OTTER",NA,NA,NA,NA,NA,NA,NA,NA,NA,NA,NA,NA,NA,"{""Q0"":""I tried to remember the words and placements and sometimes put them into different categories. I looked at the words as belonging together.""}"
"5191","comments",NA,"survey-text","272","2654205","0.0-7.0-10.0","1","2020-1-6 21:11:2","OTTER",NA,NA,NA,NA,NA,NA,NA,NA,NA,NA,NA,NA,NA,"{""Q0"":""Long but fun""}"
"2279","study_end",NA,"html-button-response","273","2656488","0.0-8.0","1","2020-1-6 21:11:2","OTTER","0",NA,NA,NA,NA,NA,NA,NA,NA,NA,NA,NA,NA,NA
