"rt","stimulus","key_press","trial_type","trial_index","time_elapsed","internal_node_id","session","startTime","attn_word","button_pressed","view_history","animation_sequence","condition","time_sequence","stim_type","direction","correct","init_locations","moves","final_locations","sort_correct","finalLocations","responses"
"864461","welcome","32","html-keyboard-response","0","864463","0.0-0.0","1","2020-1-6 21:40:52","MONKEY",NA,NA,NA,NA,NA,NA,NA,NA,NA,NA,NA,NA,NA,NA
"35118","consent",NA,"html-button-response","1","899583","0.0-1.0","1","2020-1-6 21:40:52","MONKEY","0",NA,NA,NA,NA,NA,NA,NA,NA,NA,NA,NA,NA,NA
"500004","instructions",NA,"instructions","2","1399588","0.0-2.0","1","2020-1-6 21:40:52","MONKEY",NA,"[{""page_index"":0,""viewing_time"":8479},{""page_index"":1,""viewing_time"":5690},{""page_index"":2,""viewing_time"":6904},{""page_index"":3,""viewing_time"":9483},{""page_index"":4,""viewing_time"":3542},{""page_index"":5,""viewing_time"":2256},{""page_index"":6,""viewing_time"":463650}]",NA,NA,NA,NA,NA,NA,NA,NA,NA,NA,NA,NA
"19915","setup5",NA,"animation","3","1419505","0.0-3.0-0.0","1","2020-1-6 21:40:52","MONKEY",NA,NA,"[{""cat"":6,""src"":2,""loc"":3},{""cat"":24,""src"":14,""loc"":6},{""cat"":7,""src"":12,""loc"":2},{""cat"":7,""src"":1,""loc"":5},{""cat"":24,""src"":3,""loc"":0},{""cat"":6,""src"":17,""loc"":8},{""cat"":7,""src"":6,""loc"":7},{""cat"":6,""src"":4,""loc"":1},{""cat"":24,""src"":19,""loc"":4}]","5","1103,1101,1102,1101,1101,1102,1101,1101,1101,10002",NA,NA,NA,NA,NA,NA,NA,NA,NA
"9736","flanker_instructions","39","html-keyboard-response","4","1429242","0.0-3.0-1.0","1","2020-1-6 21:40:52","MONKEY",NA,NA,NA,NA,NA,NA,NA,NA,NA,NA,NA,NA,NA,NA
"600","flanker_test","39","image-keyboard-response","5","1430844","0.0-3.0-2.0-0.0","1","2020-1-6 21:40:52","MONKEY",NA,NA,NA,NA,NA,"incongruent","right","TRUE",NA,NA,NA,NA,NA,NA
"545","flanker_test","39","image-keyboard-response","6","1431830","0.0-3.0-2.0-0.1","1","2020-1-6 21:40:52","MONKEY",NA,NA,NA,NA,NA,"congruent","right","TRUE",NA,NA,NA,NA,NA,NA
"524","flanker_test","37","image-keyboard-response","7","1433274","0.0-3.0-2.0-0.2","1","2020-1-6 21:40:52","MONKEY",NA,NA,NA,NA,NA,"incongruent","left","TRUE",NA,NA,NA,NA,NA,NA
"509","flanker_test","37","image-keyboard-response","8","1434194","0.0-3.0-2.0-0.3","1","2020-1-6 21:40:52","MONKEY",NA,NA,NA,NA,NA,"congruent","left","TRUE",NA,NA,NA,NA,NA,NA
"21511","sort_trial",NA,"free-sort","9","1456855","0.0-3.0-3.0","1","2020-1-6 21:40:52","MONKEY",NA,NA,NA,NA,NA,NA,NA,NA,"[{""cat"":6,""src"":2,""x"":69,""y"":311},{""cat"":24,""src"":14,""x"":57,""y"":376},{""cat"":7,""src"":12,""x"":1,""y"":132},{""cat"":7,""src"":1,""x"":6,""y"":490},{""cat"":24,""src"":3,""x"":7,""y"":435},{""cat"":6,""src"":17,""x"":69,""y"":200},{""cat"":7,""src"":6,""x"":33,""y"":85},{""cat"":6,""src"":4,""x"":27,""y"":27},{""cat"":24,""src"":19,""x"":75,""y"":252}]","[{""cat"":""24"",""src"":""19"",""x"":0,""y"":0},{""cat"":""6"",""src"":""17"",""x"":0,""y"":0},{""cat"":""24"",""src"":""14"",""x"":0,""y"":0},{""cat"":""7"",""src"":""6"",""x"":0,""y"":0},{""cat"":""7"",""src"":""1"",""x"":0,""y"":0},{""cat"":""6"",""src"":""2"",""x"":0,""y"":0},{""cat"":""24"",""src"":""3"",""x"":0,""y"":0},{""cat"":""7"",""src"":""12"",""x"":0,""y"":0},{""cat"":""6"",""src"":""4"",""x"":0,""y"":0}]","[{""cat"":24,""src"":19,""loc"":4},{""cat"":6,""src"":17,""loc"":8},{""cat"":24,""src"":14,""loc"":6},{""cat"":7,""src"":6,""loc"":7},{""cat"":7,""src"":1,""loc"":5},{""cat"":6,""src"":2,""loc"":3},{""cat"":24,""src"":3,""loc"":0},{""cat"":7,""src"":12,""loc"":1},{""cat"":6,""src"":4,""loc"":2}]","7","24,7,6,6,24,7,24,7,6,3,12,4,2,19,1,14,6,17,0,1,2,3,4,5,6,7,8,6,7,8,5,0,4,2,3,1",NA
"3506","sort_feedback","32","html-keyboard-response","10","1460363","0.0-3.0-4.0","1","2020-1-6 21:40:52","MONKEY",NA,NA,NA,NA,NA,NA,NA,NA,NA,NA,NA,NA,NA,NA
"19917","setup5",NA,"animation","11","1480280","0.0-3.0-5.0","1","2020-1-6 21:40:52","MONKEY",NA,NA,"[{""cat"":12,""src"":2,""loc"":1},{""cat"":5,""src"":4,""loc"":7},{""cat"":10,""src"":9,""loc"":4},{""cat"":5,""src"":9,""loc"":2},{""cat"":10,""src"":1,""loc"":6},{""cat"":12,""src"":10,""loc"":5},{""cat"":5,""src"":2,""loc"":3},{""cat"":12,""src"":5,""loc"":8},{""cat"":10,""src"":14,""loc"":0}]","5","1104,1101,1101,1102,1100,1102,1102,1102,1101,10002",NA,NA,NA,NA,NA,NA,NA,NA,NA
"1292","flanker_instructions","39","html-keyboard-response","12","1481573","0.0-3.0-6.0","1","2020-1-6 21:40:52","MONKEY",NA,NA,NA,NA,NA,NA,NA,NA,NA,NA,NA,NA,NA,NA
"644","flanker_test","37","image-keyboard-response","13","1483219","0.0-3.0-7.0-0.0","1","2020-1-6 21:40:52","MONKEY",NA,NA,NA,NA,NA,"incongruent","left","TRUE",NA,NA,NA,NA,NA,NA
"404","flanker_test","37","image-keyboard-response","14","1483953","0.0-3.0-7.0-0.1","1","2020-1-6 21:40:52","MONKEY",NA,NA,NA,NA,NA,"congruent","left","TRUE",NA,NA,NA,NA,NA,NA
"532","flanker_test","39","image-keyboard-response","15","1485539","0.0-3.0-7.0-0.2","1","2020-1-6 21:40:52","MONKEY",NA,NA,NA,NA,NA,"incongruent","right","TRUE",NA,NA,NA,NA,NA,NA
"414","flanker_test","39","image-keyboard-response","16","1486751","0.0-3.0-7.0-0.3","1","2020-1-6 21:40:52","MONKEY",NA,NA,NA,NA,NA,"congruent","right","TRUE",NA,NA,NA,NA,NA,NA
"34461","sort_trial",NA,"free-sort","17","1521568","0.0-3.0-8.0","1","2020-1-6 21:40:52","MONKEY",NA,NA,NA,NA,NA,NA,NA,NA,"[{""cat"":12,""src"":2,""x"":3,""y"":322},{""cat"":5,""src"":4,""x"":78,""y"":433},{""cat"":10,""src"":9,""x"":39,""y"":21},{""cat"":5,""src"":9,""x"":52,""y"":255},{""cat"":10,""src"":1,""x"":15,""y"":376},{""cat"":12,""src"":10,""x"":40,""y"":88},{""cat"":5,""src"":2,""x"":83,""y"":202},{""cat"":12,""src"":5,""x"":82,""y"":490},{""cat"":10,""src"":14,""x"":9,""y"":145}]","[{""cat"":""10"",""src"":""9"",""x"":0,""y"":0},{""cat"":""5"",""src"":""2"",""x"":0,""y"":0},{""cat"":""12"",""src"":""10"",""x"":0,""y"":0},{""cat"":""5"",""src"":""4"",""x"":0,""y"":0},{""cat"":""10"",""src"":""1"",""x"":0,""y"":0},{""cat"":""10"",""src"":""14"",""x"":16,""y"":157},{""cat"":""12"",""src"":""5"",""x"":0,""y"":0},{""cat"":""10"",""src"":""14"",""x"":0,""y"":0},{""cat"":""12"",""src"":""2"",""x"":0,""y"":0},{""cat"":""5"",""src"":""9"",""x"":0,""y"":0}]","[{""cat"":10,""src"":9,""loc"":4},{""cat"":5,""src"":2,""loc"":3},{""cat"":12,""src"":10,""loc"":5},{""cat"":5,""src"":4,""loc"":8},{""cat"":10,""src"":1,""loc"":1},{""cat"":12,""src"":5,""loc"":7},{""cat"":10,""src"":14,""loc"":0},{""cat"":12,""src"":2,""loc"":2},{""cat"":5,""src"":9,""loc"":6}]","4","10,10,12,5,10,12,5,12,5,14,1,2,2,9,10,9,5,4,0,1,2,3,4,5,6,7,8,6,4,7,1,0,2,8,5,3",NA
"3237","sort_feedback","32","html-keyboard-response","18","1524806","0.0-3.0-9.0","1","2020-1-6 21:40:52","MONKEY",NA,NA,NA,NA,NA,NA,NA,NA,NA,NA,NA,NA,NA,NA
"5902","finalInstructions",NA,"html-button-response","19","1530709","0.0-4.0-0.0","1","2020-1-6 21:40:52","MONKEY","0",NA,NA,NA,NA,NA,NA,NA,NA,NA,NA,NA,NA,NA
"19919","setup4",NA,"animation","20","1550629","0.0-4.0-1.0","1","2020-1-6 21:40:52","MONKEY",NA,NA,"[{""cat"":25,""src"":15,""loc"":5},{""cat"":25,""src"":19,""loc"":2},{""cat"":25,""src"":7,""loc"":6},{""cat"":6,""src"":3,""loc"":3},{""cat"":6,""src"":2,""loc"":7},{""cat"":6,""src"":12,""loc"":0},{""cat"":20,""src"":11,""loc"":8},{""cat"":20,""src"":3,""loc"":1},{""cat"":20,""src"":18,""loc"":4}]","4","1102,1102,1102,1102,1102,1102,1102,1101,1102,10002",NA,NA,NA,NA,NA,NA,NA,NA,NA
"1155","flanker_instructions","39","html-keyboard-response","21","1551784","0.0-4.0-2.0","1","2020-1-6 21:40:52","MONKEY",NA,NA,NA,NA,NA,NA,NA,NA,NA,NA,NA,NA,NA,NA
"643","flanker_test","37","image-keyboard-response","22","1553429","0.0-4.0-3.0-0.0","1","2020-1-6 21:40:52","MONKEY",NA,NA,NA,NA,NA,"incongruent","left","TRUE",NA,NA,NA,NA,NA,NA
"478","flanker_test","39","image-keyboard-response","23","1554398","0.0-4.0-3.0-0.1","1","2020-1-6 21:40:52","MONKEY",NA,NA,NA,NA,NA,"congruent","right","TRUE",NA,NA,NA,NA,NA,NA
"364","flanker_test","37","image-keyboard-response","24","1555144","0.0-4.0-3.0-0.2","1","2020-1-6 21:40:52","MONKEY",NA,NA,NA,NA,NA,"congruent","left","TRUE",NA,NA,NA,NA,NA,NA
"602","flanker_test","39","image-keyboard-response","25","1556438","0.0-4.0-3.0-0.3","1","2020-1-6 21:40:52","MONKEY",NA,NA,NA,NA,NA,"incongruent","right","TRUE",NA,NA,NA,NA,NA,NA
"29457","sort_trial",NA,"free-sort","26","1586913","0.0-4.0-4.0","1","2020-1-6 21:40:52","MONKEY",NA,NA,NA,NA,NA,NA,NA,NA,"[{""cat"":25,""src"":15,""x"":1,""y"":268},{""cat"":25,""src"":19,""x"":66,""y"":69},{""cat"":25,""src"":7,""x"":37,""y"":310},{""cat"":6,""src"":3,""x"":40,""y"":147},{""cat"":6,""src"":2,""x"":81,""y"":427},{""cat"":6,""src"":12,""x"":25,""y"":501},{""cat"":20,""src"":11,""x"":38,""y"":20},{""cat"":20,""src"":3,""x"":59,""y"":209},{""cat"":20,""src"":18,""x"":10,""y"":387}]","[{""cat"":""20"",""src"":""11"",""x"":0,""y"":0},{""cat"":""6"",""src"":""2"",""x"":74,""y"":429},{""cat"":""6"",""src"":""2"",""x"":0,""y"":0},{""cat"":""25"",""src"":""7"",""x"":0,""y"":0},{""cat"":""6"",""src"":""12"",""x"":0,""y"":0},{""cat"":""25"",""src"":""19"",""x"":0,""y"":0},{""cat"":""6"",""src"":""3"",""x"":0,""y"":0},{""cat"":""25"",""src"":""15"",""x"":0,""y"":0},{""cat"":""20"",""src"":""18"",""x"":0,""y"":0},{""cat"":""20"",""src"":""3"",""x"":0,""y"":0}]","[{""cat"":20,""src"":11,""loc"":8},{""cat"":6,""src"":2,""loc"":6},{""cat"":25,""src"":7,""loc"":7},{""cat"":6,""src"":12,""loc"":4},{""cat"":25,""src"":19,""loc"":1},{""cat"":6,""src"":3,""loc"":2},{""cat"":25,""src"":15,""loc"":3},{""cat"":20,""src"":18,""loc"":5},{""cat"":20,""src"":3,""loc"":0}]","1","20,25,6,25,6,20,6,25,20,3,19,3,15,12,18,2,7,11,0,1,2,3,4,5,6,7,8,8,4,5,6,3,7,1,2,0",NA
"2696","sort_feedback","32","html-keyboard-response","27","1589610","0.0-4.0-5.0","1","2020-1-6 21:40:52","MONKEY",NA,NA,NA,NA,NA,NA,NA,NA,NA,NA,NA,NA,NA,NA
"19917","setup5",NA,"animation","28","1609527","0.0-4.0-6.0","1","2020-1-6 21:40:52","MONKEY",NA,NA,"[{""cat"":21,""src"":19,""loc"":7},{""cat"":33,""src"":3,""loc"":1},{""cat"":16,""src"":9,""loc"":5},{""cat"":21,""src"":7,""loc"":0},{""cat"":16,""src"":12,""loc"":8},{""cat"":33,""src"":12,""loc"":3},{""cat"":33,""src"":6,""loc"":6},{""cat"":21,""src"":10,""loc"":4},{""cat"":16,""src"":0,""loc"":2}]","5","1102,1101,1101,1102,1102,1102,1102,1101,1102,10001",NA,NA,NA,NA,NA,NA,NA,NA,NA
"1527","flanker_instructions","39","html-keyboard-response","29","1611055","0.0-4.0-7.0","1","2020-1-6 21:40:52","MONKEY",NA,NA,NA,NA,NA,NA,NA,NA,NA,NA,NA,NA,NA,NA
"452","flanker_test","39","image-keyboard-response","30","1612508","0.0-4.0-8.0-0.0","1","2020-1-6 21:40:52","MONKEY",NA,NA,NA,NA,NA,"congruent","right","TRUE",NA,NA,NA,NA,NA,NA
"507","flanker_test","39","image-keyboard-response","31","1613396","0.0-4.0-8.0-0.1","1","2020-1-6 21:40:52","MONKEY",NA,NA,NA,NA,NA,"incongruent","right","TRUE",NA,NA,NA,NA,NA,NA
"516","flanker_test","37","image-keyboard-response","32","1615003","0.0-4.0-8.0-0.2","1","2020-1-6 21:40:52","MONKEY",NA,NA,NA,NA,NA,"incongruent","left","TRUE",NA,NA,NA,NA,NA,NA
"455","flanker_test","37","image-keyboard-response","33","1616237","0.0-4.0-8.0-0.3","1","2020-1-6 21:40:52","MONKEY",NA,NA,NA,NA,NA,"congruent","left","TRUE",NA,NA,NA,NA,NA,NA
"35177","sort_trial",NA,"free-sort","34","1652586","0.0-4.0-9.0","1","2020-1-6 21:40:52","MONKEY",NA,NA,NA,NA,NA,NA,NA,NA,"[{""cat"":21,""src"":19,""x"":45,""y"":322},{""cat"":33,""src"":3,""x"":1,""y"":363},{""cat"":16,""src"":9,""x"":14,""y"":4},{""cat"":21,""src"":7,""x"":48,""y"":430},{""cat"":16,""src"":12,""x"":75,""y"":208},{""cat"":33,""src"":12,""x"":59,""y"":136},{""cat"":33,""src"":6,""x"":72,""y"":500},{""cat"":21,""src"":10,""x"":63,""y"":73},{""cat"":16,""src"":0,""x"":58,""y"":255}]","[{""cat"":""21"",""src"":""7"",""x"":48,""y"":430},{""cat"":""21"",""src"":""10"",""x"":0,""y"":0},{""cat"":""33"",""src"":""6"",""x"":0,""y"":0},{""cat"":""16"",""src"":""12"",""x"":536,""y"":342},{""cat"":""16"",""src"":""12"",""x"":0,""y"":0},{""cat"":""16"",""src"":""9"",""x"":0,""y"":0},{""cat"":""33"",""src"":""12"",""x"":0,""y"":0},{""cat"":""21"",""src"":""7"",""x"":0,""y"":0},{""cat"":""16"",""src"":""0"",""x"":0,""y"":0},{""cat"":""21"",""src"":""19"",""x"":0,""y"":0},{""cat"":""33"",""src"":""3"",""x"":0,""y"":0}]","[{""cat"":21,""src"":10,""loc"":4},{""cat"":33,""src"":6,""loc"":6},{""cat"":16,""src"":12,""loc"":8},{""cat"":16,""src"":9,""loc"":5},{""cat"":33,""src"":12,""loc"":3},{""cat"":21,""src"":7,""loc"":7},{""cat"":16,""src"":0,""loc"":0},{""cat"":21,""src"":19,""loc"":1},{""cat"":33,""src"":3,""loc"":2}]","5","16,21,33,33,21,16,33,21,16,0,19,3,12,10,9,6,7,12,0,1,2,3,4,5,6,7,8,6,7,8,4,0,3,1,5,2",NA
"1874","sort_feedback","32","html-keyboard-response","35","1654461","0.0-4.0-10.0","1","2020-1-6 21:40:52","MONKEY",NA,NA,NA,NA,NA,NA,NA,NA,NA,NA,NA,NA,NA,NA
"19915","setup3",NA,"animation","36","1674376","0.0-4.0-11.0","1","2020-1-6 21:40:52","MONKEY",NA,NA,"[{""cat"":27,""src"":14,""loc"":3},{""cat"":13,""src"":10,""loc"":6},{""cat"":25,""src"":19,""loc"":0},{""cat"":27,""src"":19,""loc"":5},{""cat"":25,""src"":6,""loc"":2},{""cat"":13,""src"":2,""loc"":7},{""cat"":27,""src"":17,""loc"":4},{""cat"":13,""src"":1,""loc"":8},{""cat"":25,""src"":10,""loc"":1}]","3","1103,1101,1102,1100,1102,1101,1101,1101,1102,10002",NA,NA,NA,NA,NA,NA,NA,NA,NA
"1360","flanker_instructions","39","html-keyboard-response","37","1675737","0.0-4.0-12.0","1","2020-1-6 21:40:52","MONKEY",NA,NA,NA,NA,NA,NA,NA,NA,NA,NA,NA,NA,NA,NA
"685","flanker_test","37","image-keyboard-response","38","1677424","0.0-4.0-13.0-0.0","1","2020-1-6 21:40:52","MONKEY",NA,NA,NA,NA,NA,"incongruent","left","TRUE",NA,NA,NA,NA,NA,NA
"369","flanker_test","39","image-keyboard-response","39","1678251","0.0-4.0-13.0-0.1","1","2020-1-6 21:40:52","MONKEY",NA,NA,NA,NA,NA,"congruent","right","TRUE",NA,NA,NA,NA,NA,NA
"355","flanker_test","37","image-keyboard-response","40","1679754","0.0-4.0-13.0-0.2","1","2020-1-6 21:40:52","MONKEY",NA,NA,NA,NA,NA,"congruent","left","TRUE",NA,NA,NA,NA,NA,NA
"583","flanker_test","39","image-keyboard-response","41","1681446","0.0-4.0-13.0-0.3","1","2020-1-6 21:40:52","MONKEY",NA,NA,NA,NA,NA,"incongruent","right","TRUE",NA,NA,NA,NA,NA,NA
"27130","sort_trial",NA,"free-sort","42","1709494","0.0-4.0-14.0","1","2020-1-6 21:40:52","MONKEY",NA,NA,NA,NA,NA,NA,NA,NA,"[{""cat"":27,""src"":14,""x"":4,""y"":246},{""cat"":13,""src"":10,""x"":3,""y"":424},{""cat"":25,""src"":19,""x"":34,""y"":308},{""cat"":27,""src"":19,""x"":47,""y"":67},{""cat"":25,""src"":6,""x"":35,""y"":148},{""cat"":13,""src"":2,""x"":4,""y"":482},{""cat"":27,""src"":17,""x"":18,""y"":17},{""cat"":13,""src"":1,""x"":57,""y"":368},{""cat"":25,""src"":10,""x"":79,""y"":181}]","[{""cat"":""27"",""src"":""14"",""x"":0,""y"":0},{""cat"":""27"",""src"":""19"",""x"":0,""y"":0},{""cat"":""27"",""src"":""17"",""x"":0,""y"":0},{""cat"":""13"",""src"":""10"",""x"":0,""y"":0},{""cat"":""13"",""src"":""2"",""x"":0,""y"":0},{""cat"":""13"",""src"":""1"",""x"":0,""y"":0},{""cat"":""25"",""src"":""19"",""x"":0,""y"":0},{""cat"":""25"",""src"":""10"",""x"":0,""y"":0},{""cat"":""25"",""src"":""6"",""x"":435,""y"":40},{""cat"":""25"",""src"":""6"",""x"":0,""y"":0}]","[{""cat"":27,""src"":14,""loc"":3},{""cat"":27,""src"":19,""loc"":4},{""cat"":27,""src"":17,""loc"":5},{""cat"":13,""src"":10,""loc"":8},{""cat"":13,""src"":2,""loc"":6},{""cat"":13,""src"":1,""loc"":7},{""cat"":25,""src"":19,""loc"":2},{""cat"":25,""src"":10,""loc"":0},{""cat"":25,""src"":6,""loc"":1}]","1","25,25,25,27,27,27,13,13,13,10,6,19,14,19,17,2,1,10,0,1,2,3,4,5,6,7,8,7,8,6,0,1,2,4,5,3",NA
"11777","sort_feedback","32","html-keyboard-response","43","1721272","0.0-4.0-15.0","1","2020-1-6 21:40:52","MONKEY",NA,NA,NA,NA,NA,NA,NA,NA,NA,NA,NA,NA,NA,NA
"19914","setup1",NA,"animation","44","1741186","0.0-4.0-16.0","1","2020-1-6 21:40:52","MONKEY",NA,NA,"[{""cat"":7,""src"":15,""loc"":7},{""cat"":7,""src"":2,""loc"":8},{""cat"":7,""src"":11,""loc"":6},{""cat"":27,""src"":18,""loc"":2},{""cat"":27,""src"":5,""loc"":1},{""cat"":27,""src"":14,""loc"":0},{""cat"":1,""src"":5,""loc"":5},{""cat"":1,""src"":15,""loc"":3},{""cat"":1,""src"":4,""loc"":4}]","1","1102,1101,1101,1102,1101,1102,1101,1102,1101,10001",NA,NA,NA,NA,NA,NA,NA,NA,NA
"1657","flanker_instructions","39","html-keyboard-response","45","1742844","0.0-4.0-17.0","1","2020-1-6 21:40:52","MONKEY",NA,NA,NA,NA,NA,NA,NA,NA,NA,NA,NA,NA,NA,NA
"405","flanker_test","37","image-keyboard-response","46","1744251","0.0-4.0-18.0-0.0","1","2020-1-6 21:40:52","MONKEY",NA,NA,NA,NA,NA,"incongruent","right","FALSE",NA,NA,NA,NA,NA,NA
"591","flanker_test","37","image-keyboard-response","47","1745836","0.0-4.0-18.0-0.1","1","2020-1-6 21:40:52","MONKEY",NA,NA,NA,NA,NA,"incongruent","left","TRUE",NA,NA,NA,NA,NA,NA
"550","flanker_test","37","image-keyboard-response","48","1746783","0.0-4.0-18.0-0.2","1","2020-1-6 21:40:52","MONKEY",NA,NA,NA,NA,NA,"congruent","left","TRUE",NA,NA,NA,NA,NA,NA
"387","flanker_test","39","image-keyboard-response","49","1748172","0.0-4.0-18.0-0.3","1","2020-1-6 21:40:52","MONKEY",NA,NA,NA,NA,NA,"congruent","right","TRUE",NA,NA,NA,NA,NA,NA
"24661","sort_trial",NA,"free-sort","50","1773834","0.0-4.0-19.0","1","2020-1-6 21:40:52","MONKEY",NA,NA,NA,NA,NA,NA,NA,NA,"[{""cat"":7,""src"":15,""x"":45,""y"":62},{""cat"":7,""src"":2,""x"":72,""y"":252},{""cat"":7,""src"":11,""x"":3,""y"":303},{""cat"":27,""src"":18,""x"":19,""y"":501},{""cat"":27,""src"":5,""x"":10,""y"":199},{""cat"":27,""src"":14,""x"":81,""y"":140},{""cat"":1,""src"":5,""x"":59,""y"":369},{""cat"":1,""src"":15,""x"":36,""y"":12},{""cat"":1,""src"":4,""x"":8,""y"":446}]","[{""cat"":""7"",""src"":""11"",""x"":0,""y"":0},{""cat"":""7"",""src"":""2"",""x"":0,""y"":0},{""cat"":""7"",""src"":""15"",""x"":0,""y"":0},{""cat"":""27"",""src"":""5"",""x"":0,""y"":0},{""cat"":""27"",""src"":""18"",""x"":0,""y"":0},{""cat"":""27"",""src"":""14"",""x"":0,""y"":0},{""cat"":""1"",""src"":""4"",""x"":0,""y"":0},{""cat"":""1"",""src"":""15"",""x"":0,""y"":0},{""cat"":""1"",""src"":""5"",""x"":0,""y"":0}]","[{""cat"":7,""src"":11,""loc"":6},{""cat"":7,""src"":2,""loc"":8},{""cat"":7,""src"":15,""loc"":7},{""cat"":27,""src"":5,""loc"":1},{""cat"":27,""src"":18,""loc"":2},{""cat"":27,""src"":14,""loc"":0},{""cat"":1,""src"":4,""loc"":4},{""cat"":1,""src"":15,""loc"":3},{""cat"":1,""src"":5,""loc"":5}]","9","27,27,27,1,1,1,7,7,7,14,5,18,15,4,5,11,15,2,0,1,2,3,4,5,6,7,8,5,3,4,7,6,8,0,2,1",NA
"2983","sort_feedback","32","html-keyboard-response","51","1776817","0.0-4.0-20.0","1","2020-1-6 21:40:52","MONKEY",NA,NA,NA,NA,NA,NA,NA,NA,NA,NA,NA,NA,NA,NA
"19914","setup2",NA,"animation","52","1796731","0.0-4.0-21.0","1","2020-1-6 21:40:52","MONKEY",NA,NA,"[{""cat"":28,""src"":16,""loc"":4},{""cat"":13,""src"":6,""loc"":5},{""cat"":0,""src"":5,""loc"":3},{""cat"":13,""src"":14,""loc"":6},{""cat"":28,""src"":14,""loc"":8},{""cat"":0,""src"":4,""loc"":7},{""cat"":28,""src"":17,""loc"":0},{""cat"":13,""src"":1,""loc"":2},{""cat"":0,""src"":18,""loc"":1}]","2","1102,1102,1102,1101,1101,1101,1101,1101,1101,10002",NA,NA,NA,NA,NA,NA,NA,NA,NA
"937","flanker_instructions","39","html-keyboard-response","53","1797669","0.0-4.0-22.0","1","2020-1-6 21:40:52","MONKEY",NA,NA,NA,NA,NA,NA,NA,NA,NA,NA,NA,NA,NA,NA
"637","flanker_test","39","image-keyboard-response","54","1799308","0.0-4.0-23.0-0.0","1","2020-1-6 21:40:52","MONKEY",NA,NA,NA,NA,NA,"incongruent","right","TRUE",NA,NA,NA,NA,NA,NA
"592","flanker_test","37","image-keyboard-response","55","1800583","0.0-4.0-23.0-0.1","1","2020-1-6 21:40:52","MONKEY",NA,NA,NA,NA,NA,"incongruent","left","TRUE",NA,NA,NA,NA,NA,NA
"410","flanker_test","39","image-keyboard-response","56","1801864","0.0-4.0-23.0-0.2","1","2020-1-6 21:40:52","MONKEY",NA,NA,NA,NA,NA,"congruent","right","TRUE",NA,NA,NA,NA,NA,NA
"407","flanker_test","37","image-keyboard-response","57","1802703","0.0-4.0-23.0-0.3","1","2020-1-6 21:40:52","MONKEY",NA,NA,NA,NA,NA,"congruent","left","TRUE",NA,NA,NA,NA,NA,NA
"43610","sort_trial",NA,"free-sort","58","1846684","0.0-4.0-24.0","1","2020-1-6 21:40:52","MONKEY",NA,NA,NA,NA,NA,NA,NA,NA,"[{""cat"":28,""src"":16,""x"":70,""y"":425},{""cat"":13,""src"":6,""x"":50,""y"":14},{""cat"":0,""src"":5,""x"":24,""y"":309},{""cat"":13,""src"":14,""x"":21,""y"":83},{""cat"":28,""src"":14,""x"":68,""y"":376},{""cat"":0,""src"":4,""x"":6,""y"":199},{""cat"":28,""src"":17,""x"":10,""y"":492},{""cat"":13,""src"":1,""x"":76,""y"":139},{""cat"":0,""src"":18,""x"":83,""y"":241}]","[{""cat"":""28"",""src"":""17"",""x"":0,""y"":0},{""cat"":""28"",""src"":""16"",""x"":0,""y"":0},{""cat"":""13"",""src"":""14"",""x"":0,""y"":0},{""cat"":""0"",""src"":""4"",""x"":0,""y"":0},{""cat"":""28"",""src"":""14"",""x"":0,""y"":0},{""cat"":""13"",""src"":""6"",""x"":0,""y"":0},{""cat"":""0"",""src"":""18"",""x"":0,""y"":0},{""cat"":""13"",""src"":""1"",""x"":0,""y"":0},{""cat"":""0"",""src"":""5"",""x"":302,""y"":264},{""cat"":""0"",""src"":""5"",""x"":360,""y"":171},{""cat"":""0"",""src"":""5"",""x"":0,""y"":0}]","[{""cat"":28,""src"":17,""loc"":0},{""cat"":28,""src"":16,""loc"":4},{""cat"":13,""src"":14,""loc"":7},{""cat"":0,""src"":4,""loc"":8},{""cat"":28,""src"":14,""loc"":6},{""cat"":13,""src"":6,""loc"":5},{""cat"":0,""src"":18,""loc"":3},{""cat"":13,""src"":1,""loc"":1},{""cat"":0,""src"":5,""loc"":2}]","3","28,13,0,0,28,13,28,13,0,17,1,5,18,16,6,14,14,4,0,1,2,3,4,5,6,7,8,0,7,8,6,1,5,4,2,3",NA
"1890","sort_feedback","32","html-keyboard-response","59","1848575","0.0-4.0-25.0","1","2020-1-6 21:40:52","MONKEY",NA,NA,NA,NA,NA,NA,NA,NA,NA,NA,NA,NA,NA,NA
"19917","setup3",NA,"animation","60","1868493","0.0-4.0-26.0","1","2020-1-6 21:40:52","MONKEY",NA,NA,"[{""cat"":1,""src"":5,""loc"":8},{""cat"":3,""src"":8,""loc"":5},{""cat"":21,""src"":18,""loc"":2},{""cat"":3,""src"":1,""loc"":4},{""cat"":21,""src"":11,""loc"":0},{""cat"":1,""src"":12,""loc"":7},{""cat"":3,""src"":10,""loc"":3},{""cat"":1,""src"":17,""loc"":6},{""cat"":21,""src"":17,""loc"":1}]","3","1103,1102,1101,1102,1102,1101,1101,1102,1102,10001",NA,NA,NA,NA,NA,NA,NA,NA,NA
"1451","flanker_instructions","39","html-keyboard-response","61","1869944","0.0-4.0-27.0","1","2020-1-6 21:40:52","MONKEY",NA,NA,NA,NA,NA,NA,NA,NA,NA,NA,NA,NA,NA,NA
"411","flanker_test","39","image-keyboard-response","62","1871356","0.0-4.0-28.0-0.0","1","2020-1-6 21:40:52","MONKEY",NA,NA,NA,NA,NA,"congruent","right","TRUE",NA,NA,NA,NA,NA,NA
"393","flanker_test","39","image-keyboard-response","63","1872226","0.0-4.0-28.0-0.1","1","2020-1-6 21:40:52","MONKEY",NA,NA,NA,NA,NA,"incongruent","right","TRUE",NA,NA,NA,NA,NA,NA
"523","flanker_test","37","image-keyboard-response","64","1873452","0.0-4.0-28.0-0.2","1","2020-1-6 21:40:52","MONKEY",NA,NA,NA,NA,NA,"congruent","left","TRUE",NA,NA,NA,NA,NA,NA
"380","flanker_test","39","image-keyboard-response","65","1874759","0.0-4.0-28.0-0.3","1","2020-1-6 21:40:52","MONKEY",NA,NA,NA,NA,NA,"incongruent","left","FALSE",NA,NA,NA,NA,NA,NA
"22036","sort_trial",NA,"free-sort","66","1897950","0.0-4.0-29.0","1","2020-1-6 21:40:52","MONKEY",NA,NA,NA,NA,NA,NA,NA,NA,"[{""cat"":1,""src"":5,""x"":83,""y"":250},{""cat"":3,""src"":8,""x"":34,""y"":426},{""cat"":21,""src"":18,""x"":53,""y"":482},{""cat"":3,""src"":1,""x"":65,""y"":64},{""cat"":21,""src"":11,""x"":80,""y"":198},{""cat"":1,""src"":12,""x"":31,""y"":27},{""cat"":3,""src"":10,""x"":59,""y"":321},{""cat"":1,""src"":17,""x"":58,""y"":388},{""cat"":21,""src"":17,""x"":40,""y"":139}]","[{""cat"":""21"",""src"":""18"",""x"":0,""y"":0},{""cat"":""21"",""src"":""11"",""x"":0,""y"":0},{""cat"":""21"",""src"":""17"",""x"":0,""y"":0},{""cat"":""3"",""src"":""8"",""x"":0,""y"":0},{""cat"":""3"",""src"":""10"",""x"":0,""y"":0},{""cat"":""3"",""src"":""1"",""x"":0,""y"":0},{""cat"":""1"",""src"":""12"",""x"":0,""y"":0},{""cat"":""1"",""src"":""17"",""x"":0,""y"":0},{""cat"":""1"",""src"":""5"",""x"":0,""y"":0}]","[{""cat"":21,""src"":18,""loc"":2},{""cat"":21,""src"":11,""loc"":0},{""cat"":21,""src"":17,""loc"":1},{""cat"":3,""src"":8,""loc"":5},{""cat"":3,""src"":10,""loc"":3},{""cat"":3,""src"":1,""loc"":4},{""cat"":1,""src"":12,""loc"":7},{""cat"":1,""src"":17,""loc"":6},{""cat"":1,""src"":5,""loc"":8}]","9","21,21,21,3,3,3,1,1,1,11,17,18,10,1,8,17,12,5,0,1,2,3,4,5,6,7,8,1,2,0,4,5,3,7,6,8",NA
"2022","sort_feedback","32","html-keyboard-response","67","1899972","0.0-4.0-30.0","1","2020-1-6 21:40:52","MONKEY",NA,NA,NA,NA,NA,NA,NA,NA,NA,NA,NA,NA,NA,NA
"19914","setup4",NA,"animation","68","1919886","0.0-4.0-31.0","1","2020-1-6 21:40:52","MONKEY",NA,NA,"[{""cat"":3,""src"":11,""loc"":3},{""cat"":3,""src"":8,""loc"":0},{""cat"":3,""src"":7,""loc"":6},{""cat"":14,""src"":11,""loc"":4},{""cat"":14,""src"":6,""loc"":8},{""cat"":14,""src"":3,""loc"":2},{""cat"":16,""src"":13,""loc"":7},{""cat"":16,""src"":17,""loc"":1},{""cat"":16,""src"":10,""loc"":5}]","4","1101,1102,1102,1101,1102,1102,1100,1102,1101,10001",NA,NA,NA,NA,NA,NA,NA,NA,NA
"1973","flanker_instructions","39","html-keyboard-response","69","1921860","0.0-4.0-32.0","1","2020-1-6 21:40:52","MONKEY",NA,NA,NA,NA,NA,NA,NA,NA,NA,NA,NA,NA,NA,NA
"509","flanker_test","39","image-keyboard-response","70","1923372","0.0-4.0-33.0-0.0","1","2020-1-6 21:40:52","MONKEY",NA,NA,NA,NA,NA,"congruent","right","TRUE",NA,NA,NA,NA,NA,NA
"592","flanker_test","37","image-keyboard-response","71","1925038","0.0-4.0-33.0-0.1","1","2020-1-6 21:40:52","MONKEY",NA,NA,NA,NA,NA,"incongruent","left","TRUE",NA,NA,NA,NA,NA,NA
"406","flanker_test","37","image-keyboard-response","72","1925980","0.0-4.0-33.0-0.2","1","2020-1-6 21:40:52","MONKEY",NA,NA,NA,NA,NA,"congruent","left","TRUE",NA,NA,NA,NA,NA,NA
"391","flanker_test","37","image-keyboard-response","73","1927277","0.0-4.0-33.0-0.3","1","2020-1-6 21:40:52","MONKEY",NA,NA,NA,NA,NA,"incongruent","right","FALSE",NA,NA,NA,NA,NA,NA
"22261","sort_trial",NA,"free-sort","74","1950535","0.0-4.0-34.0","1","2020-1-6 21:40:52","MONKEY",NA,NA,NA,NA,NA,NA,NA,NA,"[{""cat"":3,""src"":11,""x"":11,""y"":440},{""cat"":3,""src"":8,""x"":15,""y"":485},{""cat"":3,""src"":7,""x"":2,""y"":136},{""cat"":14,""src"":11,""x"":82,""y"":252},{""cat"":14,""src"":6,""x"":9,""y"":324},{""cat"":14,""src"":3,""x"":9,""y"":85},{""cat"":16,""src"":13,""x"":42,""y"":181},{""cat"":16,""src"":17,""x"":33,""y"":15},{""cat"":16,""src"":10,""x"":20,""y"":384}]","[{""cat"":""16"",""src"":""13"",""x"":0,""y"":0},{""cat"":""3"",""src"":""7"",""x"":0,""y"":0},{""cat"":""14"",""src"":""6"",""x"":0,""y"":0},{""cat"":""16"",""src"":""10"",""x"":0,""y"":0},{""cat"":""3"",""src"":""11"",""x"":0,""y"":0},{""cat"":""14"",""src"":""11"",""x"":0,""y"":0},{""cat"":""3"",""src"":""8"",""x"":0,""y"":0},{""cat"":""14"",""src"":""3"",""x"":0,""y"":0},{""cat"":""16"",""src"":""17"",""x"":0,""y"":0}]","[{""cat"":16,""src"":13,""loc"":7},{""cat"":3,""src"":7,""loc"":6},{""cat"":14,""src"":6,""loc"":8},{""cat"":16,""src"":10,""loc"":5},{""cat"":3,""src"":11,""loc"":3},{""cat"":14,""src"":11,""loc"":4},{""cat"":3,""src"":8,""loc"":0},{""cat"":14,""src"":3,""loc"":2},{""cat"":16,""src"":17,""loc"":1}]","9","3,16,14,3,14,16,3,16,14,8,17,3,11,11,10,7,13,6,0,1,2,3,4,5,6,7,8,6,8,7,4,5,3,1,0,2",NA
"1349","sort_feedback","32","html-keyboard-response","75","1951884","0.0-4.0-35.0","1","2020-1-6 21:40:52","MONKEY",NA,NA,NA,NA,NA,NA,NA,NA,NA,NA,NA,NA,NA,NA
"19917","setup5",NA,"animation","76","1971801","0.0-4.0-36.0","1","2020-1-6 21:40:52","MONKEY",NA,NA,"[{""cat"":21,""src"":12,""loc"":4},{""cat"":24,""src"":14,""loc"":2},{""cat"":18,""src"":8,""loc"":7},{""cat"":18,""src"":10,""loc"":1},{""cat"":21,""src"":16,""loc"":6},{""cat"":24,""src"":17,""loc"":5},{""cat"":24,""src"":19,""loc"":8},{""cat"":18,""src"":6,""loc"":3},{""cat"":21,""src"":8,""loc"":0}]","5","1103,1102,1102,1101,1101,1102,1102,1102,1101,10001",NA,NA,NA,NA,NA,NA,NA,NA,NA
"1008","flanker_instructions","39","html-keyboard-response","77","1972810","0.0-4.0-37.0","1","2020-1-6 21:40:52","MONKEY",NA,NA,NA,NA,NA,NA,NA,NA,NA,NA,NA,NA,NA,NA
"572","flanker_test","39","image-keyboard-response","78","1974384","0.0-4.0-38.0-0.0","1","2020-1-6 21:40:52","MONKEY",NA,NA,NA,NA,NA,"incongruent","right","TRUE",NA,NA,NA,NA,NA,NA
"661","flanker_test","37","image-keyboard-response","79","1975857","0.0-4.0-38.0-0.1","1","2020-1-6 21:40:52","MONKEY",NA,NA,NA,NA,NA,"congruent","left","TRUE",NA,NA,NA,NA,NA,NA
"697","flanker_test","37","image-keyboard-response","80","1977544","0.0-4.0-38.0-0.2","1","2020-1-6 21:40:52","MONKEY",NA,NA,NA,NA,NA,"incongruent","left","TRUE",NA,NA,NA,NA,NA,NA
"441","flanker_test","39","image-keyboard-response","81","1978976","0.0-4.0-38.0-0.3","1","2020-1-6 21:40:52","MONKEY",NA,NA,NA,NA,NA,"congruent","right","TRUE",NA,NA,NA,NA,NA,NA
"49286","sort_trial",NA,"free-sort","82","2029143","0.0-4.0-39.0","1","2020-1-6 21:40:52","MONKEY",NA,NA,NA,NA,NA,NA,NA,NA,"[{""cat"":21,""src"":12,""x"":47,""y"":138},{""cat"":24,""src"":14,""x"":64,""y"":21},{""cat"":18,""src"":8,""x"":62,""y"":86},{""cat"":18,""src"":10,""x"":56,""y"":382},{""cat"":21,""src"":16,""x"":80,""y"":183},{""cat"":24,""src"":17,""x"":15,""y"":498},{""cat"":24,""src"":19,""x"":24,""y"":448},{""cat"":18,""src"":6,""x"":31,""y"":314},{""cat"":21,""src"":8,""x"":11,""y"":240}]","[{""cat"":""24"",""src"":""17"",""x"":0,""y"":0},{""cat"":""18"",""src"":""6"",""x"":0,""y"":0},{""cat"":""18"",""src"":""10"",""x"":0,""y"":0},{""cat"":""21"",""src"":""12"",""x"":0,""y"":0},{""cat"":""18"",""src"":""8"",""x"":0,""y"":0},{""cat"":""21"",""src"":""8"",""x"":104,""y"":322},{""cat"":""21"",""src"":""16"",""x"":0,""y"":0},{""cat"":""24"",""src"":""14"",""x"":0,""y"":0},{""cat"":""24"",""src"":""19"",""x"":0,""y"":0},{""cat"":""21"",""src"":""8"",""x"":0,""y"":0}]","[{""cat"":24,""src"":17,""loc"":7},{""cat"":18,""src"":6,""loc"":6},{""cat"":18,""src"":10,""loc"":8},{""cat"":21,""src"":12,""loc"":4},{""cat"":18,""src"":8,""loc"":5},{""cat"":21,""src"":16,""loc"":3},{""cat"":24,""src"":14,""loc"":1},{""cat"":24,""src"":19,""loc"":2},{""cat"":21,""src"":8,""loc"":0}]","2","21,24,24,21,21,18,18,24,18,8,14,19,16,12,8,6,17,10,0,1,2,3,4,5,6,7,8,8,6,7,5,3,4,1,0,2",NA
"1526","sort_feedback","32","html-keyboard-response","83","2030671","0.0-4.0-40.0","1","2020-1-6 21:40:52","MONKEY",NA,NA,NA,NA,NA,NA,NA,NA,NA,NA,NA,NA,NA,NA
"19914","setup1",NA,"animation","84","2050586","0.0-4.0-41.0","1","2020-1-6 21:40:52","MONKEY",NA,NA,"[{""cat"":31,""src"":13,""loc"":7},{""cat"":31,""src"":10,""loc"":8},{""cat"":31,""src"":17,""loc"":6},{""cat"":4,""src"":7,""loc"":0},{""cat"":4,""src"":16,""loc"":2},{""cat"":4,""src"":13,""loc"":1},{""cat"":9,""src"":17,""loc"":5},{""cat"":9,""src"":14,""loc"":3},{""cat"":9,""src"":8,""loc"":4}]","1","1101,1102,1101,1101,1102,1102,1101,1102,1102,10000",NA,NA,NA,NA,NA,NA,NA,NA,NA
"1246","flanker_instructions","39","html-keyboard-response","85","2051832","0.0-4.0-42.0","1","2020-1-6 21:40:52","MONKEY",NA,NA,NA,NA,NA,NA,NA,NA,NA,NA,NA,NA,NA,NA
NA,"flanker_test",NA,"image-keyboard-response","86","2053736","0.0-4.0-43.0-0.0","1","2020-1-6 21:40:52","MONKEY",NA,NA,NA,NA,NA,"incongruent","left","FALSE",NA,NA,NA,NA,NA,NA
"456","flanker_test","37","image-keyboard-response","87","2054865","0.0-4.0-43.0-0.1","1","2020-1-6 21:40:52","MONKEY",NA,NA,NA,NA,NA,"congruent","left","TRUE",NA,NA,NA,NA,NA,NA
"472","flanker_test","39","image-keyboard-response","88","2055886","0.0-4.0-43.0-0.2","1","2020-1-6 21:40:52","MONKEY",NA,NA,NA,NA,NA,"incongruent","right","TRUE",NA,NA,NA,NA,NA,NA
"481","flanker_test","39","image-keyboard-response","89","2056882","0.0-4.0-43.0-0.3","1","2020-1-6 21:40:52","MONKEY",NA,NA,NA,NA,NA,"congruent","right","TRUE",NA,NA,NA,NA,NA,NA
"18563","sort_trial",NA,"free-sort","90","2076323","0.0-4.0-44.0","1","2020-1-6 21:40:52","MONKEY",NA,NA,NA,NA,NA,NA,NA,NA,"[{""cat"":31,""src"":13,""x"":8,""y"":440},{""cat"":31,""src"":10,""x"":53,""y"":241},{""cat"":31,""src"":17,""x"":0,""y"":196},{""cat"":4,""src"":7,""x"":65,""y"":16},{""cat"":4,""src"":16,""x"":83,""y"":488},{""cat"":4,""src"":13,""x"":58,""y"":380},{""cat"":9,""src"":17,""x"":33,""y"":303},{""cat"":9,""src"":14,""x"":44,""y"":79},{""cat"":9,""src"":8,""x"":55,""y"":144}]","[{""cat"":""4"",""src"":""7"",""x"":0,""y"":0},{""cat"":""4"",""src"":""16"",""x"":0,""y"":0},{""cat"":""4"",""src"":""13"",""x"":0,""y"":0},{""cat"":""31"",""src"":""13"",""x"":0,""y"":0},{""cat"":""31"",""src"":""17"",""x"":0,""y"":0},{""cat"":""31"",""src"":""10"",""x"":0,""y"":0},{""cat"":""9"",""src"":""14"",""x"":0,""y"":0},{""cat"":""9"",""src"":""8"",""x"":0,""y"":0},{""cat"":""9"",""src"":""17"",""x"":0,""y"":0}]","[{""cat"":4,""src"":7,""loc"":0},{""cat"":4,""src"":16,""loc"":2},{""cat"":4,""src"":13,""loc"":1},{""cat"":31,""src"":13,""loc"":7},{""cat"":31,""src"":17,""loc"":6},{""cat"":31,""src"":10,""loc"":8},{""cat"":9,""src"":14,""loc"":3},{""cat"":9,""src"":8,""loc"":4},{""cat"":9,""src"":17,""loc"":5}]","9","4,4,4,9,9,9,31,31,31,7,13,16,14,8,17,17,13,10,0,1,2,3,4,5,6,7,8,0,2,1,6,7,8,4,3,5",NA
"8344","sort_feedback","32","html-keyboard-response","91","2084668","0.0-4.0-45.0","1","2020-1-6 21:40:52","MONKEY",NA,NA,NA,NA,NA,NA,NA,NA,NA,NA,NA,NA,NA,NA
"19916","setup2",NA,"animation","92","2104585","0.0-4.0-46.0","1","2020-1-6 21:40:52","MONKEY",NA,NA,"[{""cat"":7,""src"":2,""loc"":0},{""cat"":16,""src"":17,""loc"":1},{""cat"":21,""src"":19,""loc"":2},{""cat"":7,""src"":12,""loc"":8},{""cat"":16,""src"":18,""loc"":7},{""cat"":21,""src"":10,""loc"":6},{""cat"":21,""src"":14,""loc"":5},{""cat"":7,""src"":11,""loc"":4},{""cat"":16,""src"":9,""loc"":3}]","2","1101,1102,1102,1101,1102,1102,1101,1102,1101,10002",NA,NA,NA,NA,NA,NA,NA,NA,NA
"1184","flanker_instructions","39","html-keyboard-response","93","2105770","0.0-4.0-47.0","1","2020-1-6 21:40:52","MONKEY",NA,NA,NA,NA,NA,NA,NA,NA,NA,NA,NA,NA,NA,NA
"434","flanker_test","39","image-keyboard-response","94","2107207","0.0-4.0-48.0-0.0","1","2020-1-6 21:40:52","MONKEY",NA,NA,NA,NA,NA,"congruent","right","TRUE",NA,NA,NA,NA,NA,NA
"472","flanker_test","37","image-keyboard-response","95","2108148","0.0-4.0-48.0-0.1","1","2020-1-6 21:40:52","MONKEY",NA,NA,NA,NA,NA,"incongruent","right","FALSE",NA,NA,NA,NA,NA,NA
"522","flanker_test","37","image-keyboard-response","96","2109600","0.0-4.0-48.0-0.2","1","2020-1-6 21:40:52","MONKEY",NA,NA,NA,NA,NA,"congruent","left","TRUE",NA,NA,NA,NA,NA,NA
"663","flanker_test","37","image-keyboard-response","97","2110707","0.0-4.0-48.0-0.3","1","2020-1-6 21:40:52","MONKEY",NA,NA,NA,NA,NA,"incongruent","left","TRUE",NA,NA,NA,NA,NA,NA
"47394","sort_trial",NA,"free-sort","98","2158501","0.0-4.0-49.0","1","2020-1-6 21:40:52","MONKEY",NA,NA,NA,NA,NA,NA,NA,NA,"[{""cat"":7,""src"":2,""x"":77,""y"":76},{""cat"":16,""src"":17,""x"":21,""y"":488},{""cat"":21,""src"":19,""x"":18,""y"":14},{""cat"":7,""src"":12,""x"":58,""y"":124},{""cat"":16,""src"":18,""x"":5,""y"":304},{""cat"":21,""src"":10,""x"":38,""y"":420},{""cat"":21,""src"":14,""x"":8,""y"":194},{""cat"":7,""src"":11,""x"":34,""y"":268},{""cat"":16,""src"":9,""x"":24,""y"":366}]","[{""cat"":""21"",""src"":""10"",""x"":0,""y"":0},{""cat"":""16"",""src"":""9"",""x"":0,""y"":0},{""cat"":""7"",""src"":""12"",""x"":66,""y"":119},{""cat"":""21"",""src"":""19"",""x"":55,""y"":23},{""cat"":""16"",""src"":""17"",""x"":0,""y"":0},{""cat"":""21"",""src"":""19"",""x"":0,""y"":0},{""cat"":""7"",""src"":""11"",""x"":34,""y"":268},{""cat"":""7"",""src"":""11"",""x"":0,""y"":0},{""cat"":""21"",""src"":""14"",""x"":70,""y"":231},{""cat"":""16"",""src"":""18"",""x"":0,""y"":0},{""cat"":""7"",""src"":""12"",""x"":0,""y"":0},{""cat"":""21"",""src"":""14"",""x"":0,""y"":0},{""cat"":""7"",""src"":""2"",""x"":0,""y"":0}]","[{""cat"":21,""src"":10,""loc"":6},{""cat"":16,""src"":9,""loc"":3},{""cat"":16,""src"":17,""loc"":1},{""cat"":21,""src"":19,""loc"":0},{""cat"":7,""src"":11,""loc"":2},{""cat"":16,""src"":18,""loc"":7},{""cat"":7,""src"":12,""loc"":8},{""cat"":21,""src"":14,""loc"":5},{""cat"":7,""src"":2,""loc"":4}]","6","21,16,7,16,7,21,21,16,7,19,17,11,9,2,14,10,18,12,0,1,2,3,4,5,6,7,8,3,2,4,1,8,7,0,5,6",NA
"2600","sort_feedback","32","html-keyboard-response","99","2161103","0.0-4.0-50.0","1","2020-1-6 21:40:52","MONKEY",NA,NA,NA,NA,NA,NA,NA,NA,NA,NA,NA,NA,NA,NA
"19917","setup5",NA,"animation","100","2181020","0.0-4.0-51.0","1","2020-1-6 21:40:52","MONKEY",NA,NA,"[{""cat"":9,""src"":8,""loc"":8},{""cat"":18,""src"":19,""loc"":0},{""cat"":0,""src"":18,""loc"":5},{""cat"":18,""src"":8,""loc"":6},{""cat"":0,""src"":0,""loc"":2},{""cat"":9,""src"":15,""loc"":4},{""cat"":0,""src"":12,""loc"":7},{""cat"":18,""src"":4,""loc"":3},{""cat"":9,""src"":5,""loc"":1}]","5","1103,1100,1101,1102,1101,1102,1102,1102,1102,10002",NA,NA,NA,NA,NA,NA,NA,NA,NA
"1076","flanker_instructions","39","html-keyboard-response","101","2182096","0.0-4.0-52.0","1","2020-1-6 21:40:52","MONKEY",NA,NA,NA,NA,NA,NA,NA,NA,NA,NA,NA,NA,NA,NA
"611","flanker_test","39","image-keyboard-response","102","2183708","0.0-4.0-53.0-0.0","1","2020-1-6 21:40:52","MONKEY",NA,NA,NA,NA,NA,"incongruent","right","TRUE",NA,NA,NA,NA,NA,NA
"441","flanker_test","39","image-keyboard-response","103","2185159","0.0-4.0-53.0-0.1","1","2020-1-6 21:40:52","MONKEY",NA,NA,NA,NA,NA,"congruent","right","TRUE",NA,NA,NA,NA,NA,NA
"549","flanker_test","37","image-keyboard-response","104","2186157","0.0-4.0-53.0-0.2","1","2020-1-6 21:40:52","MONKEY",NA,NA,NA,NA,NA,"congruent","left","TRUE",NA,NA,NA,NA,NA,NA
"567","flanker_test","37","image-keyboard-response","105","2187421","0.0-4.0-53.0-0.3","1","2020-1-6 21:40:52","MONKEY",NA,NA,NA,NA,NA,"incongruent","left","TRUE",NA,NA,NA,NA,NA,NA
"35740","sort_trial",NA,"free-sort","106","2224301","0.0-4.0-54.0","1","2020-1-6 21:40:52","MONKEY",NA,NA,NA,NA,NA,NA,NA,NA,"[{""cat"":9,""src"":8,""x"":28,""y"":370},{""cat"":18,""src"":19,""x"":20,""y"":147},{""cat"":0,""src"":18,""x"":37,""y"":502},{""cat"":18,""src"":8,""x"":9,""y"":88},{""cat"":0,""src"":0,""x"":72,""y"":307},{""cat"":9,""src"":15,""x"":56,""y"":206},{""cat"":0,""src"":12,""x"":35,""y"":437},{""cat"":18,""src"":4,""x"":1,""y"":253},{""cat"":9,""src"":5,""x"":34,""y"":1}]","[{""cat"":""18"",""src"":""4"",""x"":0,""y"":0},{""cat"":""0"",""src"":""18"",""x"":0,""y"":0},{""cat"":""9"",""src"":""15"",""x"":0,""y"":0},{""cat"":""9"",""src"":""5"",""x"":-24,""y"":250},{""cat"":""9"",""src"":""8"",""x"":0,""y"":0},{""cat"":""18"",""src"":""8"",""x"":0,""y"":0},{""cat"":""18"",""src"":""19"",""x"":20,""y"":147},{""cat"":""0"",""src"":""12"",""x"":0,""y"":0},{""cat"":""0"",""src"":""0"",""x"":0,""y"":0},{""cat"":""18"",""src"":""19"",""x"":0,""y"":0},{""cat"":""9"",""src"":""5"",""x"":0,""y"":0}]","[{""cat"":18,""src"":4,""loc"":3},{""cat"":0,""src"":18,""loc"":5},{""cat"":9,""src"":15,""loc"":4},{""cat"":9,""src"":8,""loc"":8},{""cat"":18,""src"":8,""loc"":6},{""cat"":0,""src"":12,""loc"":7},{""cat"":0,""src"":0,""loc"":2},{""cat"":18,""src"":19,""loc"":0},{""cat"":9,""src"":5,""loc"":1}]","9","18,9,0,18,9,0,18,0,9,19,5,0,4,15,18,8,12,8,0,1,2,3,4,5,6,7,8,7,8,6,0,2,1,4,5,3",NA
"1845","sort_feedback","32","html-keyboard-response","107","2226147","0.0-4.0-55.0","1","2020-1-6 21:40:52","MONKEY",NA,NA,NA,NA,NA,NA,NA,NA,NA,NA,NA,NA,NA,NA
"19915","setup4",NA,"animation","108","2246062","0.0-4.0-56.0","1","2020-1-6 21:40:52","MONKEY",NA,NA,"[{""cat"":10,""src"":12,""loc"":4},{""cat"":10,""src"":18,""loc"":1},{""cat"":10,""src"":4,""loc"":6},{""cat"":20,""src"":0,""loc"":3},{""cat"":20,""src"":11,""loc"":8},{""cat"":20,""src"":7,""loc"":2},{""cat"":25,""src"":19,""loc"":0},{""cat"":25,""src"":14,""loc"":5},{""cat"":25,""src"":5,""loc"":7}]","4","1102,1102,1100,1102,1102,1102,1100,1102,1103,10000",NA,NA,NA,NA,NA,NA,NA,NA,NA
"1008","flanker_instructions","39","html-keyboard-response","109","2247071","0.0-4.0-57.0","1","2020-1-6 21:40:52","MONKEY",NA,NA,NA,NA,NA,NA,NA,NA,NA,NA,NA,NA,NA,NA
"557","flanker_test","39","image-keyboard-response","110","2248630","0.0-4.0-58.0-0.0","1","2020-1-6 21:40:52","MONKEY",NA,NA,NA,NA,NA,"incongruent","right","TRUE",NA,NA,NA,NA,NA,NA
"435","flanker_test","39","image-keyboard-response","111","2249868","0.0-4.0-58.0-0.1","1","2020-1-6 21:40:52","MONKEY",NA,NA,NA,NA,NA,"congruent","right","TRUE",NA,NA,NA,NA,NA,NA
"683","flanker_test","37","image-keyboard-response","112","2251176","0.0-4.0-58.0-0.2","1","2020-1-6 21:40:52","MONKEY",NA,NA,NA,NA,NA,"incongruent","left","TRUE",NA,NA,NA,NA,NA,NA
"491","flanker_test","37","image-keyboard-response","113","2252489","0.0-4.0-58.0-0.3","1","2020-1-6 21:40:52","MONKEY",NA,NA,NA,NA,NA,"congruent","left","TRUE",NA,NA,NA,NA,NA,NA
"22017","sort_trial",NA,"free-sort","114","2275592","0.0-4.0-59.0","1","2020-1-6 21:40:52","MONKEY",NA,NA,NA,NA,NA,NA,NA,NA,"[{""cat"":10,""src"":12,""x"":48,""y"":17},{""cat"":10,""src"":18,""x"":37,""y"":434},{""cat"":10,""src"":4,""x"":6,""y"":496},{""cat"":20,""src"":0,""x"":61,""y"":247},{""cat"":20,""src"":11,""x"":67,""y"":182},{""cat"":20,""src"":7,""x"":35,""y"":136},{""cat"":25,""src"":19,""x"":16,""y"":73},{""cat"":25,""src"":14,""x"":77,""y"":383},{""cat"":25,""src"":5,""x"":65,""y"":300}]","[{""cat"":""25"",""src"":""14"",""x"":0,""y"":0},{""cat"":""20"",""src"":""0"",""x"":0,""y"":0},{""cat"":""10"",""src"":""12"",""x"":0,""y"":0},{""cat"":""10"",""src"":""4"",""x"":0,""y"":0},{""cat"":""10"",""src"":""18"",""x"":0,""y"":0},{""cat"":""20"",""src"":""11"",""x"":0,""y"":0},{""cat"":""25"",""src"":""19"",""x"":0,""y"":0},{""cat"":""25"",""src"":""5"",""x"":0,""y"":0},{""cat"":""20"",""src"":""7"",""x"":0,""y"":0}]","[{""cat"":25,""src"":14,""loc"":5},{""cat"":20,""src"":0,""loc"":3},{""cat"":10,""src"":12,""loc"":4},{""cat"":10,""src"":4,""loc"":8},{""cat"":10,""src"":18,""loc"":1},{""cat"":20,""src"":11,""loc"":6},{""cat"":25,""src"":19,""loc"":7},{""cat"":25,""src"":5,""loc"":2},{""cat"":20,""src"":7,""loc"":0}]","4","20,10,25,20,10,25,20,25,10,7,18,5,0,12,14,11,19,4,0,1,2,3,4,5,6,7,8,8,4,7,1,2,0,5,6,3",NA
"1747","sort_feedback","32","html-keyboard-response","115","2277340","0.0-4.0-60.0","1","2020-1-6 21:40:52","MONKEY",NA,NA,NA,NA,NA,NA,NA,NA,NA,NA,NA,NA,NA,NA
"19914","setup1",NA,"animation","116","2297254","0.0-4.0-61.0","1","2020-1-6 21:40:52","MONKEY",NA,NA,"[{""cat"":27,""src"":14,""loc"":7},{""cat"":27,""src"":10,""loc"":6},{""cat"":27,""src"":8,""loc"":8},{""cat"":2,""src"":18,""loc"":0},{""cat"":2,""src"":15,""loc"":2},{""cat"":2,""src"":2,""loc"":1},{""cat"":22,""src"":10,""loc"":4},{""cat"":22,""src"":5,""loc"":3},{""cat"":22,""src"":14,""loc"":5}]","1","1101,1102,1101,1102,1101,1102,1101,1101,1102,10001",NA,NA,NA,NA,NA,NA,NA,NA,NA
"1065","flanker_instructions","39","html-keyboard-response","117","2298320","0.0-4.0-62.0","1","2020-1-6 21:40:52","MONKEY",NA,NA,NA,NA,NA,NA,NA,NA,NA,NA,NA,NA,NA,NA
"525","flanker_test","37","image-keyboard-response","118","2299848","0.0-4.0-63.0-0.0","1","2020-1-6 21:40:52","MONKEY",NA,NA,NA,NA,NA,"congruent","left","TRUE",NA,NA,NA,NA,NA,NA
"656","flanker_test","37","image-keyboard-response","119","2301048","0.0-4.0-63.0-0.1","1","2020-1-6 21:40:52","MONKEY",NA,NA,NA,NA,NA,"incongruent","left","TRUE",NA,NA,NA,NA,NA,NA
"628","flanker_test","39","image-keyboard-response","120","2302726","0.0-4.0-63.0-0.2","1","2020-1-6 21:40:52","MONKEY",NA,NA,NA,NA,NA,"incongruent","right","TRUE",NA,NA,NA,NA,NA,NA
"452","flanker_test","39","image-keyboard-response","121","2304356","0.0-4.0-63.0-0.3","1","2020-1-6 21:40:52","MONKEY",NA,NA,NA,NA,NA,"congruent","right","TRUE",NA,NA,NA,NA,NA,NA
"37038","sort_trial",NA,"free-sort","122","2342147","0.0-4.0-64.0","1","2020-1-6 21:40:52","MONKEY",NA,NA,NA,NA,NA,NA,NA,NA,"[{""cat"":27,""src"":14,""x"":64,""y"":67},{""cat"":27,""src"":10,""x"":73,""y"":508},{""cat"":27,""src"":8,""x"":56,""y"":181},{""cat"":2,""src"":18,""x"":42,""y"":134},{""cat"":2,""src"":15,""x"":74,""y"":20},{""cat"":2,""src"":2,""x"":7,""y"":240},{""cat"":22,""src"":10,""x"":9,""y"":385},{""cat"":22,""src"":5,""x"":16,""y"":325},{""cat"":22,""src"":14,""x"":68,""y"":442}]","[{""cat"":""27"",""src"":""10"",""x"":0,""y"":0},{""cat"":""27"",""src"":""14"",""x"":0,""y"":0},{""cat"":""27"",""src"":""8"",""x"":0,""y"":0},{""cat"":""2"",""src"":""15"",""x"":0,""y"":0},{""cat"":""2"",""src"":""18"",""x"":0,""y"":0},{""cat"":""2"",""src"":""2"",""x"":0,""y"":0},{""cat"":""22"",""src"":""14"",""x"":0,""y"":0},{""cat"":""22"",""src"":""5"",""x"":0,""y"":0},{""cat"":""22"",""src"":""10"",""x"":0,""y"":0}]","[{""cat"":27,""src"":10,""loc"":6},{""cat"":27,""src"":14,""loc"":7},{""cat"":27,""src"":8,""loc"":8},{""cat"":2,""src"":15,""loc"":1},{""cat"":2,""src"":18,""loc"":2},{""cat"":2,""src"":2,""loc"":0},{""cat"":22,""src"":14,""loc"":5},{""cat"":22,""src"":5,""loc"":3},{""cat"":22,""src"":10,""loc"":4}]","6","2,2,2,22,22,22,27,27,27,2,15,18,5,10,14,10,14,8,0,1,2,3,4,5,6,7,8,5,3,4,7,8,6,0,1,2",NA
"1555","sort_feedback","32","html-keyboard-response","123","2343703","0.0-4.0-65.0","1","2020-1-6 21:40:52","MONKEY",NA,NA,NA,NA,NA,NA,NA,NA,NA,NA,NA,NA,NA,NA
"19915","setup3",NA,"animation","124","2363619","0.0-4.0-66.0","1","2020-1-6 21:40:52","MONKEY",NA,NA,"[{""cat"":31,""src"":0,""loc"":4},{""cat"":4,""src"":16,""loc"":8},{""cat"":10,""src"":0,""loc"":0},{""cat"":31,""src"":14,""loc"":5},{""cat"":10,""src"":12,""loc"":2},{""cat"":4,""src"":13,""loc"":7},{""cat"":31,""src"":6,""loc"":3},{""cat"":10,""src"":7,""loc"":1},{""cat"":4,""src"":4,""loc"":6}]","3","1101,1102,1102,1102,1101,1102,1102,1102,1101,10000",NA,NA,NA,NA,NA,NA,NA,NA,NA
"1629","flanker_instructions","39","html-keyboard-response","125","2365249","0.0-4.0-67.0","1","2020-1-6 21:40:52","MONKEY",NA,NA,NA,NA,NA,NA,NA,NA,NA,NA,NA,NA,NA,NA
"532","flanker_test","39","image-keyboard-response","126","2366783","0.0-4.0-68.0-0.0","1","2020-1-6 21:40:52","MONKEY",NA,NA,NA,NA,NA,"congruent","left","FALSE",NA,NA,NA,NA,NA,NA
"502","flanker_test","39","image-keyboard-response","127","2367741","0.0-4.0-68.0-0.1","1","2020-1-6 21:40:52","MONKEY",NA,NA,NA,NA,NA,"congruent","right","TRUE",NA,NA,NA,NA,NA,NA
"404","flanker_test","39","image-keyboard-response","128","2368504","0.0-4.0-68.0-0.2","1","2020-1-6 21:40:52","MONKEY",NA,NA,NA,NA,NA,"incongruent","left","FALSE",NA,NA,NA,NA,NA,NA
"621","flanker_test","39","image-keyboard-response","129","2369811","0.0-4.0-68.0-0.3","1","2020-1-6 21:40:52","MONKEY",NA,NA,NA,NA,NA,"incongruent","right","TRUE",NA,NA,NA,NA,NA,NA
"26985","sort_trial",NA,"free-sort","130","2397940","0.0-4.0-69.0","1","2020-1-6 21:40:52","MONKEY",NA,NA,NA,NA,NA,NA,NA,NA,"[{""cat"":31,""src"":0,""x"":30,""y"":124},{""cat"":4,""src"":16,""x"":46,""y"":437},{""cat"":10,""src"":0,""x"":28,""y"":492},{""cat"":31,""src"":14,""x"":33,""y"":187},{""cat"":10,""src"":12,""x"":66,""y"":26},{""cat"":4,""src"":13,""x"":67,""y"":377},{""cat"":31,""src"":6,""x"":36,""y"":75},{""cat"":10,""src"":7,""x"":66,""y"":305},{""cat"":4,""src"":4,""x"":77,""y"":267}]","[{""cat"":""31"",""src"":""14"",""x"":0,""y"":0},{""cat"":""31"",""src"":""0"",""x"":0,""y"":0},{""cat"":""31"",""src"":""6"",""x"":0,""y"":0},{""cat"":""4"",""src"":""4"",""x"":0,""y"":0},{""cat"":""4"",""src"":""13"",""x"":0,""y"":0},{""cat"":""4"",""src"":""16"",""x"":0,""y"":0},{""cat"":""10"",""src"":""0"",""x"":30,""y"":490},{""cat"":""10"",""src"":""0"",""x"":0,""y"":0},{""cat"":""10"",""src"":""7"",""x"":0,""y"":0},{""cat"":""10"",""src"":""12"",""x"":0,""y"":0}]","[{""cat"":31,""src"":14,""loc"":5},{""cat"":31,""src"":0,""loc"":4},{""cat"":31,""src"":6,""loc"":3},{""cat"":4,""src"":4,""loc"":7},{""cat"":4,""src"":13,""loc"":6},{""cat"":4,""src"":16,""loc"":8},{""cat"":10,""src"":0,""loc"":1},{""cat"":10,""src"":7,""loc"":2},{""cat"":10,""src"":12,""loc"":0}]","4","10,10,10,31,31,31,4,4,4,12,0,7,6,0,14,13,4,16,0,1,2,3,4,5,6,7,8,8,6,7,2,1,0,4,3,5",NA
"1714","sort_feedback","32","html-keyboard-response","131","2399655","0.0-4.0-70.0","1","2020-1-6 21:40:52","MONKEY",NA,NA,NA,NA,NA,NA,NA,NA,NA,NA,NA,NA,NA,NA
"19914","setup2",NA,"animation","132","2419570","0.0-4.0-71.0","1","2020-1-6 21:40:52","MONKEY",NA,NA,"[{""cat"":15,""src"":18,""loc"":1},{""cat"":29,""src"":3,""loc"":0},{""cat"":10,""src"":8,""loc"":2},{""cat"":29,""src"":17,""loc"":7},{""cat"":10,""src"":5,""loc"":6},{""cat"":15,""src"":3,""loc"":8},{""cat"":15,""src"":4,""loc"":3},{""cat"":10,""src"":19,""loc"":4},{""cat"":29,""src"":12,""loc"":5}]","2","1101,1101,1102,1101,1101,1102,1102,1102,1101,10001",NA,NA,NA,NA,NA,NA,NA,NA,NA
"1693","flanker_instructions","39","html-keyboard-response","133","2421264","0.0-4.0-72.0","1","2020-1-6 21:40:52","MONKEY",NA,NA,NA,NA,NA,NA,NA,NA,NA,NA,NA,NA,NA,NA
"488","flanker_test","39","image-keyboard-response","134","2422754","0.0-4.0-73.0-0.0","1","2020-1-6 21:40:52","MONKEY",NA,NA,NA,NA,NA,"congruent","right","TRUE",NA,NA,NA,NA,NA,NA
"573","flanker_test","37","image-keyboard-response","135","2424498","0.0-4.0-73.0-0.1","1","2020-1-6 21:40:52","MONKEY",NA,NA,NA,NA,NA,"congruent","left","TRUE",NA,NA,NA,NA,NA,NA
"587","flanker_test","39","image-keyboard-response","136","2426230","0.0-4.0-73.0-0.2","1","2020-1-6 21:40:52","MONKEY",NA,NA,NA,NA,NA,"incongruent","right","TRUE",NA,NA,NA,NA,NA,NA
"543","flanker_test","37","image-keyboard-response","137","2427304","0.0-4.0-73.0-0.3","1","2020-1-6 21:40:52","MONKEY",NA,NA,NA,NA,NA,"incongruent","left","TRUE",NA,NA,NA,NA,NA,NA
"24310","sort_trial",NA,"free-sort","138","2452184","0.0-4.0-74.0","1","2020-1-6 21:40:52","MONKEY",NA,NA,NA,NA,NA,NA,NA,NA,"[{""cat"":15,""src"":18,""x"":23,""y"":14},{""cat"":29,""src"":3,""x"":62,""y"":247},{""cat"":10,""src"":8,""x"":28,""y"":67},{""cat"":29,""src"":17,""x"":44,""y"":124},{""cat"":10,""src"":5,""x"":72,""y"":435},{""cat"":15,""src"":3,""x"":68,""y"":377},{""cat"":15,""src"":4,""x"":57,""y"":494},{""cat"":10,""src"":19,""x"":55,""y"":183},{""cat"":29,""src"":12,""x"":46,""y"":321}]","[{""cat"":""29"",""src"":""12"",""x"":0,""y"":0},{""cat"":""15"",""src"":""4"",""x"":0,""y"":0},{""cat"":""10"",""src"":""19"",""x"":0,""y"":0},{""cat"":""29"",""src"":""3"",""x"":0,""y"":0},{""cat"":""10"",""src"":""8"",""x"":0,""y"":0},{""cat"":""15"",""src"":""18"",""x"":0,""y"":0},{""cat"":""29"",""src"":""17"",""x"":0,""y"":0},{""cat"":""10"",""src"":""5"",""x"":0,""y"":0},{""cat"":""15"",""src"":""3"",""x"":0,""y"":0}]","[{""cat"":29,""src"":12,""loc"":5},{""cat"":15,""src"":4,""loc"":3},{""cat"":10,""src"":19,""loc"":4},{""cat"":29,""src"":3,""loc"":0},{""cat"":10,""src"":8,""loc"":2},{""cat"":15,""src"":18,""loc"":1},{""cat"":29,""src"":17,""loc"":7},{""cat"":10,""src"":5,""loc"":6},{""cat"":15,""src"":3,""loc"":8}]","9","29,15,10,15,10,29,10,29,15,3,18,8,4,19,12,5,17,3,0,1,2,3,4,5,6,7,8,3,5,4,1,2,0,7,6,8",NA
"1619","sort_feedback","32","html-keyboard-response","139","2453804","0.0-4.0-75.0","1","2020-1-6 21:40:52","MONKEY",NA,NA,NA,NA,NA,NA,NA,NA,NA,NA,NA,NA,NA,NA
"19913","setup1",NA,"animation","140","2473718","0.0-4.0-76.0","1","2020-1-6 21:40:52","MONKEY",NA,NA,"[{""cat"":15,""src"":6,""loc"":4},{""cat"":15,""src"":14,""loc"":3},{""cat"":15,""src"":4,""loc"":5},{""cat"":16,""src"":12,""loc"":2},{""cat"":16,""src"":9,""loc"":1},{""cat"":16,""src"":0,""loc"":0},{""cat"":13,""src"":18,""loc"":6},{""cat"":13,""src"":9,""loc"":7},{""cat"":13,""src"":12,""loc"":8}]","1","1102,1102,1101,1102,1100,1101,1101,1100,1102,10002",NA,NA,NA,NA,NA,NA,NA,NA,NA
"1031","flanker_instructions","39","html-keyboard-response","141","2474749","0.0-4.0-77.0","1","2020-1-6 21:40:52","MONKEY",NA,NA,NA,NA,NA,NA,NA,NA,NA,NA,NA,NA,NA,NA
"565","flanker_test","39","image-keyboard-response","142","2476316","0.0-4.0-78.0-0.0","1","2020-1-6 21:40:52","MONKEY",NA,NA,NA,NA,NA,"incongruent","right","TRUE",NA,NA,NA,NA,NA,NA
"426","flanker_test","39","image-keyboard-response","143","2477261","0.0-4.0-78.0-0.1","1","2020-1-6 21:40:52","MONKEY",NA,NA,NA,NA,NA,"congruent","right","TRUE",NA,NA,NA,NA,NA,NA
"696","flanker_test","37","image-keyboard-response","144","2478741","0.0-4.0-78.0-0.2","1","2020-1-6 21:40:52","MONKEY",NA,NA,NA,NA,NA,"incongruent","left","TRUE",NA,NA,NA,NA,NA,NA
"489","flanker_test","37","image-keyboard-response","145","2480195","0.0-4.0-78.0-0.3","1","2020-1-6 21:40:52","MONKEY",NA,NA,NA,NA,NA,"congruent","left","TRUE",NA,NA,NA,NA,NA,NA
"22719","sort_trial",NA,"free-sort","146","2503807","0.0-4.0-79.0","1","2020-1-6 21:40:52","MONKEY",NA,NA,NA,NA,NA,NA,NA,NA,"[{""cat"":15,""src"":6,""x"":25,""y"":503},{""cat"":15,""src"":14,""x"":59,""y"":82},{""cat"":15,""src"":4,""x"":75,""y"":375},{""cat"":16,""src"":12,""x"":83,""y"":139},{""cat"":16,""src"":9,""x"":66,""y"":260},{""cat"":16,""src"":0,""x"":37,""y"":301},{""cat"":13,""src"":18,""x"":15,""y"":14},{""cat"":13,""src"":9,""x"":82,""y"":181},{""cat"":13,""src"":12,""x"":43,""y"":429}]","[{""cat"":""16"",""src"":""0"",""x"":0,""y"":0},{""cat"":""16"",""src"":""12"",""x"":0,""y"":0},{""cat"":""16"",""src"":""9"",""x"":0,""y"":0},{""cat"":""13"",""src"":""12"",""x"":0,""y"":0},{""cat"":""13"",""src"":""18"",""x"":0,""y"":0},{""cat"":""13"",""src"":""9"",""x"":0,""y"":0},{""cat"":""15"",""src"":""4"",""x"":0,""y"":0},{""cat"":""15"",""src"":""14"",""x"":0,""y"":0},{""cat"":""15"",""src"":""6"",""x"":0,""y"":0}]","[{""cat"":16,""src"":0,""loc"":0},{""cat"":16,""src"":12,""loc"":2},{""cat"":16,""src"":9,""loc"":1},{""cat"":13,""src"":12,""loc"":8},{""cat"":13,""src"":18,""loc"":6},{""cat"":13,""src"":9,""loc"":7},{""cat"":15,""src"":4,""loc"":5},{""cat"":15,""src"":14,""loc"":3},{""cat"":15,""src"":6,""loc"":4}]","9","16,16,16,15,15,15,13,13,13,0,9,12,14,6,4,18,9,12,0,1,2,3,4,5,6,7,8,0,2,1,7,8,6,4,5,3",NA
"1397","sort_feedback","32","html-keyboard-response","147","2505205","0.0-4.0-80.0","1","2020-1-6 21:40:52","MONKEY",NA,NA,NA,NA,NA,NA,NA,NA,NA,NA,NA,NA,NA,NA
"19914","setup3",NA,"animation","148","2525120","0.0-4.0-81.0","1","2020-1-6 21:40:52","MONKEY",NA,NA,"[{""cat"":12,""src"":17,""loc"":6},{""cat"":33,""src"":1,""loc"":5},{""cat"":31,""src"":11,""loc"":2},{""cat"":12,""src"":6,""loc"":8},{""cat"":31,""src"":13,""loc"":1},{""cat"":33,""src"":18,""loc"":4},{""cat"":33,""src"":2,""loc"":3},{""cat"":12,""src"":11,""loc"":7},{""cat"":31,""src"":0,""loc"":0}]","3","1101,1102,1101,1102,1102,1101,1101,1102,1101,10001",NA,NA,NA,NA,NA,NA,NA,NA,NA
"839","flanker_instructions","39","html-keyboard-response","149","2525959","0.0-4.0-82.0","1","2020-1-6 21:40:52","MONKEY",NA,NA,NA,NA,NA,NA,NA,NA,NA,NA,NA,NA,NA,NA
"589","flanker_test","39","image-keyboard-response","150","2527549","0.0-4.0-83.0-0.0","1","2020-1-6 21:40:52","MONKEY",NA,NA,NA,NA,NA,"incongruent","right","TRUE",NA,NA,NA,NA,NA,NA
"540","flanker_test","37","image-keyboard-response","151","2528976","0.0-4.0-83.0-0.1","1","2020-1-6 21:40:52","MONKEY",NA,NA,NA,NA,NA,"congruent","left","TRUE",NA,NA,NA,NA,NA,NA
"649","flanker_test","37","image-keyboard-response","152","2530690","0.0-4.0-83.0-0.2","1","2020-1-6 21:40:52","MONKEY",NA,NA,NA,NA,NA,"incongruent","left","TRUE",NA,NA,NA,NA,NA,NA
"666","flanker_test","39","image-keyboard-response","153","2531775","0.0-4.0-83.0-0.3","1","2020-1-6 21:40:52","MONKEY",NA,NA,NA,NA,NA,"congruent","right","TRUE",NA,NA,NA,NA,NA,NA
"23656","sort_trial",NA,"free-sort","154","2556179","0.0-4.0-84.0","1","2020-1-6 21:40:52","MONKEY",NA,NA,NA,NA,NA,NA,NA,NA,"[{""cat"":12,""src"":17,""x"":21,""y"":23},{""cat"":33,""src"":1,""x"":64,""y"":60},{""cat"":31,""src"":11,""x"":62,""y"":189},{""cat"":12,""src"":6,""x"":63,""y"":123},{""cat"":31,""src"":13,""x"":58,""y"":367},{""cat"":33,""src"":18,""x"":41,""y"":428},{""cat"":33,""src"":2,""x"":78,""y"":502},{""cat"":12,""src"":11,""x"":82,""y"":313},{""cat"":31,""src"":0,""x"":24,""y"":247}]","[{""cat"":""31"",""src"":""0"",""x"":0,""y"":0},{""cat"":""31"",""src"":""11"",""x"":0,""y"":0},{""cat"":""31"",""src"":""13"",""x"":0,""y"":0},{""cat"":""12"",""src"":""6"",""x"":0,""y"":0},{""cat"":""12"",""src"":""17"",""x"":0,""y"":0},{""cat"":""12"",""src"":""11"",""x"":0,""y"":0},{""cat"":""33"",""src"":""1"",""x"":0,""y"":0},{""cat"":""33"",""src"":""2"",""x"":0,""y"":0},{""cat"":""33"",""src"":""18"",""x"":0,""y"":0}]","[{""cat"":31,""src"":0,""loc"":0},{""cat"":31,""src"":11,""loc"":2},{""cat"":31,""src"":13,""loc"":1},{""cat"":12,""src"":6,""loc"":8},{""cat"":12,""src"":17,""loc"":6},{""cat"":12,""src"":11,""loc"":7},{""cat"":33,""src"":1,""loc"":5},{""cat"":33,""src"":2,""loc"":3},{""cat"":33,""src"":18,""loc"":4}]","9","31,31,31,33,33,33,12,12,12,0,13,11,2,18,1,17,11,6,0,1,2,3,4,5,6,7,8,0,2,1,7,8,6,4,5,3",NA
"1257","sort_feedback","32","html-keyboard-response","155","2557437","0.0-4.0-85.0","1","2020-1-6 21:40:52","MONKEY",NA,NA,NA,NA,NA,NA,NA,NA,NA,NA,NA,NA,NA,NA
"19914","setup4",NA,"animation","156","2577351","0.0-4.0-86.0","1","2020-1-6 21:40:52","MONKEY",NA,NA,"[{""cat"":2,""src"":12,""loc"":5},{""cat"":2,""src"":14,""loc"":1},{""cat"":2,""src"":15,""loc"":6},{""cat"":15,""src"":19,""loc"":7},{""cat"":15,""src"":17,""loc"":4},{""cat"":15,""src"":7,""loc"":0},{""cat"":7,""src"":0,""loc"":3},{""cat"":7,""src"":6,""loc"":2},{""cat"":7,""src"":12,""loc"":8}]","4","1103,1100,1102,1101,1102,1101,1101,1102,1101,10001",NA,NA,NA,NA,NA,NA,NA,NA,NA
"1088","flanker_instructions","39","html-keyboard-response","157","2578440","0.0-4.0-87.0","1","2020-1-6 21:40:52","MONKEY",NA,NA,NA,NA,NA,NA,NA,NA,NA,NA,NA,NA,NA,NA
"632","flanker_test","37","image-keyboard-response","158","2580074","0.0-4.0-88.0-0.0","1","2020-1-6 21:40:52","MONKEY",NA,NA,NA,NA,NA,"incongruent","left","TRUE",NA,NA,NA,NA,NA,NA
"468","flanker_test","39","image-keyboard-response","159","2581172","0.0-4.0-88.0-0.1","1","2020-1-6 21:40:52","MONKEY",NA,NA,NA,NA,NA,"congruent","right","TRUE",NA,NA,NA,NA,NA,NA
"624","flanker_test","39","image-keyboard-response","160","2582392","0.0-4.0-88.0-0.2","1","2020-1-6 21:40:52","MONKEY",NA,NA,NA,NA,NA,"incongruent","right","TRUE",NA,NA,NA,NA,NA,NA
"514","flanker_test","37","image-keyboard-response","161","2583451","0.0-4.0-88.0-0.3","1","2020-1-6 21:40:52","MONKEY",NA,NA,NA,NA,NA,"congruent","left","TRUE",NA,NA,NA,NA,NA,NA
"23079","sort_trial",NA,"free-sort","162","2607526","0.0-4.0-89.0","1","2020-1-6 21:40:52","MONKEY",NA,NA,NA,NA,NA,NA,NA,NA,"[{""cat"":2,""src"":12,""x"":63,""y"":302},{""cat"":2,""src"":14,""x"":77,""y"":83},{""cat"":2,""src"":15,""x"":25,""y"":259},{""cat"":15,""src"":19,""x"":18,""y"":205},{""cat"":15,""src"":17,""x"":13,""y"":21},{""cat"":15,""src"":7,""x"":19,""y"":137},{""cat"":7,""src"":0,""x"":3,""y"":375},{""cat"":7,""src"":6,""x"":10,""y"":496},{""cat"":7,""src"":12,""x"":72,""y"":420}]","[{""cat"":""15"",""src"":""19"",""x"":0,""y"":0},{""cat"":""2"",""src"":""15"",""x"":0,""y"":0},{""cat"":""7"",""src"":""12"",""x"":0,""y"":0},{""cat"":""7"",""src"":""0"",""x"":0,""y"":0},{""cat"":""2"",""src"":""12"",""x"":0,""y"":0},{""cat"":""15"",""src"":""17"",""x"":0,""y"":0},{""cat"":""15"",""src"":""7"",""x"":0,""y"":0},{""cat"":""2"",""src"":""14"",""x"":0,""y"":0},{""cat"":""7"",""src"":""6"",""x"":0,""y"":0}]","[{""cat"":15,""src"":19,""loc"":7},{""cat"":2,""src"":15,""loc"":6},{""cat"":7,""src"":12,""loc"":8},{""cat"":7,""src"":0,""loc"":3},{""cat"":2,""src"":12,""loc"":4},{""cat"":15,""src"":17,""loc"":5},{""cat"":15,""src"":7,""loc"":0},{""cat"":2,""src"":14,""loc"":1},{""cat"":7,""src"":6,""loc"":2}]","7","15,2,7,7,2,15,2,15,7,7,14,6,0,12,17,15,19,12,0,1,2,3,4,5,6,7,8,6,7,8,3,4,5,1,0,2",NA
"1432","sort_feedback","32","html-keyboard-response","163","2608959","0.0-4.0-90.0","1","2020-1-6 21:40:52","MONKEY",NA,NA,NA,NA,NA,NA,NA,NA,NA,NA,NA,NA,NA,NA
"19915","setup2",NA,"animation","164","2628874","0.0-4.0-91.0","1","2020-1-6 21:40:52","MONKEY",NA,NA,"[{""cat"":29,""src"":9,""loc"":6},{""cat"":24,""src"":9,""loc"":7},{""cat"":4,""src"":14,""loc"":8},{""cat"":4,""src"":16,""loc"":2},{""cat"":29,""src"":19,""loc"":1},{""cat"":24,""src"":10,""loc"":0},{""cat"":4,""src"":11,""loc"":5},{""cat"":24,""src"":1,""loc"":4},{""cat"":29,""src"":3,""loc"":3}]","2","1103,1101,1101,1101,1102,1102,1102,1101,1101,10001",NA,NA,NA,NA,NA,NA,NA,NA,NA
"981","flanker_instructions","39","html-keyboard-response","165","2629856","0.0-4.0-92.0","1","2020-1-6 21:40:52","MONKEY",NA,NA,NA,NA,NA,NA,NA,NA,NA,NA,NA,NA,NA,NA
"512","flanker_test","37","image-keyboard-response","166","2631369","0.0-4.0-93.0-0.0","1","2020-1-6 21:40:52","MONKEY",NA,NA,NA,NA,NA,"congruent","left","TRUE",NA,NA,NA,NA,NA,NA
"421","flanker_test","39","image-keyboard-response","167","2632534","0.0-4.0-93.0-0.1","1","2020-1-6 21:40:52","MONKEY",NA,NA,NA,NA,NA,"congruent","right","TRUE",NA,NA,NA,NA,NA,NA
"569","flanker_test","39","image-keyboard-response","168","2634029","0.0-4.0-93.0-0.2","1","2020-1-6 21:40:52","MONKEY",NA,NA,NA,NA,NA,"incongruent","right","TRUE",NA,NA,NA,NA,NA,NA
"624","flanker_test","37","image-keyboard-response","169","2635618","0.0-4.0-93.0-0.3","1","2020-1-6 21:40:52","MONKEY",NA,NA,NA,NA,NA,"incongruent","left","TRUE",NA,NA,NA,NA,NA,NA
"33551","sort_trial",NA,"free-sort","170","2669717","0.0-4.0-94.0","1","2020-1-6 21:40:52","MONKEY",NA,NA,NA,NA,NA,NA,NA,NA,"[{""cat"":29,""src"":9,""x"":12,""y"":187},{""cat"":24,""src"":9,""x"":60,""y"":9},{""cat"":4,""src"":14,""x"":75,""y"":419},{""cat"":4,""src"":16,""x"":45,""y"":310},{""cat"":29,""src"":19,""x"":25,""y"":368},{""cat"":24,""src"":10,""x"":49,""y"":490},{""cat"":4,""src"":11,""x"":25,""y"":121},{""cat"":24,""src"":1,""x"":39,""y"":63},{""cat"":29,""src"":3,""x"":22,""y"":260}]","[{""cat"":""24"",""src"":""10"",""x"":156,""y"":257},{""cat"":""4"",""src"":""11"",""x"":0,""y"":0},{""cat"":""29"",""src"":""3"",""x"":0,""y"":0},{""cat"":""24"",""src"":""1"",""x"":0,""y"":0},{""cat"":""29"",""src"":""19"",""x"":0,""y"":0},{""cat"":""29"",""src"":""9"",""x"":0,""y"":0},{""cat"":""24"",""src"":""9"",""x"":272,""y"":363},{""cat"":""24"",""src"":""9"",""x"":0,""y"":0},{""cat"":""4"",""src"":""14"",""x"":0,""y"":0},{""cat"":""4"",""src"":""16"",""x"":0,""y"":0},{""cat"":""24"",""src"":""10"",""x"":0,""y"":0}]","[{""cat"":4,""src"":11,""loc"":0},{""cat"":29,""src"":3,""loc"":2},{""cat"":24,""src"":1,""loc"":1},{""cat"":29,""src"":19,""loc"":6},{""cat"":29,""src"":9,""loc"":8},{""cat"":24,""src"":9,""loc"":7},{""cat"":4,""src"":14,""loc"":4},{""cat"":4,""src"":16,""loc"":5},{""cat"":24,""src"":10,""loc"":3}]","1","4,24,29,24,4,4,29,24,29,11,1,3,10,14,16,19,9,9,0,1,2,3,4,5,6,7,8,0,2,1,8,6,7,3,5,4",NA
"2451","sort_feedback","32","html-keyboard-response","171","2672169","0.0-4.0-95.0","1","2020-1-6 21:40:52","MONKEY",NA,NA,NA,NA,NA,NA,NA,NA,NA,NA,NA,NA,NA,NA
"19914","setup5",NA,"animation","172","2692084","0.0-4.0-96.0","1","2020-1-6 21:40:52","MONKEY",NA,NA,"[{""cat"":18,""src"":9,""loc"":6},{""cat"":10,""src"":0,""loc"":3},{""cat"":26,""src"":18,""loc"":0},{""cat"":26,""src"":3,""loc"":5},{""cat"":18,""src"":11,""loc"":1},{""cat"":10,""src"":13,""loc"":7},{""cat"":26,""src"":14,""loc"":8},{""cat"":10,""src"":18,""loc"":2},{""cat"":18,""src"":16,""loc"":4}]","5","1102,1101,1101,1101,1102,1102,1102,1100,1102,10001",NA,NA,NA,NA,NA,NA,NA,NA,NA
"1588","flanker_instructions","39","html-keyboard-response","173","2693673","0.0-4.0-97.0","1","2020-1-6 21:40:52","MONKEY",NA,NA,NA,NA,NA,NA,NA,NA,NA,NA,NA,NA,NA,NA
"467","flanker_test","39","image-keyboard-response","174","2695143","0.0-4.0-98.0-0.0","1","2020-1-6 21:40:52","MONKEY",NA,NA,NA,NA,NA,"congruent","right","TRUE",NA,NA,NA,NA,NA,NA
"840","flanker_test","37","image-keyboard-response","175","2697143","0.0-4.0-98.0-0.1","1","2020-1-6 21:40:52","MONKEY",NA,NA,NA,NA,NA,"congruent","left","TRUE",NA,NA,NA,NA,NA,NA
"584","flanker_test","39","image-keyboard-response","176","2698637","0.0-4.0-98.0-0.2","1","2020-1-6 21:40:52","MONKEY",NA,NA,NA,NA,NA,"incongruent","right","TRUE",NA,NA,NA,NA,NA,NA
"448","flanker_test","39","image-keyboard-response","177","2699731","0.0-4.0-98.0-0.3","1","2020-1-6 21:40:52","MONKEY",NA,NA,NA,NA,NA,"incongruent","left","FALSE",NA,NA,NA,NA,NA,NA
"16938","sort_trial",NA,"free-sort","178","2717541","0.0-4.0-99.0","1","2020-1-6 21:40:52","MONKEY",NA,NA,NA,NA,NA,NA,NA,NA,"[{""cat"":18,""src"":9,""x"":67,""y"":305},{""cat"":10,""src"":0,""x"":20,""y"":269},{""cat"":26,""src"":18,""x"":65,""y"":130},{""cat"":26,""src"":3,""x"":18,""y"":180},{""cat"":18,""src"":11,""x"":76,""y"":438},{""cat"":10,""src"":13,""x"":82,""y"":89},{""cat"":26,""src"":14,""x"":1,""y"":365},{""cat"":10,""src"":18,""x"":58,""y"":0},{""cat"":18,""src"":16,""x"":19,""y"":497}]","[{""cat"":""26"",""src"":""3"",""x"":0,""y"":0},{""cat"":""10"",""src"":""0"",""x"":0,""y"":0},{""cat"":""18"",""src"":""16"",""x"":0,""y"":0},{""cat"":""18"",""src"":""11"",""x"":0,""y"":0},{""cat"":""26"",""src"":""18"",""x"":0,""y"":0},{""cat"":""10"",""src"":""18"",""x"":0,""y"":0},{""cat"":""18"",""src"":""9"",""x"":0,""y"":0},{""cat"":""10"",""src"":""13"",""x"":0,""y"":0},{""cat"":""26"",""src"":""14"",""x"":0,""y"":0}]","[{""cat"":26,""src"":3,""loc"":5},{""cat"":10,""src"":0,""loc"":3},{""cat"":18,""src"":16,""loc"":4},{""cat"":18,""src"":11,""loc"":1},{""cat"":26,""src"":18,""loc"":0},{""cat"":10,""src"":18,""loc"":7},{""cat"":18,""src"":9,""loc"":2},{""cat"":10,""src"":13,""loc"":6},{""cat"":26,""src"":14,""loc"":8}]","6","26,18,18,10,18,26,10,10,26,18,11,9,0,16,3,13,18,14,0,1,2,3,4,5,6,7,8,4,3,6,1,2,0,7,5,8",NA
"1490","sort_feedback","32","html-keyboard-response","179","2719032","0.0-4.0-100.0","1","2020-1-6 21:40:52","MONKEY",NA,NA,NA,NA,NA,NA,NA,NA,NA,NA,NA,NA,NA,NA
NA,"breakStart",NA,"html-keyboard-response","180","2749033","0.0-5.0-0.0","1","2020-1-6 21:40:52","MONKEY",NA,NA,NA,NA,NA,NA,NA,NA,NA,NA,NA,NA,NA,NA
"1564","breakEnd",NA,"html-button-response","181","2750598","0.0-5.0-1.0","1","2020-1-6 21:40:52","MONKEY","0",NA,NA,NA,NA,NA,NA,NA,NA,NA,NA,NA,NA,NA
"19916","setup1",NA,"animation","182","2770515","0.0-6.0-0.0","1","2020-1-6 21:40:52","MONKEY",NA,NA,"[{""cat"":33,""src"":6,""loc"":1},{""cat"":33,""src"":2,""loc"":0},{""cat"":33,""src"":19,""loc"":2},{""cat"":3,""src"":18,""loc"":8},{""cat"":3,""src"":1,""loc"":7},{""cat"":3,""src"":6,""loc"":6},{""cat"":29,""src"":19,""loc"":3},{""cat"":29,""src"":4,""loc"":5},{""cat"":29,""src"":7,""loc"":4}]","1","1102,1102,1102,1102,1102,1101,1102,1100,1102,10001",NA,NA,NA,NA,NA,NA,NA,NA,NA
"1117","flanker_instructions","48","html-keyboard-response","183","2771633","0.0-6.0-1.0","1","2020-1-6 21:40:52","MONKEY",NA,NA,NA,NA,NA,NA,NA,NA,NA,NA,NA,NA,NA,NA
"844","flanker_test","39","image-keyboard-response","184","2773480","0.0-6.0-2.0-0.0","1","2020-1-6 21:40:52","MONKEY",NA,NA,NA,NA,NA,"incongruent","right","TRUE",NA,NA,NA,NA,NA,NA
"426","flanker_test","39","image-keyboard-response","185","2774942","0.0-6.0-2.0-0.1","1","2020-1-6 21:40:52","MONKEY",NA,NA,NA,NA,NA,"congruent","right","TRUE",NA,NA,NA,NA,NA,NA
"447","flanker_test","37","image-keyboard-response","186","2775982","0.0-6.0-2.0-0.2","1","2020-1-6 21:40:52","MONKEY",NA,NA,NA,NA,NA,"congruent","left","TRUE",NA,NA,NA,NA,NA,NA
"653","flanker_test","37","image-keyboard-response","187","2777437","0.0-6.0-2.0-0.3","1","2020-1-6 21:40:52","MONKEY",NA,NA,NA,NA,NA,"incongruent","left","TRUE",NA,NA,NA,NA,NA,NA
"22245","sort_trial",NA,"free-sort","188","2800558","0.0-6.0-3.0","1","2020-1-6 21:40:52","MONKEY",NA,NA,NA,NA,NA,NA,NA,NA,"[{""cat"":33,""src"":6,""x"":44,""y"":8},{""cat"":33,""src"":2,""x"":2,""y"":368},{""cat"":33,""src"":19,""x"":34,""y"":69},{""cat"":3,""src"":18,""x"":10,""y"":248},{""cat"":3,""src"":1,""x"":83,""y"":446},{""cat"":3,""src"":6,""x"":0,""y"":209},{""cat"":29,""src"":19,""x"":78,""y"":319},{""cat"":29,""src"":4,""x"":49,""y"":125},{""cat"":29,""src"":7,""x"":31,""y"":506}]","[{""cat"":""33"",""src"":""2"",""x"":0,""y"":0},{""cat"":""33"",""src"":""19"",""x"":0,""y"":0},{""cat"":""33"",""src"":""6"",""x"":0,""y"":0},{""cat"":""29"",""src"":""4"",""x"":0,""y"":0},{""cat"":""29"",""src"":""7"",""x"":0,""y"":0},{""cat"":""29"",""src"":""19"",""x"":0,""y"":0},{""cat"":""3"",""src"":""1"",""x"":0,""y"":0},{""cat"":""3"",""src"":""6"",""x"":0,""y"":0},{""cat"":""3"",""src"":""18"",""x"":0,""y"":0}]","[{""cat"":33,""src"":2,""loc"":0},{""cat"":33,""src"":19,""loc"":2},{""cat"":33,""src"":6,""loc"":1},{""cat"":29,""src"":4,""loc"":4},{""cat"":29,""src"":7,""loc"":3},{""cat"":29,""src"":19,""loc"":5},{""cat"":3,""src"":1,""loc"":7},{""cat"":3,""src"":6,""loc"":6},{""cat"":3,""src"":18,""loc"":8}]","6","33,33,33,29,29,29,3,3,3,2,6,19,7,4,19,6,1,18,0,1,2,3,4,5,6,7,8,0,2,1,4,3,5,7,6,8",NA
"2513","sort_feedback","18","html-keyboard-response","189","2803073","0.0-6.0-4.0","1","2020-1-6 21:40:52","MONKEY",NA,NA,NA,NA,NA,NA,NA,NA,NA,NA,NA,NA,NA,NA
"19915","setup5",NA,"animation","190","2822989","0.0-6.0-5.0","1","2020-1-6 21:40:52","MONKEY",NA,NA,"[{""cat"":32,""src"":16,""loc"":6},{""cat"":18,""src"":15,""loc"":1},{""cat"":22,""src"":4,""loc"":3},{""cat"":32,""src"":10,""loc"":4},{""cat"":18,""src"":9,""loc"":7},{""cat"":22,""src"":19,""loc"":2},{""cat"":22,""src"":10,""loc"":8},{""cat"":18,""src"":5,""loc"":5},{""cat"":32,""src"":19,""loc"":0}]","5","1102,1102,1101,1101,1101,1103,1101,1102,1101,10001",NA,NA,NA,NA,NA,NA,NA,NA,NA
"1238","flanker_instructions","39","html-keyboard-response","191","2824227","0.0-6.0-6.0","1","2020-1-6 21:40:52","MONKEY",NA,NA,NA,NA,NA,NA,NA,NA,NA,NA,NA,NA,NA,NA
"665","flanker_test","39","image-keyboard-response","192","2825894","0.0-6.0-7.0-0.0","1","2020-1-6 21:40:52","MONKEY",NA,NA,NA,NA,NA,"incongruent","right","TRUE",NA,NA,NA,NA,NA,NA
"463","flanker_test","39","image-keyboard-response","193","2827169","0.0-6.0-7.0-0.1","1","2020-1-6 21:40:52","MONKEY",NA,NA,NA,NA,NA,"congruent","right","TRUE",NA,NA,NA,NA,NA,NA
"551","flanker_test","37","image-keyboard-response","194","2828342","0.0-6.0-7.0-0.2","1","2020-1-6 21:40:52","MONKEY",NA,NA,NA,NA,NA,"incongruent","left","TRUE",NA,NA,NA,NA,NA,NA
"420","flanker_test","37","image-keyboard-response","195","2829672","0.0-6.0-7.0-0.3","1","2020-1-6 21:40:52","MONKEY",NA,NA,NA,NA,NA,"congruent","left","TRUE",NA,NA,NA,NA,NA,NA
"15967","sort_trial",NA,"free-sort","196","2846387","0.0-6.0-8.0","1","2020-1-6 21:40:52","MONKEY",NA,NA,NA,NA,NA,NA,NA,NA,"[{""cat"":32,""src"":16,""x"":49,""y"":205},{""cat"":18,""src"":15,""x"":24,""y"":438},{""cat"":22,""src"":4,""x"":64,""y"":244},{""cat"":32,""src"":10,""x"":42,""y"":307},{""cat"":18,""src"":9,""x"":27,""y"":387},{""cat"":22,""src"":19,""x"":72,""y"":498},{""cat"":22,""src"":10,""x"":42,""y"":140},{""cat"":18,""src"":5,""x"":34,""y"":2},{""cat"":32,""src"":19,""x"":42,""y"":63}]","[{""cat"":""18"",""src"":""5"",""x"":0,""y"":0},{""cat"":""32"",""src"":""10"",""x"":0,""y"":0},{""cat"":""22"",""src"":""4"",""x"":0,""y"":0},{""cat"":""32"",""src"":""16"",""x"":0,""y"":0},{""cat"":""22"",""src"":""10"",""x"":0,""y"":0},{""cat"":""18"",""src"":""9"",""x"":0,""y"":0},{""cat"":""32"",""src"":""19"",""x"":0,""y"":0},{""cat"":""18"",""src"":""15"",""x"":0,""y"":0},{""cat"":""22"",""src"":""19"",""x"":0,""y"":0}]","[{""cat"":18,""src"":5,""loc"":5},{""cat"":32,""src"":10,""loc"":4},{""cat"":22,""src"":4,""loc"":3},{""cat"":32,""src"":16,""loc"":6},{""cat"":22,""src"":10,""loc"":8},{""cat"":18,""src"":9,""loc"":7},{""cat"":32,""src"":19,""loc"":0},{""cat"":18,""src"":15,""loc"":2},{""cat"":22,""src"":19,""loc"":1}]","7","32,22,18,22,32,18,32,18,22,19,19,15,4,10,5,16,9,10,0,1,2,3,4,5,6,7,8,6,8,7,2,1,0,3,5,4",NA
"1303","sort_feedback","32","html-keyboard-response","197","2847690","0.0-6.0-9.0","1","2020-1-6 21:40:52","MONKEY",NA,NA,NA,NA,NA,NA,NA,NA,NA,NA,NA,NA,NA,NA
"19915","setup2",NA,"animation","198","2867605","0.0-6.0-10.0","1","2020-1-6 21:40:52","MONKEY",NA,NA,"[{""cat"":0,""src"":10,""loc"":4},{""cat"":9,""src"":1,""loc"":3},{""cat"":33,""src"":13,""loc"":5},{""cat"":0,""src"":7,""loc"":7},{""cat"":33,""src"":9,""loc"":8},{""cat"":9,""src"":8,""loc"":6},{""cat"":9,""src"":12,""loc"":1},{""cat"":0,""src"":3,""loc"":0},{""cat"":33,""src"":5,""loc"":2}]","2","1102,1101,1102,1102,1101,1101,1102,1101,1101,10002",NA,NA,NA,NA,NA,NA,NA,NA,NA
"1052","flanker_instructions","39","html-keyboard-response","199","2868657","0.0-6.0-11.0","1","2020-1-6 21:40:52","MONKEY",NA,NA,NA,NA,NA,NA,NA,NA,NA,NA,NA,NA,NA,NA
"600","flanker_test","39","image-keyboard-response","200","2870258","0.0-6.0-12.0-0.0","1","2020-1-6 21:40:52","MONKEY",NA,NA,NA,NA,NA,"incongruent","right","TRUE",NA,NA,NA,NA,NA,NA
"627","flanker_test","39","image-keyboard-response","201","2871280","0.0-6.0-12.0-0.1","1","2020-1-6 21:40:52","MONKEY",NA,NA,NA,NA,NA,"congruent","right","TRUE",NA,NA,NA,NA,NA,NA
"602","flanker_test","37","image-keyboard-response","202","2872910","0.0-6.0-12.0-0.2","1","2020-1-6 21:40:52","MONKEY",NA,NA,NA,NA,NA,"incongruent","left","TRUE",NA,NA,NA,NA,NA,NA
"530","flanker_test","37","image-keyboard-response","203","2874462","0.0-6.0-12.0-0.3","1","2020-1-6 21:40:52","MONKEY",NA,NA,NA,NA,NA,"congruent","left","TRUE",NA,NA,NA,NA,NA,NA
"39807","sort_trial",NA,"free-sort","204","2915258","0.0-6.0-13.0","1","2020-1-6 21:40:52","MONKEY",NA,NA,NA,NA,NA,NA,NA,NA,"[{""cat"":0,""src"":10,""x"":48,""y"":486},{""cat"":9,""src"":1,""x"":49,""y"":136},{""cat"":33,""src"":13,""x"":6,""y"":23},{""cat"":0,""src"":7,""x"":26,""y"":427},{""cat"":33,""src"":9,""x"":48,""y"":379},{""cat"":9,""src"":8,""x"":64,""y"":314},{""cat"":9,""src"":12,""x"":73,""y"":261},{""cat"":0,""src"":3,""x"":40,""y"":204},{""cat"":33,""src"":5,""x"":50,""y"":67}]","[{""cat"":""33"",""src"":""9"",""x"":0,""y"":0},{""cat"":""9"",""src"":""8"",""x"":102,""y"":342},{""cat"":""33"",""src"":""13"",""x"":0,""y"":0},{""cat"":""9"",""src"":""12"",""x"":0,""y"":0},{""cat"":""0"",""src"":""7"",""x"":1,""y"":501},{""cat"":""0"",""src"":""10"",""x"":0,""y"":0},{""cat"":""9"",""src"":""1"",""x"":0,""y"":0},{""cat"":""33"",""src"":""5"",""x"":0,""y"":0},{""cat"":""0"",""src"":""7"",""x"":0,""y"":0},{""cat"":""0"",""src"":""3"",""x"":0,""y"":0},{""cat"":""9"",""src"":""8"",""x"":0,""y"":0}]","[{""cat"":33,""src"":9,""loc"":1},{""cat"":33,""src"":13,""loc"":3},{""cat"":9,""src"":12,""loc"":5},{""cat"":0,""src"":10,""loc"":4},{""cat"":9,""src"":1,""loc"":0},{""cat"":33,""src"":5,""loc"":2},{""cat"":0,""src"":7,""loc"":8},{""cat"":0,""src"":3,""loc"":6},{""cat"":9,""src"":8,""loc"":7}]","2","9,33,33,33,0,9,0,9,0,1,9,5,13,10,12,3,8,7,0,1,2,3,4,5,6,7,8,4,0,5,1,3,2,7,8,6",NA
"4042","sort_feedback","32","html-keyboard-response","205","2919302","0.0-6.0-14.0","1","2020-1-6 21:40:52","MONKEY",NA,NA,NA,NA,NA,NA,NA,NA,NA,NA,NA,NA,NA,NA
"19916","setup3",NA,"animation","206","2939218","0.0-6.0-15.0","1","2020-1-6 21:40:52","MONKEY",NA,NA,"[{""cat"":16,""src"":3,""loc"":8},{""cat"":4,""src"":19,""loc"":5},{""cat"":6,""src"":18,""loc"":0},{""cat"":16,""src"":19,""loc"":7},{""cat"":4,""src"":1,""loc"":3},{""cat"":6,""src"":6,""loc"":2},{""cat"":16,""src"":1,""loc"":6},{""cat"":4,""src"":12,""loc"":4},{""cat"":6,""src"":10,""loc"":1}]","3","1101,1101,1102,1102,1101,1103,1100,1103,1101,10002",NA,NA,NA,NA,NA,NA,NA,NA,NA
"1468","flanker_instructions","39","html-keyboard-response","207","2940687","0.0-6.0-16.0","1","2020-1-6 21:40:52","MONKEY",NA,NA,NA,NA,NA,NA,NA,NA,NA,NA,NA,NA,NA,NA
"715","flanker_test","37","image-keyboard-response","208","2942403","0.0-6.0-17.0-0.0","1","2020-1-6 21:40:52","MONKEY",NA,NA,NA,NA,NA,"congruent","left","TRUE",NA,NA,NA,NA,NA,NA
"671","flanker_test","37","image-keyboard-response","209","2943585","0.0-6.0-17.0-0.1","1","2020-1-6 21:40:52","MONKEY",NA,NA,NA,NA,NA,"incongruent","left","TRUE",NA,NA,NA,NA,NA,NA
"486","flanker_test","39","image-keyboard-response","210","2945117","0.0-6.0-17.0-0.2","1","2020-1-6 21:40:52","MONKEY",NA,NA,NA,NA,NA,"congruent","right","TRUE",NA,NA,NA,NA,NA,NA
"466","flanker_test","39","image-keyboard-response","211","2945924","0.0-6.0-17.0-0.3","1","2020-1-6 21:40:52","MONKEY",NA,NA,NA,NA,NA,"incongruent","right","TRUE",NA,NA,NA,NA,NA,NA
"26452","sort_trial",NA,"free-sort","212","2973555","0.0-6.0-18.0","1","2020-1-6 21:40:52","MONKEY",NA,NA,NA,NA,NA,NA,NA,NA,"[{""cat"":16,""src"":3,""x"":51,""y"":125},{""cat"":4,""src"":19,""x"":27,""y"":420},{""cat"":6,""src"":18,""x"":50,""y"":309},{""cat"":16,""src"":19,""x"":39,""y"":387},{""cat"":4,""src"":1,""x"":8,""y"":480},{""cat"":6,""src"":6,""x"":47,""y"":187},{""cat"":16,""src"":1,""x"":17,""y"":63},{""cat"":4,""src"":12,""x"":19,""y"":260},{""cat"":6,""src"":10,""x"":43,""y"":1}]","[{""cat"":""4"",""src"":""1"",""x"":0,""y"":0},{""cat"":""4"",""src"":""19"",""x"":27,""y"":422},{""cat"":""4"",""src"":""19"",""x"":743,""y"":233},{""cat"":""4"",""src"":""12"",""x"":0,""y"":0},{""cat"":""6"",""src"":""18"",""x"":0,""y"":0},{""cat"":""6"",""src"":""6"",""x"":0,""y"":0},{""cat"":""6"",""src"":""10"",""x"":0,""y"":0},{""cat"":""16"",""src"":""19"",""x"":0,""y"":0},{""cat"":""16"",""src"":""1"",""x"":0,""y"":0},{""cat"":""16"",""src"":""3"",""x"":0,""y"":0},{""cat"":""4"",""src"":""19"",""x"":0,""y"":0}]","[{""cat"":4,""src"":1,""loc"":5},{""cat"":4,""src"":12,""loc"":4},{""cat"":6,""src"":18,""loc"":2},{""cat"":6,""src"":6,""loc"":0},{""cat"":6,""src"":10,""loc"":1},{""cat"":16,""src"":19,""loc"":7},{""cat"":16,""src"":1,""loc"":6},{""cat"":16,""src"":3,""loc"":8},{""cat"":4,""src"":19,""loc"":3}]","5","6,6,6,4,4,4,16,16,16,6,10,18,19,12,1,1,19,3,0,1,2,3,4,5,6,7,8,3,4,2,8,1,0,6,5,7",NA
"972","sort_feedback","32","html-keyboard-response","213","2974529","0.0-6.0-19.0","1","2020-1-6 21:40:52","MONKEY",NA,NA,NA,NA,NA,NA,NA,NA,NA,NA,NA,NA,NA,NA
"19917","setup4",NA,"animation","214","2994446","0.0-6.0-20.0","1","2020-1-6 21:40:52","MONKEY",NA,NA,"[{""cat"":3,""src"":8,""loc"":5},{""cat"":3,""src"":12,""loc"":6},{""cat"":3,""src"":2,""loc"":1},{""cat"":31,""src"":16,""loc"":0},{""cat"":31,""src"":4,""loc"":7},{""cat"":31,""src"":11,""loc"":4},{""cat"":5,""src"":9,""loc"":3},{""cat"":5,""src"":19,""loc"":2},{""cat"":5,""src"":13,""loc"":8}]","4","1102,1102,1101,1102,1102,1101,1102,1102,1101,10002",NA,NA,NA,NA,NA,NA,NA,NA,NA
"1725","flanker_instructions","39","html-keyboard-response","215","2996172","0.0-6.0-21.0","1","2020-1-6 21:40:52","MONKEY",NA,NA,NA,NA,NA,NA,NA,NA,NA,NA,NA,NA,NA,NA
"485","flanker_test","37","image-keyboard-response","216","2997658","0.0-6.0-22.0-0.0","1","2020-1-6 21:40:52","MONKEY",NA,NA,NA,NA,NA,"congruent","left","TRUE",NA,NA,NA,NA,NA,NA
"546","flanker_test","39","image-keyboard-response","217","2999104","0.0-6.0-22.0-0.1","1","2020-1-6 21:40:52","MONKEY",NA,NA,NA,NA,NA,"incongruent","right","TRUE",NA,NA,NA,NA,NA,NA
"609","flanker_test","37","image-keyboard-response","218","3000065","0.0-6.0-22.0-0.2","1","2020-1-6 21:40:52","MONKEY",NA,NA,NA,NA,NA,"incongruent","left","TRUE",NA,NA,NA,NA,NA,NA
"444","flanker_test","39","image-keyboard-response","219","3001618","0.0-6.0-22.0-0.3","1","2020-1-6 21:40:52","MONKEY",NA,NA,NA,NA,NA,"congruent","right","TRUE",NA,NA,NA,NA,NA,NA
"32467","sort_trial",NA,"free-sort","220","3035079","0.0-6.0-23.0","1","2020-1-6 21:40:52","MONKEY",NA,NA,NA,NA,NA,NA,NA,NA,"[{""cat"":3,""src"":8,""x"":8,""y"":77},{""cat"":3,""src"":12,""x"":63,""y"":482},{""cat"":3,""src"":2,""x"":55,""y"":428},{""cat"":31,""src"":16,""x"":0,""y"":193},{""cat"":31,""src"":4,""x"":64,""y"":146},{""cat"":31,""src"":11,""x"":2,""y"":255},{""cat"":5,""src"":9,""x"":74,""y"":328},{""cat"":5,""src"":19,""x"":76,""y"":380},{""cat"":5,""src"":13,""x"":20,""y"":4}]","[{""cat"":""3"",""src"":""12"",""x"":0,""y"":0},{""cat"":""3"",""src"":""2"",""x"":0,""y"":0},{""cat"":""31"",""src"":""4"",""x"":0,""y"":0},{""cat"":""31"",""src"":""11"",""x"":0,""y"":0},{""cat"":""3"",""src"":""8"",""x"":614,""y"":128},{""cat"":""3"",""src"":""8"",""x"":0,""y"":0},{""cat"":""5"",""src"":""13"",""x"":0,""y"":0},{""cat"":""5"",""src"":""9"",""x"":0,""y"":0},{""cat"":""31"",""src"":""16"",""x"":233,""y"":112},{""cat"":""31"",""src"":""16"",""x"":0,""y"":0},{""cat"":""5"",""src"":""19"",""x"":0,""y"":0}]","[{""cat"":3,""src"":12,""loc"":6},{""cat"":3,""src"":2,""loc"":1},{""cat"":31,""src"":4,""loc"":8},{""cat"":31,""src"":11,""loc"":3},{""cat"":3,""src"":8,""loc"":5},{""cat"":5,""src"":13,""loc"":7},{""cat"":5,""src"":9,""loc"":2},{""cat"":31,""src"":16,""loc"":0},{""cat"":5,""src"":19,""loc"":4}]","4","31,3,5,31,5,3,3,5,31,16,2,9,11,19,8,12,13,4,0,1,2,3,4,5,6,7,8,7,1,6,3,8,4,0,5,2",NA
"1323","sort_feedback","32","html-keyboard-response","221","3036402","0.0-6.0-24.0","1","2020-1-6 21:40:52","MONKEY",NA,NA,NA,NA,NA,NA,NA,NA,NA,NA,NA,NA,NA,NA
"19916","setup3",NA,"animation","222","3056318","0.0-6.0-25.0","1","2020-1-6 21:40:52","MONKEY",NA,NA,"[{""cat"":5,""src"":17,""loc"":6},{""cat"":12,""src"":0,""loc"":3},{""cat"":29,""src"":10,""loc"":0},{""cat"":29,""src"":19,""loc"":1},{""cat"":12,""src"":10,""loc"":4},{""cat"":5,""src"":9,""loc"":7},{""cat"":5,""src"":3,""loc"":8},{""cat"":29,""src"":9,""loc"":2},{""cat"":12,""src"":9,""loc"":5}]","3","1103,1100,1102,1101,1101,1102,1102,1102,1102,10001",NA,NA,NA,NA,NA,NA,NA,NA,NA
"4848","flanker_instructions","39","html-keyboard-response","223","3061167","0.0-6.0-26.0","1","2020-1-6 21:40:52","MONKEY",NA,NA,NA,NA,NA,NA,NA,NA,NA,NA,NA,NA,NA,NA
"848","flanker_test","37","image-keyboard-response","224","3063017","0.0-6.0-27.0-0.0","1","2020-1-6 21:40:52","MONKEY",NA,NA,NA,NA,NA,"congruent","left","TRUE",NA,NA,NA,NA,NA,NA
"736","flanker_test","39","image-keyboard-response","225","3064349","0.0-6.0-27.0-0.1","1","2020-1-6 21:40:52","MONKEY",NA,NA,NA,NA,NA,"incongruent","right","TRUE",NA,NA,NA,NA,NA,NA
"754","flanker_test","39","image-keyboard-response","226","3065747","0.0-6.0-27.0-0.2","1","2020-1-6 21:40:52","MONKEY",NA,NA,NA,NA,NA,"congruent","right","TRUE",NA,NA,NA,NA,NA,NA
NA,"flanker_test",NA,"image-keyboard-response","227","3067751","0.0-6.0-27.0-0.3","1","2020-1-6 21:40:52","MONKEY",NA,NA,NA,NA,NA,"incongruent","left","FALSE",NA,NA,NA,NA,NA,NA
"19660","sort_trial",NA,"free-sort","228","3088590","0.0-6.0-28.0","1","2020-1-6 21:40:52","MONKEY",NA,NA,NA,NA,NA,NA,NA,NA,"[{""cat"":5,""src"":17,""x"":73,""y"":182},{""cat"":12,""src"":0,""x"":28,""y"":306},{""cat"":29,""src"":10,""x"":77,""y"":483},{""cat"":29,""src"":19,""x"":13,""y"":441},{""cat"":12,""src"":10,""x"":44,""y"":26},{""cat"":5,""src"":9,""x"":40,""y"":243},{""cat"":5,""src"":3,""x"":12,""y"":67},{""cat"":29,""src"":9,""x"":73,""y"":388},{""cat"":12,""src"":9,""x"":4,""y"":133}]","[{""cat"":""12"",""src"":""10"",""x"":0,""y"":0},{""cat"":""5"",""src"":""3"",""x"":0,""y"":0},{""cat"":""12"",""src"":""9"",""x"":0,""y"":0},{""cat"":""5"",""src"":""9"",""x"":0,""y"":0},{""cat"":""12"",""src"":""0"",""x"":0,""y"":0},{""cat"":""29"",""src"":""9"",""x"":0,""y"":0},{""cat"":""5"",""src"":""17"",""x"":596,""y"":163},{""cat"":""5"",""src"":""17"",""x"":0,""y"":0},{""cat"":""29"",""src"":""19"",""x"":767,""y"":170},{""cat"":""29"",""src"":""10"",""x"":0,""y"":0},{""cat"":""29"",""src"":""19"",""x"":0,""y"":0}]","[{""cat"":12,""src"":10,""loc"":0},{""cat"":5,""src"":3,""loc"":2},{""cat"":12,""src"":9,""loc"":1},{""cat"":5,""src"":9,""loc"":6},{""cat"":12,""src"":0,""loc"":7},{""cat"":29,""src"":9,""loc"":8},{""cat"":5,""src"":17,""loc"":5},{""cat"":29,""src"":10,""loc"":3},{""cat"":29,""src"":19,""loc"":4}]","0","12,12,5,29,29,5,5,12,29,10,9,3,10,19,17,9,0,9,0,1,2,3,4,5,6,7,8,0,2,1,7,8,6,3,4,5",NA
"1550","sort_feedback","32","html-keyboard-response","229","3090141","0.0-6.0-29.0","1","2020-1-6 21:40:52","MONKEY",NA,NA,NA,NA,NA,NA,NA,NA,NA,NA,NA,NA,NA,NA
"19913","setup1",NA,"animation","230","3110055","0.0-6.0-30.0","1","2020-1-6 21:40:52","MONKEY",NA,NA,"[{""cat"":4,""src"":16,""loc"":2},{""cat"":4,""src"":17,""loc"":1},{""cat"":4,""src"":7,""loc"":0},{""cat"":15,""src"":16,""loc"":7},{""cat"":15,""src"":10,""loc"":6},{""cat"":15,""src"":6,""loc"":8},{""cat"":31,""src"":5,""loc"":5},{""cat"":31,""src"":7,""loc"":4},{""cat"":31,""src"":4,""loc"":3}]","1","1102,1101,1102,1102,1100,1101,1102,1100,1102,10001",NA,NA,NA,NA,NA,NA,NA,NA,NA
"1035","flanker_instructions","39","html-keyboard-response","231","3111091","0.0-6.0-31.0","1","2020-1-6 21:40:52","MONKEY",NA,NA,NA,NA,NA,NA,NA,NA,NA,NA,NA,NA,NA,NA
"548","flanker_test","37","image-keyboard-response","232","3112642","0.0-6.0-32.0-0.0","1","2020-1-6 21:40:52","MONKEY",NA,NA,NA,NA,NA,"congruent","left","TRUE",NA,NA,NA,NA,NA,NA
"428","flanker_test","39","image-keyboard-response","233","3114032","0.0-6.0-32.0-0.1","1","2020-1-6 21:40:52","MONKEY",NA,NA,NA,NA,NA,"congruent","right","TRUE",NA,NA,NA,NA,NA,NA
"695","flanker_test","39","image-keyboard-response","234","3115866","0.0-6.0-32.0-0.2","1","2020-1-6 21:40:52","MONKEY",NA,NA,NA,NA,NA,"incongruent","right","TRUE",NA,NA,NA,NA,NA,NA
"766","flanker_test","37","image-keyboard-response","235","3117742","0.0-6.0-32.0-0.3","1","2020-1-6 21:40:52","MONKEY",NA,NA,NA,NA,NA,"incongruent","left","TRUE",NA,NA,NA,NA,NA,NA
"23195","sort_trial",NA,"free-sort","236","3142053","0.0-6.0-33.0","1","2020-1-6 21:40:52","MONKEY",NA,NA,NA,NA,NA,NA,NA,NA,"[{""cat"":4,""src"":16,""x"":47,""y"":430},{""cat"":4,""src"":17,""x"":17,""y"":79},{""cat"":4,""src"":7,""x"":80,""y"":363},{""cat"":15,""src"":16,""x"":64,""y"":264},{""cat"":15,""src"":10,""x"":49,""y"":132},{""cat"":15,""src"":6,""x"":33,""y"":504},{""cat"":31,""src"":5,""x"":8,""y"":208},{""cat"":31,""src"":7,""x"":22,""y"":321},{""cat"":31,""src"":4,""x"":82,""y"":9}]","[{""cat"":""4"",""src"":""7"",""x"":0,""y"":0},{""cat"":""4"",""src"":""16"",""x"":0,""y"":0},{""cat"":""4"",""src"":""17"",""x"":0,""y"":0},{""cat"":""15"",""src"":""16"",""x"":0,""y"":0},{""cat"":""15"",""src"":""10"",""x"":0,""y"":0},{""cat"":""15"",""src"":""6"",""x"":0,""y"":0},{""cat"":""31"",""src"":""5"",""x"":0,""y"":0},{""cat"":""31"",""src"":""4"",""x"":0,""y"":0},{""cat"":""31"",""src"":""7"",""x"":0,""y"":0}]","[{""cat"":4,""src"":7,""loc"":0},{""cat"":4,""src"":16,""loc"":2},{""cat"":4,""src"":17,""loc"":1},{""cat"":15,""src"":16,""loc"":7},{""cat"":15,""src"":10,""loc"":6},{""cat"":15,""src"":6,""loc"":8},{""cat"":31,""src"":5,""loc"":5},{""cat"":31,""src"":4,""loc"":3},{""cat"":31,""src"":7,""loc"":4}]","9","4,4,4,31,31,31,15,15,15,7,17,16,4,7,5,10,16,6,0,1,2,3,4,5,6,7,8,0,2,1,7,8,6,4,3,5",NA
"3317","sort_feedback","32","html-keyboard-response","237","3145371","0.0-6.0-34.0","1","2020-1-6 21:40:52","MONKEY",NA,NA,NA,NA,NA,NA,NA,NA,NA,NA,NA,NA,NA,NA
"19913","setup2",NA,"animation","238","3165285","0.0-6.0-35.0","1","2020-1-6 21:40:52","MONKEY",NA,NA,"[{""cat"":1,""src"":12,""loc"":2},{""cat"":22,""src"":14,""loc"":1},{""cat"":23,""src"":17,""loc"":0},{""cat"":23,""src"":9,""loc"":6},{""cat"":1,""src"":19,""loc"":7},{""cat"":22,""src"":19,""loc"":8},{""cat"":22,""src"":1,""loc"":3},{""cat"":1,""src"":1,""loc"":5},{""cat"":23,""src"":15,""loc"":4}]","2","1102,1102,1101,1102,1101,1102,1100,1102,1101,10000",NA,NA,NA,NA,NA,NA,NA,NA,NA
"6071","flanker_instructions","39","html-keyboard-response","239","3171357","0.0-6.0-36.0","1","2020-1-6 21:40:52","MONKEY",NA,NA,NA,NA,NA,NA,NA,NA,NA,NA,NA,NA,NA,NA
"433","flanker_test","39","image-keyboard-response","240","3172792","0.0-6.0-37.0-0.0","1","2020-1-6 21:40:52","MONKEY",NA,NA,NA,NA,NA,"incongruent","left","FALSE",NA,NA,NA,NA,NA,NA
"571","flanker_test","39","image-keyboard-response","241","3173788","0.0-6.0-37.0-0.1","1","2020-1-6 21:40:52","MONKEY",NA,NA,NA,NA,NA,"congruent","right","TRUE",NA,NA,NA,NA,NA,NA
"477","flanker_test","37","image-keyboard-response","242","3174594","0.0-6.0-37.0-0.2","1","2020-1-6 21:40:52","MONKEY",NA,NA,NA,NA,NA,"congruent","left","TRUE",NA,NA,NA,NA,NA,NA
"537","flanker_test","39","image-keyboard-response","243","3175962","0.0-6.0-37.0-0.3","1","2020-1-6 21:40:52","MONKEY",NA,NA,NA,NA,NA,"incongruent","right","TRUE",NA,NA,NA,NA,NA,NA
"25455","sort_trial",NA,"free-sort","244","3202505","0.0-6.0-38.0","1","2020-1-6 21:40:52","MONKEY",NA,NA,NA,NA,NA,NA,NA,NA,"[{""cat"":1,""src"":12,""x"":62,""y"":207},{""cat"":22,""src"":14,""x"":29,""y"":314},{""cat"":23,""src"":17,""x"":0,""y"":24},{""cat"":23,""src"":9,""x"":78,""y"":421},{""cat"":1,""src"":19,""x"":39,""y"":81},{""cat"":22,""src"":19,""x"":82,""y"":385},{""cat"":22,""src"":1,""x"":1,""y"":487},{""cat"":1,""src"":1,""x"":80,""y"":258},{""cat"":23,""src"":15,""x"":66,""y"":126}]","[{""cat"":""23"",""src"":""17"",""x"":0,""y"":0},{""cat"":""1"",""src"":""19"",""x"":0,""y"":0},{""cat"":""23"",""src"":""15"",""x"":0,""y"":0},{""cat"":""1"",""src"":""12"",""x"":0,""y"":0},{""cat"":""22"",""src"":""14"",""x"":0,""y"":0},{""cat"":""1"",""src"":""1"",""x"":0,""y"":0},{""cat"":""22"",""src"":""19"",""x"":0,""y"":0},{""cat"":""23"",""src"":""9"",""x"":0,""y"":0},{""cat"":""22"",""src"":""1"",""x"":0,""y"":0}]","[{""cat"":23,""src"":17,""loc"":0},{""cat"":1,""src"":19,""loc"":2},{""cat"":23,""src"":15,""loc"":1},{""cat"":1,""src"":12,""loc"":7},{""cat"":22,""src"":14,""loc"":6},{""cat"":1,""src"":1,""loc"":8},{""cat"":22,""src"":19,""loc"":5},{""cat"":23,""src"":9,""loc"":3},{""cat"":22,""src"":1,""loc"":4}]","1","23,23,1,23,22,22,22,1,1,17,15,19,9,1,19,14,12,1,0,1,2,3,4,5,6,7,8,0,2,1,7,8,6,4,3,5",NA
"1364","sort_feedback","32","html-keyboard-response","245","3203871","0.0-6.0-39.0","1","2020-1-6 21:40:52","MONKEY",NA,NA,NA,NA,NA,NA,NA,NA,NA,NA,NA,NA,NA,NA
"19914","setup5",NA,"animation","246","3223785","0.0-6.0-40.0","1","2020-1-6 21:40:52","MONKEY",NA,NA,"[{""cat"":33,""src"":10,""loc"":4},{""cat"":19,""src"":5,""loc"":6},{""cat"":1,""src"":15,""loc"":0},{""cat"":1,""src"":18,""loc"":7},{""cat"":19,""src"":3,""loc"":3},{""cat"":33,""src"":7,""loc"":1},{""cat"":1,""src"":5,""loc"":5},{""cat"":33,""src"":18,""loc"":8},{""cat"":19,""src"":15,""loc"":2}]","5","1101,1101,1101,1102,1101,1102,1101,1102,1102,10001",NA,NA,NA,NA,NA,NA,NA,NA,NA
"1147","flanker_instructions","39","html-keyboard-response","247","3224933","0.0-6.0-41.0","1","2020-1-6 21:40:52","MONKEY",NA,NA,NA,NA,NA,NA,NA,NA,NA,NA,NA,NA,NA,NA
"573","flanker_test","37","image-keyboard-response","248","3226508","0.0-6.0-42.0-0.0","1","2020-1-6 21:40:52","MONKEY",NA,NA,NA,NA,NA,"congruent","left","TRUE",NA,NA,NA,NA,NA,NA
"464","flanker_test","39","image-keyboard-response","249","3228063","0.0-6.0-42.0-0.1","1","2020-1-6 21:40:52","MONKEY",NA,NA,NA,NA,NA,"congruent","right","TRUE",NA,NA,NA,NA,NA,NA
"784","flanker_test","39","image-keyboard-response","250","3229527","0.0-6.0-42.0-0.2","1","2020-1-6 21:40:52","MONKEY",NA,NA,NA,NA,NA,"incongruent","right","TRUE",NA,NA,NA,NA,NA,NA
"617","flanker_test","37","image-keyboard-response","251","3230768","0.0-6.0-42.0-0.3","1","2020-1-6 21:40:52","MONKEY",NA,NA,NA,NA,NA,"incongruent","left","TRUE",NA,NA,NA,NA,NA,NA
"19083","sort_trial",NA,"free-sort","252","3250256","0.0-6.0-43.0","1","2020-1-6 21:40:52","MONKEY",NA,NA,NA,NA,NA,NA,NA,NA,"[{""cat"":33,""src"":10,""x"":45,""y"":491},{""cat"":19,""src"":5,""x"":24,""y"":436},{""cat"":1,""src"":15,""x"":44,""y"":145},{""cat"":1,""src"":18,""x"":55,""y"":16},{""cat"":19,""src"":3,""x"":33,""y"":253},{""cat"":33,""src"":7,""x"":70,""y"":386},{""cat"":1,""src"":5,""x"":17,""y"":185},{""cat"":33,""src"":18,""x"":13,""y"":311},{""cat"":19,""src"":15,""x"":64,""y"":60}]","[{""cat"":""1"",""src"":""15"",""x"":0,""y"":0},{""cat"":""19"",""src"":""15"",""x"":0,""y"":0},{""cat"":""1"",""src"":""5"",""x"":0,""y"":0},{""cat"":""33"",""src"":""18"",""x"":645,""y"":98},{""cat"":""33"",""src"":""18"",""x"":0,""y"":0},{""cat"":""19"",""src"":""3"",""x"":0,""y"":0},{""cat"":""33"",""src"":""7"",""x"":0,""y"":0},{""cat"":""19"",""src"":""5"",""x"":0,""y"":0},{""cat"":""33"",""src"":""10"",""x"":0,""y"":0},{""cat"":""1"",""src"":""18"",""x"":0,""y"":0}]","[{""cat"":1,""src"":15,""loc"":2},{""cat"":19,""src"":15,""loc"":0},{""cat"":1,""src"":5,""loc"":1},{""cat"":33,""src"":18,""loc"":5},{""cat"":19,""src"":3,""loc"":8},{""cat"":33,""src"":7,""loc"":6},{""cat"":19,""src"":5,""loc"":7},{""cat"":33,""src"":10,""loc"":3},{""cat"":1,""src"":18,""loc"":4}]","0","19,1,1,33,1,33,33,19,19,15,5,15,10,18,18,7,5,3,0,1,2,3,4,5,6,7,8,1,2,0,7,8,3,5,6,4",NA
"1572","sort_feedback","32","html-keyboard-response","253","3251829","0.0-6.0-44.0","1","2020-1-6 21:40:52","MONKEY",NA,NA,NA,NA,NA,NA,NA,NA,NA,NA,NA,NA,NA,NA
"19915","setup4",NA,"animation","254","3271745","0.0-6.0-45.0","1","2020-1-6 21:40:52","MONKEY",NA,NA,"[{""cat"":15,""src"":4,""loc"":3},{""cat"":15,""src"":10,""loc"":8},{""cat"":15,""src"":8,""loc"":2},{""cat"":20,""src"":15,""loc"":1},{""cat"":20,""src"":7,""loc"":6},{""cat"":20,""src"":9,""loc"":5},{""cat"":7,""src"":10,""loc"":4},{""cat"":7,""src"":4,""loc"":7},{""cat"":7,""src"":7,""loc"":0}]","4","1102,1101,1101,1102,1101,1101,1101,1103,1102,10001",NA,NA,NA,NA,NA,NA,NA,NA,NA
"1290","flanker_instructions","39","html-keyboard-response","255","3273035","0.0-6.0-46.0","1","2020-1-6 21:40:52","MONKEY",NA,NA,NA,NA,NA,NA,NA,NA,NA,NA,NA,NA,NA,NA
"869","flanker_test","37","image-keyboard-response","256","3274907","0.0-6.0-47.0-0.0","1","2020-1-6 21:40:52","MONKEY",NA,NA,NA,NA,NA,"congruent","left","TRUE",NA,NA,NA,NA,NA,NA
"607","flanker_test","39","image-keyboard-response","257","3276137","0.0-6.0-47.0-0.1","1","2020-1-6 21:40:52","MONKEY",NA,NA,NA,NA,NA,"incongruent","right","TRUE",NA,NA,NA,NA,NA,NA
"522","flanker_test","39","image-keyboard-response","258","3277090","0.0-6.0-47.0-0.2","1","2020-1-6 21:40:52","MONKEY",NA,NA,NA,NA,NA,"congruent","right","TRUE",NA,NA,NA,NA,NA,NA
"612","flanker_test","37","image-keyboard-response","259","3278901","0.0-6.0-47.0-0.3","1","2020-1-6 21:40:52","MONKEY",NA,NA,NA,NA,NA,"incongruent","left","TRUE",NA,NA,NA,NA,NA,NA
"23642","sort_trial",NA,"free-sort","260","3303071","0.0-6.0-48.0","1","2020-1-6 21:40:52","MONKEY",NA,NA,NA,NA,NA,NA,NA,NA,"[{""cat"":15,""src"":4,""x"":74,""y"":491},{""cat"":15,""src"":10,""x"":65,""y"":243},{""cat"":15,""src"":8,""x"":60,""y"":128},{""cat"":20,""src"":15,""x"":70,""y"":421},{""cat"":20,""src"":7,""x"":57,""y"":17},{""cat"":20,""src"":9,""x"":47,""y"":364},{""cat"":7,""src"":10,""x"":61,""y"":72},{""cat"":7,""src"":4,""x"":45,""y"":193},{""cat"":7,""src"":7,""x"":76,""y"":316}]","[{""cat"":""7"",""src"":""7"",""x"":0,""y"":0},{""cat"":""15"",""src"":""8"",""x"":0,""y"":0},{""cat"":""20"",""src"":""15"",""x"":0,""y"":0},{""cat"":""20"",""src"":""9"",""x"":0,""y"":0},{""cat"":""15"",""src"":""10"",""x"":0,""y"":0},{""cat"":""20"",""src"":""7"",""x"":0,""y"":0},{""cat"":""7"",""src"":""4"",""x"":0,""y"":0},{""cat"":""15"",""src"":""4"",""x"":0,""y"":0},{""cat"":""7"",""src"":""10"",""x"":0,""y"":0}]","[{""cat"":7,""src"":7,""loc"":0},{""cat"":15,""src"":8,""loc"":2},{""cat"":20,""src"":15,""loc"":1},{""cat"":20,""src"":9,""loc"":5},{""cat"":15,""src"":10,""loc"":6},{""cat"":20,""src"":7,""loc"":8},{""cat"":7,""src"":4,""loc"":7},{""cat"":15,""src"":4,""loc"":3},{""cat"":7,""src"":10,""loc"":4}]","7","7,20,15,15,7,20,15,7,20,7,15,8,4,10,9,10,4,7,0,1,2,3,4,5,6,7,8,0,2,1,7,8,3,4,6,5",NA
"1476","sort_feedback","32","html-keyboard-response","261","3304547","0.0-6.0-49.0","1","2020-1-6 21:40:52","MONKEY",NA,NA,NA,NA,NA,NA,NA,NA,NA,NA,NA,NA,NA,NA
"2594","demographics",NA,"html-button-response","262","3307141","0.0-7.0-0.0","1","2020-1-6 21:40:52","MONKEY","0",NA,NA,NA,NA,NA,NA,NA,NA,NA,NA,NA,NA,NA
"8706","workerID",NA,"survey-text","263","3315848","0.0-7.0-1.0","1","2020-1-6 21:40:52","MONKEY",NA,NA,NA,NA,NA,NA,NA,NA,NA,NA,NA,NA,NA,"{""Q0"":""A3EQR9C0L23O6E""}"
"11987","attn_check",NA,"survey-multi-choice","264","3327838","0.0-7.0-2.0","1","2020-1-6 21:40:52","MONKEY",NA,NA,NA,NA,NA,NA,NA,NA,NA,NA,NA,NA,NA,"{""Q0"":""ZEBRA""}"
"3456","age",NA,"survey-text","265","3331296","0.0-7.0-3.0","1","2020-1-6 21:40:52","MONKEY",NA,NA,NA,NA,NA,NA,NA,NA,NA,NA,NA,NA,NA,"{""Q0"":""40""}"
"2708","gender",NA,"survey-multi-choice","266","3334005","0.0-7.0-4.0","1","2020-1-6 21:40:52","MONKEY",NA,NA,NA,NA,NA,NA,NA,NA,NA,NA,NA,NA,NA,"{""Q0"":""Female""}"
"2150","ethnic",NA,"survey-multi-choice","267","3336157","0.0-7.0-5.0","1","2020-1-6 21:40:52","MONKEY",NA,NA,NA,NA,NA,NA,NA,NA,NA,NA,NA,NA,NA,"{""Q0"":""Not Hispanic or Latino""}"
"3935","race",NA,"survey-multi-select","268","3340095","0.0-7.0-6.0","1","2020-1-6 21:40:52","MONKEY",NA,NA,NA,NA,NA,NA,NA,NA,NA,NA,NA,NA,NA,"{""Q0"":[""Other""]}"
"2453","english",NA,"survey-multi-choice","269","3342550","0.0-7.0-7.0","1","2020-1-6 21:40:52","MONKEY",NA,NA,NA,NA,NA,NA,NA,NA,NA,NA,NA,NA,NA,"{""Q0"":""Yes""}"
"3434","understand",NA,"survey-multi-choice","270","3345987","0.0-7.0-8.0","1","2020-1-6 21:40:52","MONKEY",NA,NA,NA,NA,NA,NA,NA,NA,NA,NA,NA,NA,NA,"{""Q0"":""No""}"
"27174","strategies",NA,"survey-text","271","3373163","0.0-7.0-9.0","1","2020-1-6 21:40:52","MONKEY",NA,NA,NA,NA,NA,NA,NA,NA,NA,NA,NA,NA,NA,"{""Q0"":""I used a wide variety of methods""}"
"2277","comments",NA,"survey-text","272","3375442","0.0-7.0-10.0","1","2020-1-6 21:40:52","MONKEY",NA,NA,NA,NA,NA,NA,NA,NA,NA,NA,NA,NA,NA,"{""Q0"":""""}"
"1103","study_end",NA,"html-button-response","273","3376545","0.0-8.0","1","2020-1-6 21:40:52","MONKEY","0",NA,NA,NA,NA,NA,NA,NA,NA,NA,NA,NA,NA,NA
