"rt","stimulus","key_press","trial_type","trial_index","time_elapsed","internal_node_id","session","startTime","attn_word","button_pressed","view_history","animation_sequence","condition","time_sequence","stim_type","direction","correct","init_locations","moves","final_locations","sort_correct","finalLocations","responses"
"5558","welcome","32","html-keyboard-response","0","5561","0.0-0.0","1","2020-1-6 19:44:43","LION",NA,NA,NA,NA,NA,NA,NA,NA,NA,NA,NA,NA,NA,NA
"18929","consent",NA,"html-button-response","1","24493","0.0-1.0","1","2020-1-6 19:44:43","LION","0",NA,NA,NA,NA,NA,NA,NA,NA,NA,NA,NA,NA,NA
"178525","instructions",NA,"instructions","2","203020","0.0-2.0","1","2020-1-6 19:44:43","LION",NA,"[{""page_index"":0,""viewing_time"":8072},{""page_index"":1,""viewing_time"":3892},{""page_index"":2,""viewing_time"":6656},{""page_index"":3,""viewing_time"":139057},{""page_index"":4,""viewing_time"":3015},{""page_index"":5,""viewing_time"":13297},{""page_index"":6,""viewing_time"":4536}]",NA,NA,NA,NA,NA,NA,NA,NA,NA,NA,NA,NA
"19937","setup5",NA,"animation","3","222959","0.0-3.0-0.0","1","2020-1-6 19:44:43","LION",NA,NA,"[{""cat"":15,""src"":9,""loc"":0},{""cat"":17,""src"":2,""loc"":6},{""cat"":23,""src"":10,""loc"":4},{""cat"":23,""src"":2,""loc"":8},{""cat"":17,""src"":18,""loc"":1},{""cat"":15,""src"":13,""loc"":3},{""cat"":17,""src"":1,""loc"":5},{""cat"":23,""src"":18,""loc"":2},{""cat"":15,""src"":11,""loc"":7}]","5","1108,1106,1101,1105,1101,1105,1102,1102,1101,10005",NA,NA,NA,NA,NA,NA,NA,NA,NA
"13095","flanker_instructions","39","html-keyboard-response","4","236056","0.0-3.0-1.0","1","2020-1-6 19:44:43","LION",NA,NA,NA,NA,NA,NA,NA,NA,NA,NA,NA,NA,NA,NA
"678","flanker_test","37","image-keyboard-response","5","237742","0.0-3.0-2.0-0.0","1","2020-1-6 19:44:43","LION",NA,NA,NA,NA,NA,"congruent","left","TRUE",NA,NA,NA,NA,NA,NA
"565","flanker_test","37","image-keyboard-response","6","239264","0.0-3.0-2.0-0.1","1","2020-1-6 19:44:43","LION",NA,NA,NA,NA,NA,"incongruent","left","TRUE",NA,NA,NA,NA,NA,NA
"429","flanker_test","39","image-keyboard-response","7","240787","0.0-3.0-2.0-0.2","1","2020-1-6 19:44:43","LION",NA,NA,NA,NA,NA,"congruent","right","TRUE",NA,NA,NA,NA,NA,NA
"603","flanker_test","39","image-keyboard-response","8","241973","0.0-3.0-2.0-0.3","1","2020-1-6 19:44:43","LION",NA,NA,NA,NA,NA,"incongruent","right","TRUE",NA,NA,NA,NA,NA,NA
"22655","sort_trial",NA,"free-sort","9","265507","0.0-3.0-3.0","1","2020-1-6 19:44:43","LION",NA,NA,NA,NA,NA,NA,NA,NA,"[{""cat"":15,""src"":9,""x"":13,""y"":310},{""cat"":17,""src"":2,""x"":70,""y"":87},{""cat"":23,""src"":10,""x"":60,""y"":22},{""cat"":23,""src"":2,""x"":1,""y"":425},{""cat"":17,""src"":18,""x"":52,""y"":241},{""cat"":15,""src"":13,""x"":55,""y"":379},{""cat"":17,""src"":1,""x"":27,""y"":183},{""cat"":23,""src"":18,""x"":52,""y"":138},{""cat"":15,""src"":11,""x"":77,""y"":480}]","[{""cat"":""15"",""src"":""9"",""x"":0,""y"":0},{""cat"":""17"",""src"":""18"",""x"":0,""y"":0},{""cat"":""23"",""src"":""18"",""x"":0,""y"":0},{""cat"":""23"",""src"":""2"",""x"":0,""y"":0},{""cat"":""15"",""src"":""11"",""x"":0,""y"":0},{""cat"":""15"",""src"":""13"",""x"":0,""y"":0},{""cat"":""17"",""src"":""2"",""x"":0,""y"":0},{""cat"":""23"",""src"":""10"",""x"":0,""y"":0},{""cat"":""17"",""src"":""1"",""x"":0,""y"":0}]","[{""cat"":15,""src"":9,""loc"":0},{""cat"":17,""src"":18,""loc"":1},{""cat"":23,""src"":18,""loc"":2},{""cat"":23,""src"":2,""loc"":5},{""cat"":15,""src"":11,""loc"":4},{""cat"":15,""src"":13,""loc"":3},{""cat"":17,""src"":2,""loc"":6},{""cat"":23,""src"":10,""loc"":7},{""cat"":17,""src"":1,""loc"":8}]","5","15,17,23,15,15,23,17,23,17,9,18,18,13,11,2,2,10,1,0,1,2,3,4,5,6,7,8,0,1,2,5,4,3,6,7,8",NA
"6926","sort_feedback","32","html-keyboard-response","10","272436","0.0-3.0-4.0","1","2020-1-6 19:44:43","LION",NA,NA,NA,NA,NA,NA,NA,NA,NA,NA,NA,NA,NA,NA
"19932","setup5",NA,"animation","11","292370","0.0-3.0-5.0","1","2020-1-6 19:44:43","LION",NA,NA,"[{""cat"":10,""src"":1,""loc"":7},{""cat"":4,""src"":7,""loc"":2},{""cat"":15,""src"":6,""loc"":4},{""cat"":15,""src"":5,""loc"":8},{""cat"":4,""src"":3,""loc"":3},{""cat"":10,""src"":9,""loc"":1},{""cat"":15,""src"":7,""loc"":0},{""cat"":4,""src"":5,""loc"":6},{""cat"":10,""src"":0,""loc"":5}]","5","1108,1102,1104,1101,1105,1102,1103,1101,1105,10001",NA,NA,NA,NA,NA,NA,NA,NA,NA
"2134","flanker_instructions","39","html-keyboard-response","12","294505","0.0-3.0-6.0","1","2020-1-6 19:44:43","LION",NA,NA,NA,NA,NA,NA,NA,NA,NA,NA,NA,NA,NA,NA
"676","flanker_test","39","image-keyboard-response","13","296186","0.0-3.0-7.0-0.0","1","2020-1-6 19:44:43","LION",NA,NA,NA,NA,NA,"congruent","right","TRUE",NA,NA,NA,NA,NA,NA
"477","flanker_test","39","image-keyboard-response","14","297833","0.0-3.0-7.0-0.1","1","2020-1-6 19:44:43","LION",NA,NA,NA,NA,NA,"incongruent","right","TRUE",NA,NA,NA,NA,NA,NA
"404","flanker_test","37","image-keyboard-response","15","299071","0.0-3.0-7.0-0.2","1","2020-1-6 19:44:43","LION",NA,NA,NA,NA,NA,"congruent","left","TRUE",NA,NA,NA,NA,NA,NA
"332","flanker_test","39","image-keyboard-response","16","300422","0.0-3.0-7.0-0.3","1","2020-1-6 19:44:43","LION",NA,NA,NA,NA,NA,"incongruent","left","FALSE",NA,NA,NA,NA,NA,NA
"27754","sort_trial",NA,"free-sort","17","329177","0.0-3.0-8.0","1","2020-1-6 19:44:43","LION",NA,NA,NA,NA,NA,NA,NA,NA,"[{""cat"":10,""src"":1,""x"":49,""y"":245},{""cat"":4,""src"":7,""x"":80,""y"":303},{""cat"":15,""src"":6,""x"":42,""y"":83},{""cat"":15,""src"":5,""x"":59,""y"":23},{""cat"":4,""src"":3,""x"":82,""y"":498},{""cat"":10,""src"":9,""x"":69,""y"":443},{""cat"":15,""src"":7,""x"":21,""y"":360},{""cat"":4,""src"":5,""x"":12,""y"":183},{""cat"":10,""src"":0,""x"":29,""y"":123}]","[{""cat"":""4"",""src"":""7"",""x"":0,""y"":0},{""cat"":""15"",""src"":""7"",""x"":0,""y"":0},{""cat"":""10"",""src"":""9"",""x"":0,""y"":0},{""cat"":""10"",""src"":""1"",""x"":0,""y"":0},{""cat"":""4"",""src"":""3"",""x"":0,""y"":0},{""cat"":""15"",""src"":""5"",""x"":0,""y"":0},{""cat"":""4"",""src"":""5"",""x"":0,""y"":0},{""cat"":""10"",""src"":""0"",""x"":666,""y"":164},{""cat"":""10"",""src"":""0"",""x"":0,""y"":0},{""cat"":""15"",""src"":""6"",""x"":0,""y"":0}]","[{""cat"":4,""src"":7,""loc"":2},{""cat"":15,""src"":7,""loc"":0},{""cat"":10,""src"":9,""loc"":1},{""cat"":10,""src"":1,""loc"":7},{""cat"":4,""src"":3,""loc"":6},{""cat"":15,""src"":5,""loc"":8},{""cat"":4,""src"":5,""loc"":3},{""cat"":10,""src"":0,""loc"":5},{""cat"":15,""src"":6,""loc"":4}]","7","15,10,4,4,15,10,4,10,15,7,9,7,5,6,0,3,1,5,0,1,2,3,4,5,6,7,8,1,2,0,6,8,7,4,3,5",NA
"1773","sort_feedback","32","html-keyboard-response","18","330953","0.0-3.0-9.0","1","2020-1-6 19:44:43","LION",NA,NA,NA,NA,NA,NA,NA,NA,NA,NA,NA,NA,NA,NA
"5310","finalInstructions",NA,"html-button-response","19","336265","0.0-4.0-0.0","1","2020-1-6 19:44:43","LION","0",NA,NA,NA,NA,NA,NA,NA,NA,NA,NA,NA,NA,NA
"19927","setup2",NA,"animation","20","356194","0.0-4.0-1.0","1","2020-1-6 19:44:43","LION",NA,NA,"[{""cat"":24,""src"":1,""loc"":5},{""cat"":0,""src"":1,""loc"":4},{""cat"":2,""src"":11,""loc"":3},{""cat"":0,""src"":12,""loc"":0},{""cat"":2,""src"":4,""loc"":1},{""cat"":24,""src"":11,""loc"":2},{""cat"":2,""src"":6,""loc"":8},{""cat"":24,""src"":19,""loc"":6},{""cat"":0,""src"":9,""loc"":7}]","2","1108,1102,1104,1101,1101,1103,1102,1104,1102,10000",NA,NA,NA,NA,NA,NA,NA,NA,NA
"1959","flanker_instructions","39","html-keyboard-response","21","358155","0.0-4.0-2.0","1","2020-1-6 19:44:43","LION",NA,NA,NA,NA,NA,NA,NA,NA,NA,NA,NA,NA,NA,NA
"567","flanker_test","37","image-keyboard-response","22","359727","0.0-4.0-3.0-0.0","1","2020-1-6 19:44:43","LION",NA,NA,NA,NA,NA,"congruent","left","TRUE",NA,NA,NA,NA,NA,NA
"502","flanker_test","39","image-keyboard-response","23","361265","0.0-4.0-3.0-0.1","1","2020-1-6 19:44:43","LION",NA,NA,NA,NA,NA,"congruent","right","TRUE",NA,NA,NA,NA,NA,NA
"443","flanker_test","39","image-keyboard-response","24","362681","0.0-4.0-3.0-0.2","1","2020-1-6 19:44:43","LION",NA,NA,NA,NA,NA,"incongruent","right","TRUE",NA,NA,NA,NA,NA,NA
"650","flanker_test","37","image-keyboard-response","25","363912","0.0-4.0-3.0-0.3","1","2020-1-6 19:44:43","LION",NA,NA,NA,NA,NA,"incongruent","left","TRUE",NA,NA,NA,NA,NA,NA
"19980","sort_trial",NA,"free-sort","26","384470","0.0-4.0-4.0","1","2020-1-6 19:44:43","LION",NA,NA,NA,NA,NA,NA,NA,NA,"[{""cat"":24,""src"":1,""x"":71,""y"":248},{""cat"":0,""src"":1,""x"":83,""y"":73},{""cat"":2,""src"":11,""x"":38,""y"":301},{""cat"":0,""src"":12,""x"":65,""y"":0},{""cat"":2,""src"":4,""x"":14,""y"":444},{""cat"":24,""src"":11,""x"":42,""y"":506},{""cat"":2,""src"":6,""x"":25,""y"":197},{""cat"":24,""src"":19,""x"":23,""y"":133},{""cat"":0,""src"":9,""x"":74,""y"":371}]","[{""cat"":""24"",""src"":""11"",""x"":0,""y"":0},{""cat"":""0"",""src"":""12"",""x"":0,""y"":0},{""cat"":""2"",""src"":""4"",""x"":0,""y"":0},{""cat"":""2"",""src"":""11"",""x"":0,""y"":0},{""cat"":""24"",""src"":""1"",""x"":0,""y"":0},{""cat"":""0"",""src"":""1"",""x"":0,""y"":0},{""cat"":""0"",""src"":""9"",""x"":0,""y"":0},{""cat"":""24"",""src"":""19"",""x"":0,""y"":0},{""cat"":""2"",""src"":""6"",""x"":0,""y"":0}]","[{""cat"":24,""src"":11,""loc"":2},{""cat"":0,""src"":12,""loc"":0},{""cat"":2,""src"":4,""loc"":1},{""cat"":2,""src"":11,""loc"":3},{""cat"":24,""src"":1,""loc"":5},{""cat"":0,""src"":1,""loc"":4},{""cat"":0,""src"":9,""loc"":7},{""cat"":24,""src"":19,""loc"":6},{""cat"":2,""src"":6,""loc"":8}]","9","0,2,24,2,0,24,24,0,2,12,4,11,11,1,1,19,9,6,0,1,2,3,4,5,6,7,8,1,2,0,3,5,4,7,6,8",NA
"1572","sort_feedback","32","html-keyboard-response","27","386043","0.0-4.0-5.0","1","2020-1-6 19:44:43","LION",NA,NA,NA,NA,NA,NA,NA,NA,NA,NA,NA,NA,NA,NA
"19934","setup4",NA,"animation","28","405979","0.0-4.0-6.0","1","2020-1-6 19:44:43","LION",NA,NA,"[{""cat"":28,""src"":12,""loc"":3},{""cat"":28,""src"":0,""loc"":7},{""cat"":28,""src"":1,""loc"":1},{""cat"":30,""src"":6,""loc"":8},{""cat"":30,""src"":17,""loc"":5},{""cat"":30,""src"":2,""loc"":0},{""cat"":5,""src"":17,""loc"":2},{""cat"":5,""src"":10,""loc"":6},{""cat"":5,""src"":15,""loc"":4}]","4","1104,1104,1106,1102,1101,1103,1102,1105,1102,10005",NA,NA,NA,NA,NA,NA,NA,NA,NA
"2064","flanker_instructions","39","html-keyboard-response","29","408046","0.0-4.0-7.0","1","2020-1-6 19:44:43","LION",NA,NA,NA,NA,NA,NA,NA,NA,NA,NA,NA,NA,NA,NA
"639","flanker_test","39","image-keyboard-response","30","409691","0.0-4.0-8.0-0.0","1","2020-1-6 19:44:43","LION",NA,NA,NA,NA,NA,"incongruent","right","TRUE",NA,NA,NA,NA,NA,NA
"636","flanker_test","39","image-keyboard-response","31","410920","0.0-4.0-8.0-0.1","1","2020-1-6 19:44:43","LION",NA,NA,NA,NA,NA,"congruent","right","TRUE",NA,NA,NA,NA,NA,NA
"500","flanker_test","37","image-keyboard-response","32","412540","0.0-4.0-8.0-0.2","1","2020-1-6 19:44:43","LION",NA,NA,NA,NA,NA,"incongruent","left","TRUE",NA,NA,NA,NA,NA,NA
"411","flanker_test","37","image-keyboard-response","33","413348","0.0-4.0-8.0-0.3","1","2020-1-6 19:44:43","LION",NA,NA,NA,NA,NA,"congruent","left","TRUE",NA,NA,NA,NA,NA,NA
"26994","sort_trial",NA,"free-sort","34","440791","0.0-4.0-9.0","1","2020-1-6 19:44:43","LION",NA,NA,NA,NA,NA,NA,NA,NA,"[{""cat"":28,""src"":12,""x"":28,""y"":442},{""cat"":28,""src"":0,""x"":79,""y"":25},{""cat"":28,""src"":1,""x"":57,""y"":385},{""cat"":30,""src"":6,""x"":56,""y"":192},{""cat"":30,""src"":17,""x"":40,""y"":87},{""cat"":30,""src"":2,""x"":26,""y"":503},{""cat"":5,""src"":17,""x"":39,""y"":257},{""cat"":5,""src"":10,""x"":60,""y"":327},{""cat"":5,""src"":15,""x"":41,""y"":125}]","[{""cat"":""5"",""src"":""17"",""x"":0,""y"":0},{""cat"":""30"",""src"":""2"",""x"":0,""y"":0},{""cat"":""28"",""src"":""1"",""x"":0,""y"":0},{""cat"":""5"",""src"":""15"",""x"":0,""y"":0},{""cat"":""28"",""src"":""12"",""x"":0,""y"":0},{""cat"":""30"",""src"":""17"",""x"":0,""y"":0},{""cat"":""5"",""src"":""10"",""x"":0,""y"":0},{""cat"":""28"",""src"":""0"",""x"":0,""y"":0},{""cat"":""30"",""src"":""6"",""x"":0,""y"":0}]","[{""cat"":5,""src"":17,""loc"":2},{""cat"":30,""src"":2,""loc"":0},{""cat"":28,""src"":1,""loc"":1},{""cat"":5,""src"":15,""loc"":4},{""cat"":28,""src"":12,""loc"":3},{""cat"":30,""src"":17,""loc"":5},{""cat"":5,""src"":10,""loc"":8},{""cat"":28,""src"":0,""loc"":7},{""cat"":30,""src"":6,""loc"":6}]","7","30,28,5,28,5,30,30,28,5,2,1,17,12,15,17,6,0,10,0,1,2,3,4,5,6,7,8,1,2,0,4,3,5,8,7,6",NA
"1114","sort_feedback","32","html-keyboard-response","35","441907","0.0-4.0-10.0","1","2020-1-6 19:44:43","LION",NA,NA,NA,NA,NA,NA,NA,NA,NA,NA,NA,NA,NA,NA
"19936","setup3",NA,"animation","36","461843","0.0-4.0-11.0","1","2020-1-6 19:44:43","LION",NA,NA,"[{""cat"":5,""src"":12,""loc"":8},{""cat"":0,""src"":14,""loc"":1},{""cat"":27,""src"":2,""loc"":5},{""cat"":27,""src"":13,""loc"":4},{""cat"":5,""src"":15,""loc"":6},{""cat"":0,""src"":12,""loc"":0},{""cat"":0,""src"":18,""loc"":2},{""cat"":5,""src"":2,""loc"":7},{""cat"":27,""src"":12,""loc"":3}]","3","1105,1103,1103,1102,1103,1103,1106,1101,1105,10005",NA,NA,NA,NA,NA,NA,NA,NA,NA
"1669","flanker_instructions","39","html-keyboard-response","37","463514","0.0-4.0-12.0","1","2020-1-6 19:44:43","LION",NA,NA,NA,NA,NA,NA,NA,NA,NA,NA,NA,NA,NA,NA
"556","flanker_test","39","image-keyboard-response","38","465076","0.0-4.0-13.0-0.0","1","2020-1-6 19:44:43","LION",NA,NA,NA,NA,NA,"congruent","right","TRUE",NA,NA,NA,NA,NA,NA
"609","flanker_test","37","image-keyboard-response","39","466671","0.0-4.0-13.0-0.1","1","2020-1-6 19:44:43","LION",NA,NA,NA,NA,NA,"incongruent","left","TRUE",NA,NA,NA,NA,NA,NA
"428","flanker_test","39","image-keyboard-response","40","467669","0.0-4.0-13.0-0.2","1","2020-1-6 19:44:43","LION",NA,NA,NA,NA,NA,"incongruent","right","TRUE",NA,NA,NA,NA,NA,NA
"316","flanker_test","39","image-keyboard-response","41","468915","0.0-4.0-13.0-0.3","1","2020-1-6 19:44:43","LION",NA,NA,NA,NA,NA,"congruent","left","FALSE",NA,NA,NA,NA,NA,NA
"29766","sort_trial",NA,"free-sort","42","499285","0.0-4.0-14.0","1","2020-1-6 19:44:43","LION",NA,NA,NA,NA,NA,NA,NA,NA,"[{""cat"":5,""src"":12,""x"":58,""y"":14},{""cat"":0,""src"":14,""x"":33,""y"":425},{""cat"":27,""src"":2,""x"":33,""y"":250},{""cat"":27,""src"":13,""x"":23,""y"":181},{""cat"":5,""src"":15,""x"":43,""y"":369},{""cat"":0,""src"":12,""x"":11,""y"":60},{""cat"":0,""src"":18,""x"":19,""y"":143},{""cat"":5,""src"":2,""x"":57,""y"":306},{""cat"":27,""src"":12,""x"":76,""y"":508}]","[{""cat"":""0"",""src"":""18"",""x"":0,""y"":0},{""cat"":""0"",""src"":""12"",""x"":0,""y"":0},{""cat"":""5"",""src"":""12"",""x"":0,""y"":0},{""cat"":""27"",""src"":""12"",""x"":0,""y"":0},{""cat"":""5"",""src"":""15"",""x"":0,""y"":0},{""cat"":""27"",""src"":""2"",""x"":0,""y"":0},{""cat"":""27"",""src"":""13"",""x"":0,""y"":0},{""cat"":""5"",""src"":""2"",""x"":0,""y"":0},{""cat"":""0"",""src"":""14"",""x"":0,""y"":0}]","[{""cat"":0,""src"":18,""loc"":2},{""cat"":0,""src"":12,""loc"":0},{""cat"":5,""src"":12,""loc"":1},{""cat"":27,""src"":12,""loc"":3},{""cat"":5,""src"":15,""loc"":5},{""cat"":27,""src"":2,""loc"":4},{""cat"":27,""src"":13,""loc"":7},{""cat"":5,""src"":2,""loc"":6},{""cat"":0,""src"":14,""loc"":8}]","3","0,5,0,27,27,5,5,27,0,12,12,18,12,2,15,2,13,14,0,1,2,3,4,5,6,7,8,1,2,0,3,5,4,7,6,8",NA
"3194","sort_feedback","32","html-keyboard-response","43","502482","0.0-4.0-15.0","1","2020-1-6 19:44:43","LION",NA,NA,NA,NA,NA,NA,NA,NA,NA,NA,NA,NA,NA,NA
"19931","setup5",NA,"animation","44","522413","0.0-4.0-16.0","1","2020-1-6 19:44:43","LION",NA,NA,"[{""cat"":14,""src"":1,""loc"":6},{""cat"":33,""src"":8,""loc"":4},{""cat"":26,""src"":6,""loc"":1},{""cat"":33,""src"":11,""loc"":8},{""cat"":26,""src"":16,""loc"":3},{""cat"":14,""src"":11,""loc"":2},{""cat"":33,""src"":5,""loc"":0},{""cat"":14,""src"":16,""loc"":5},{""cat"":26,""src"":9,""loc"":7}]","5","1104,1105,1102,1102,1101,1103,1104,1103,1101,10006",NA,NA,NA,NA,NA,NA,NA,NA,NA
"1741","flanker_instructions","39","html-keyboard-response","45","524155","0.0-4.0-17.0","1","2020-1-6 19:44:43","LION",NA,NA,NA,NA,NA,NA,NA,NA,NA,NA,NA,NA,NA,NA
"420","flanker_test","39","image-keyboard-response","46","525580","0.0-4.0-18.0-0.0","1","2020-1-6 19:44:43","LION",NA,NA,NA,NA,NA,"congruent","right","TRUE",NA,NA,NA,NA,NA,NA
"448","flanker_test","39","image-keyboard-response","47","527177","0.0-4.0-18.0-0.1","1","2020-1-6 19:44:43","LION",NA,NA,NA,NA,NA,"incongruent","right","TRUE",NA,NA,NA,NA,NA,NA
"436","flanker_test","37","image-keyboard-response","48","528467","0.0-4.0-18.0-0.2","1","2020-1-6 19:44:43","LION",NA,NA,NA,NA,NA,"congruent","left","TRUE",NA,NA,NA,NA,NA,NA
"373","flanker_test","39","image-keyboard-response","49","529859","0.0-4.0-18.0-0.3","1","2020-1-6 19:44:43","LION",NA,NA,NA,NA,NA,"incongruent","left","FALSE",NA,NA,NA,NA,NA,NA
"17967","sort_trial",NA,"free-sort","50","548678","0.0-4.0-19.0","1","2020-1-6 19:44:43","LION",NA,NA,NA,NA,NA,NA,NA,NA,"[{""cat"":14,""src"":1,""x"":68,""y"":495},{""cat"":33,""src"":8,""x"":53,""y"":378},{""cat"":26,""src"":6,""x"":45,""y"":141},{""cat"":33,""src"":11,""x"":71,""y"":0},{""cat"":26,""src"":16,""x"":66,""y"":74},{""cat"":14,""src"":11,""x"":50,""y"":188},{""cat"":33,""src"":5,""x"":78,""y"":431},{""cat"":14,""src"":16,""x"":69,""y"":262},{""cat"":26,""src"":9,""x"":83,""y"":300}]","[{""cat"":""14"",""src"":""11"",""x"":0,""y"":0},{""cat"":""33"",""src"":""5"",""x"":0,""y"":0},{""cat"":""26"",""src"":""6"",""x"":0,""y"":0},{""cat"":""26"",""src"":""16"",""x"":0,""y"":0},{""cat"":""33"",""src"":""11"",""x"":0,""y"":0},{""cat"":""14"",""src"":""16"",""x"":0,""y"":0},{""cat"":""33"",""src"":""8"",""x"":0,""y"":0},{""cat"":""26"",""src"":""9"",""x"":0,""y"":0},{""cat"":""14"",""src"":""1"",""x"":0,""y"":0}]","[{""cat"":14,""src"":11,""loc"":2},{""cat"":33,""src"":5,""loc"":0},{""cat"":26,""src"":6,""loc"":1},{""cat"":26,""src"":16,""loc"":3},{""cat"":33,""src"":11,""loc"":5},{""cat"":14,""src"":16,""loc"":4},{""cat"":33,""src"":8,""loc"":6},{""cat"":26,""src"":9,""loc"":7},{""cat"":14,""src"":1,""loc"":8}]","5","33,26,14,26,14,33,33,26,14,5,6,11,16,16,11,8,9,1,0,1,2,3,4,5,6,7,8,1,2,0,3,5,4,6,7,8",NA
"3855734","sort_feedback","32","html-keyboard-response","51","4404413","0.0-4.0-20.0","1","2020-1-6 19:44:43","LION",NA,NA,NA,NA,NA,NA,NA,NA,NA,NA,NA,NA,NA,NA
"19933","setup1",NA,"animation","52","4424348","0.0-4.0-21.0","1","2020-1-6 19:44:43","LION",NA,NA,"[{""cat"":0,""src"":4,""loc"":4},{""cat"":0,""src"":16,""loc"":3},{""cat"":0,""src"":3,""loc"":5},{""cat"":32,""src"":12,""loc"":7},{""cat"":32,""src"":8,""loc"":6},{""cat"":32,""src"":10,""loc"":8},{""cat"":25,""src"":9,""loc"":1},{""cat"":25,""src"":15,""loc"":0},{""cat"":25,""src"":8,""loc"":2}]","1","1107,1101,1104,1103,1103,1102,1103,1102,1103,10005",NA,NA,NA,NA,NA,NA,NA,NA,NA
"2494","flanker_instructions","39","html-keyboard-response","53","4426844","0.0-4.0-22.0","1","2020-1-6 19:44:43","LION",NA,NA,NA,NA,NA,NA,NA,NA,NA,NA,NA,NA,NA,NA
NA,"flanker_test",NA,"image-keyboard-response","54","4428753","0.0-4.0-23.0-0.0","1","2020-1-6 19:44:43","LION",NA,NA,NA,NA,NA,"incongruent","right","FALSE",NA,NA,NA,NA,NA,NA
"567","flanker_test","37","image-keyboard-response","55","4429837","0.0-4.0-23.0-0.1","1","2020-1-6 19:44:43","LION",NA,NA,NA,NA,NA,"congruent","left","TRUE",NA,NA,NA,NA,NA,NA
"600","flanker_test","37","image-keyboard-response","56","4431578","0.0-4.0-23.0-0.2","1","2020-1-6 19:44:43","LION",NA,NA,NA,NA,NA,"incongruent","left","TRUE",NA,NA,NA,NA,NA,NA
"482","flanker_test","39","image-keyboard-response","57","4432411","0.0-4.0-23.0-0.3","1","2020-1-6 19:44:43","LION",NA,NA,NA,NA,NA,"congruent","right","TRUE",NA,NA,NA,NA,NA,NA
"39327","sort_trial",NA,"free-sort","58","4472834","0.0-4.0-24.0","1","2020-1-6 19:44:43","LION",NA,NA,NA,NA,NA,NA,NA,NA,"[{""cat"":0,""src"":4,""x"":41,""y"":493},{""cat"":0,""src"":16,""x"":20,""y"":15},{""cat"":0,""src"":3,""x"":54,""y"":365},{""cat"":32,""src"":12,""x"":66,""y"":269},{""cat"":32,""src"":8,""x"":45,""y"":130},{""cat"":32,""src"":10,""x"":65,""y"":193},{""cat"":25,""src"":9,""x"":56,""y"":65},{""cat"":25,""src"":15,""x"":82,""y"":447},{""cat"":25,""src"":8,""x"":46,""y"":302}]","[{""cat"":""0"",""src"":""4"",""x"":0,""y"":0},{""cat"":""0"",""src"":""3"",""x"":0,""y"":0},{""cat"":""0"",""src"":""16"",""x"":0,""y"":0},{""cat"":""25"",""src"":""9"",""x"":0,""y"":0},{""cat"":""25"",""src"":""15"",""x"":0,""y"":0},{""cat"":""25"",""src"":""8"",""x"":0,""y"":0},{""cat"":""32"",""src"":""12"",""x"":0,""y"":0},{""cat"":""32"",""src"":""8"",""x"":0,""y"":0},{""cat"":""32"",""src"":""10"",""x"":0,""y"":0}]","[{""cat"":0,""src"":4,""loc"":5},{""cat"":0,""src"":3,""loc"":3},{""cat"":0,""src"":16,""loc"":4},{""cat"":25,""src"":9,""loc"":1},{""cat"":25,""src"":15,""loc"":0},{""cat"":25,""src"":8,""loc"":2},{""cat"":32,""src"":12,""loc"":7},{""cat"":32,""src"":8,""loc"":6},{""cat"":32,""src"":10,""loc"":8}]","6","25,25,25,0,0,0,32,32,32,15,9,8,3,16,4,8,12,10,0,1,2,3,4,5,6,7,8,4,3,5,1,2,0,7,6,8",NA
"2642","sort_feedback","32","html-keyboard-response","59","4475478","0.0-4.0-25.0","1","2020-1-6 19:44:43","LION",NA,NA,NA,NA,NA,NA,NA,NA,NA,NA,NA,NA,NA,NA
"19929","setup3",NA,"animation","60","4495407","0.0-4.0-26.0","1","2020-1-6 19:44:43","LION",NA,NA,"[{""cat"":9,""src"":5,""loc"":6},{""cat"":31,""src"":17,""loc"":5},{""cat"":15,""src"":8,""loc"":2},{""cat"":15,""src"":9,""loc"":1},{""cat"":31,""src"":14,""loc"":4},{""cat"":9,""src"":18,""loc"":7},{""cat"":9,""src"":7,""loc"":8},{""cat"":31,""src"":2,""loc"":3},{""cat"":15,""src"":10,""loc"":0}]","3","1103,1105,1101,1105,1102,1101,1101,1105,1102,10004",NA,NA,NA,NA,NA,NA,NA,NA,NA
"1402","flanker_instructions","39","html-keyboard-response","61","4496811","0.0-4.0-27.0","1","2020-1-6 19:44:43","LION",NA,NA,NA,NA,NA,NA,NA,NA,NA,NA,NA,NA,NA,NA
"584","flanker_test","39","image-keyboard-response","62","4498398","0.0-4.0-28.0-0.0","1","2020-1-6 19:44:43","LION",NA,NA,NA,NA,NA,"congruent","right","TRUE",NA,NA,NA,NA,NA,NA
"540","flanker_test","37","image-keyboard-response","63","4499908","0.0-4.0-28.0-0.1","1","2020-1-6 19:44:43","LION",NA,NA,NA,NA,NA,"incongruent","left","TRUE",NA,NA,NA,NA,NA,NA
"528","flanker_test","39","image-keyboard-response","64","4501511","0.0-4.0-28.0-0.2","1","2020-1-6 19:44:43","LION",NA,NA,NA,NA,NA,"incongruent","right","TRUE",NA,NA,NA,NA,NA,NA
"432","flanker_test","37","image-keyboard-response","65","4502636","0.0-4.0-28.0-0.3","1","2020-1-6 19:44:43","LION",NA,NA,NA,NA,NA,"congruent","left","TRUE",NA,NA,NA,NA,NA,NA
"28784","sort_trial",NA,"free-sort","66","4531833","0.0-4.0-29.0","1","2020-1-6 19:44:43","LION",NA,NA,NA,NA,NA,NA,NA,NA,"[{""cat"":9,""src"":5,""x"":7,""y"":73},{""cat"":31,""src"":17,""x"":2,""y"":327},{""cat"":15,""src"":8,""x"":17,""y"":193},{""cat"":15,""src"":9,""x"":28,""y"":429},{""cat"":31,""src"":14,""x"":77,""y"":134},{""cat"":9,""src"":18,""x"":58,""y"":2},{""cat"":9,""src"":7,""x"":78,""y"":494},{""cat"":31,""src"":2,""x"":31,""y"":385},{""cat"":15,""src"":10,""x"":50,""y"":261}]","[{""cat"":""31"",""src"":""14"",""x"":0,""y"":0},{""cat"":""31"",""src"":""2"",""x"":0,""y"":0},{""cat"":""31"",""src"":""17"",""x"":0,""y"":0},{""cat"":""15"",""src"":""8"",""x"":0,""y"":0},{""cat"":""15"",""src"":""10"",""x"":0,""y"":0},{""cat"":""15"",""src"":""9"",""x"":0,""y"":0},{""cat"":""9"",""src"":""18"",""x"":0,""y"":0},{""cat"":""9"",""src"":""5"",""x"":0,""y"":0},{""cat"":""9"",""src"":""7"",""x"":0,""y"":0}]","[{""cat"":31,""src"":14,""loc"":4},{""cat"":31,""src"":2,""loc"":3},{""cat"":31,""src"":17,""loc"":5},{""cat"":15,""src"":8,""loc"":2},{""cat"":15,""src"":10,""loc"":0},{""cat"":15,""src"":9,""loc"":1},{""cat"":9,""src"":18,""loc"":7},{""cat"":9,""src"":5,""loc"":6},{""cat"":9,""src"":7,""loc"":8}]","9","15,15,15,31,31,31,9,9,9,10,9,8,2,14,17,5,18,7,0,1,2,3,4,5,6,7,8,4,5,3,1,0,2,7,6,8",NA
"2347","sort_feedback","32","html-keyboard-response","67","4534181","0.0-4.0-30.0","1","2020-1-6 19:44:43","LION",NA,NA,NA,NA,NA,NA,NA,NA,NA,NA,NA,NA,NA,NA
"19930","setup5",NA,"animation","68","4554112","0.0-4.0-31.0","1","2020-1-6 19:44:43","LION",NA,NA,"[{""cat"":31,""src"":8,""loc"":8},{""cat"":28,""src"":3,""loc"":4},{""cat"":7,""src"":18,""loc"":1},{""cat"":31,""src"":9,""loc"":2},{""cat"":28,""src"":2,""loc"":7},{""cat"":7,""src"":0,""loc"":3},{""cat"":28,""src"":18,""loc"":0},{""cat"":31,""src"":13,""loc"":5},{""cat"":7,""src"":16,""loc"":6}]","5","1107,1102,1101,1105,1102,1101,1104,1102,1104,10002",NA,NA,NA,NA,NA,NA,NA,NA,NA
"1766","flanker_instructions","39","html-keyboard-response","69","4555880","0.0-4.0-32.0","1","2020-1-6 19:44:43","LION",NA,NA,NA,NA,NA,NA,NA,NA,NA,NA,NA,NA,NA,NA
"642","flanker_test","37","image-keyboard-response","70","4557527","0.0-4.0-33.0-0.0","1","2020-1-6 19:44:43","LION",NA,NA,NA,NA,NA,"congruent","left","TRUE",NA,NA,NA,NA,NA,NA
"650","flanker_test","39","image-keyboard-response","71","4558928","0.0-4.0-33.0-0.1","1","2020-1-6 19:44:43","LION",NA,NA,NA,NA,NA,"congruent","right","TRUE",NA,NA,NA,NA,NA,NA
"452","flanker_test","37","image-keyboard-response","72","4559871","0.0-4.0-33.0-0.2","1","2020-1-6 19:44:43","LION",NA,NA,NA,NA,NA,"incongruent","left","TRUE",NA,NA,NA,NA,NA,NA
"459","flanker_test","39","image-keyboard-response","73","4560924","0.0-4.0-33.0-0.3","1","2020-1-6 19:44:43","LION",NA,NA,NA,NA,NA,"incongruent","right","TRUE",NA,NA,NA,NA,NA,NA
"40233","sort_trial",NA,"free-sort","74","4602186","0.0-4.0-34.0","1","2020-1-6 19:44:43","LION",NA,NA,NA,NA,NA,NA,NA,NA,"[{""cat"":31,""src"":8,""x"":69,""y"":203},{""cat"":28,""src"":3,""x"":77,""y"":256},{""cat"":7,""src"":18,""x"":47,""y"":496},{""cat"":31,""src"":9,""x"":47,""y"":138},{""cat"":28,""src"":2,""x"":35,""y"":60},{""cat"":7,""src"":0,""x"":57,""y"":363},{""cat"":28,""src"":18,""x"":77,""y"":25},{""cat"":31,""src"":13,""x"":37,""y"":327},{""cat"":7,""src"":16,""x"":37,""y"":428}]","[{""cat"":""31"",""src"":""8"",""x"":0,""y"":0},{""cat"":""31"",""src"":""13"",""x"":0,""y"":0},{""cat"":""31"",""src"":""9"",""x"":0,""y"":0},{""cat"":""7"",""src"":""18"",""x"":0,""y"":0},{""cat"":""7"",""src"":""16"",""x"":0,""y"":0},{""cat"":""7"",""src"":""0"",""x"":0,""y"":0},{""cat"":""28"",""src"":""3"",""x"":0,""y"":0},{""cat"":""28"",""src"":""18"",""x"":0,""y"":0},{""cat"":""28"",""src"":""2"",""x"":0,""y"":0}]","[{""cat"":31,""src"":8,""loc"":4},{""cat"":31,""src"":13,""loc"":5},{""cat"":31,""src"":9,""loc"":3},{""cat"":7,""src"":18,""loc"":7},{""cat"":7,""src"":16,""loc"":6},{""cat"":7,""src"":0,""loc"":8},{""cat"":28,""src"":3,""loc"":0},{""cat"":28,""src"":18,""loc"":1},{""cat"":28,""src"":2,""loc"":2}]","2","28,28,28,31,31,31,7,7,7,3,18,2,9,8,13,16,18,0,0,1,2,3,4,5,6,7,8,6,7,8,2,0,1,4,3,5",NA
"6054","sort_feedback","32","html-keyboard-response","75","4608242","0.0-4.0-35.0","1","2020-1-6 19:44:43","LION",NA,NA,NA,NA,NA,NA,NA,NA,NA,NA,NA,NA,NA,NA
"19930","setup1",NA,"animation","76","4628173","0.0-4.0-36.0","1","2020-1-6 19:44:43","LION",NA,NA,"[{""cat"":5,""src"":6,""loc"":5},{""cat"":5,""src"":16,""loc"":3},{""cat"":5,""src"":15,""loc"":4},{""cat"":15,""src"":18,""loc"":6},{""cat"":15,""src"":1,""loc"":8},{""cat"":15,""src"":15,""loc"":7},{""cat"":2,""src"":11,""loc"":1},{""cat"":2,""src"":14,""loc"":2},{""cat"":2,""src"":16,""loc"":0}]","1","1106,1101,1104,1101,1104,1102,1105,1102,1104,10001",NA,NA,NA,NA,NA,NA,NA,NA,NA
"900","flanker_instructions","39","html-keyboard-response","77","4629076","0.0-4.0-37.0","1","2020-1-6 19:44:43","LION",NA,NA,NA,NA,NA,NA,NA,NA,NA,NA,NA,NA,NA,NA
"604","flanker_test","37","image-keyboard-response","78","4630684","0.0-4.0-38.0-0.0","1","2020-1-6 19:44:43","LION",NA,NA,NA,NA,NA,"congruent","left","TRUE",NA,NA,NA,NA,NA,NA
"643","flanker_test","37","image-keyboard-response","79","4631661","0.0-4.0-38.0-0.1","1","2020-1-6 19:44:43","LION",NA,NA,NA,NA,NA,"incongruent","left","TRUE",NA,NA,NA,NA,NA,NA
"478","flanker_test","39","image-keyboard-response","80","4632662","0.0-4.0-38.0-0.2","1","2020-1-6 19:44:43","LION",NA,NA,NA,NA,NA,"congruent","right","TRUE",NA,NA,NA,NA,NA,NA
"432","flanker_test","37","image-keyboard-response","81","4633787","0.0-4.0-38.0-0.3","1","2020-1-6 19:44:43","LION",NA,NA,NA,NA,NA,"incongruent","right","FALSE",NA,NA,NA,NA,NA,NA
"25304","sort_trial",NA,"free-sort","82","4659547","0.0-4.0-39.0","1","2020-1-6 19:44:43","LION",NA,NA,NA,NA,NA,NA,NA,NA,"[{""cat"":5,""src"":6,""x"":77,""y"":191},{""cat"":5,""src"":16,""x"":83,""y"":429},{""cat"":5,""src"":15,""x"":29,""y"":388},{""cat"":15,""src"":18,""x"":47,""y"":248},{""cat"":15,""src"":1,""x"":17,""y"":28},{""cat"":15,""src"":15,""x"":30,""y"":146},{""cat"":2,""src"":11,""x"":77,""y"":82},{""cat"":2,""src"":14,""x"":34,""y"":300},{""cat"":2,""src"":16,""x"":64,""y"":507}]","[{""cat"":""15"",""src"":""1"",""x"":0,""y"":0},{""cat"":""15"",""src"":""18"",""x"":0,""y"":0},{""cat"":""15"",""src"":""15"",""x"":0,""y"":0},{""cat"":""5"",""src"":""16"",""x"":0,""y"":0},{""cat"":""5"",""src"":""15"",""x"":0,""y"":0},{""cat"":""5"",""src"":""6"",""x"":0,""y"":0},{""cat"":""2"",""src"":""11"",""x"":0,""y"":0},{""cat"":""2"",""src"":""14"",""x"":0,""y"":0},{""cat"":""2"",""src"":""16"",""x"":0,""y"":0}]","[{""cat"":15,""src"":1,""loc"":8},{""cat"":15,""src"":18,""loc"":6},{""cat"":15,""src"":15,""loc"":7},{""cat"":5,""src"":16,""loc"":3},{""cat"":5,""src"":15,""loc"":4},{""cat"":5,""src"":6,""loc"":5},{""cat"":2,""src"":11,""loc"":2},{""cat"":2,""src"":14,""loc"":1},{""cat"":2,""src"":16,""loc"":0}]","7","2,2,2,5,5,5,15,15,15,16,14,11,16,15,6,18,15,1,0,1,2,3,4,5,6,7,8,8,7,6,3,4,5,1,2,0",NA
"958","sort_feedback","32","html-keyboard-response","83","4660507","0.0-4.0-40.0","1","2020-1-6 19:44:43","LION",NA,NA,NA,NA,NA,NA,NA,NA,NA,NA,NA,NA,NA,NA
"19930","setup4",NA,"animation","84","4680438","0.0-4.0-41.0","1","2020-1-6 19:44:43","LION",NA,NA,"[{""cat"":14,""src"":4,""loc"":6},{""cat"":14,""src"":9,""loc"":4},{""cat"":14,""src"":14,""loc"":2},{""cat"":23,""src"":10,""loc"":3},{""cat"":23,""src"":12,""loc"":1},{""cat"":23,""src"":5,""loc"":8},{""cat"":10,""src"":6,""loc"":0},{""cat"":10,""src"":7,""loc"":7},{""cat"":10,""src"":2,""loc"":5}]","4","1105,1102,1104,1102,1103,1101,1102,1103,1103,10005",NA,NA,NA,NA,NA,NA,NA,NA,NA
"8198","flanker_instructions","39","html-keyboard-response","85","4688638","0.0-4.0-42.0","1","2020-1-6 19:44:43","LION",NA,NA,NA,NA,NA,NA,NA,NA,NA,NA,NA,NA,NA,NA
"618","flanker_test","39","image-keyboard-response","86","4690259","0.0-4.0-43.0-0.0","1","2020-1-6 19:44:43","LION",NA,NA,NA,NA,NA,"incongruent","right","TRUE",NA,NA,NA,NA,NA,NA
"465","flanker_test","39","image-keyboard-response","87","4691152","0.0-4.0-43.0-0.1","1","2020-1-6 19:44:43","LION",NA,NA,NA,NA,NA,"congruent","right","TRUE",NA,NA,NA,NA,NA,NA
"508","flanker_test","37","image-keyboard-response","88","4692037","0.0-4.0-43.0-0.2","1","2020-1-6 19:44:43","LION",NA,NA,NA,NA,NA,"incongruent","left","TRUE",NA,NA,NA,NA,NA,NA
"464","flanker_test","37","image-keyboard-response","89","4693107","0.0-4.0-43.0-0.3","1","2020-1-6 19:44:43","LION",NA,NA,NA,NA,NA,"congruent","left","TRUE",NA,NA,NA,NA,NA,NA
"35239","sort_trial",NA,"free-sort","90","4728663","0.0-4.0-44.0","1","2020-1-6 19:44:43","LION",NA,NA,NA,NA,NA,NA,NA,NA,"[{""cat"":14,""src"":4,""x"":31,""y"":498},{""cat"":14,""src"":9,""x"":35,""y"":436},{""cat"":14,""src"":14,""x"":68,""y"":128},{""cat"":23,""src"":10,""x"":77,""y"":383},{""cat"":23,""src"":12,""x"":54,""y"":67},{""cat"":23,""src"":5,""x"":44,""y"":9},{""cat"":10,""src"":6,""x"":12,""y"":268},{""cat"":10,""src"":7,""x"":7,""y"":323},{""cat"":10,""src"":2,""x"":74,""y"":199}]","[{""cat"":""10"",""src"":""2"",""x"":0,""y"":0},{""cat"":""14"",""src"":""9"",""x"":0,""y"":0},{""cat"":""23"",""src"":""10"",""x"":0,""y"":0},{""cat"":""23"",""src"":""5"",""x"":0,""y"":0},{""cat"":""14"",""src"":""4"",""x"":0,""y"":0},{""cat"":""10"",""src"":""7"",""x"":7,""y"":323},{""cat"":""10"",""src"":""7"",""x"":0,""y"":0},{""cat"":""10"",""src"":""6"",""x"":0,""y"":0},{""cat"":""14"",""src"":""14"",""x"":0,""y"":0},{""cat"":""23"",""src"":""12"",""x"":0,""y"":0}]","[{""cat"":10,""src"":2,""loc"":5},{""cat"":14,""src"":9,""loc"":4},{""cat"":23,""src"":10,""loc"":3},{""cat"":23,""src"":5,""loc"":8},{""cat"":14,""src"":4,""loc"":6},{""cat"":10,""src"":7,""loc"":7},{""cat"":10,""src"":6,""loc"":2},{""cat"":14,""src"":14,""loc"":0},{""cat"":23,""src"":12,""loc"":1}]","7","14,23,10,23,14,10,14,10,23,14,12,6,10,9,2,4,7,5,0,1,2,3,4,5,6,7,8,7,8,6,2,1,0,4,5,3",NA
"1020","sort_feedback","32","html-keyboard-response","91","4729685","0.0-4.0-45.0","1","2020-1-6 19:44:43","LION",NA,NA,NA,NA,NA,NA,NA,NA,NA,NA,NA,NA,NA,NA
"19932","setup2",NA,"animation","92","4749618","0.0-4.0-46.0","1","2020-1-6 19:44:43","LION",NA,NA,"[{""cat"":10,""src"":10,""loc"":6},{""cat"":26,""src"":8,""loc"":7},{""cat"":32,""src"":9,""loc"":8},{""cat"":26,""src"":16,""loc"":0},{""cat"":10,""src"":0,""loc"":1},{""cat"":32,""src"":11,""loc"":2},{""cat"":26,""src"":5,""loc"":3},{""cat"":10,""src"":8,""loc"":4},{""cat"":32,""src"":12,""loc"":5}]","2","1104,1103,1101,1104,1103,1101,1105,1101,1105,10005",NA,NA,NA,NA,NA,NA,NA,NA,NA
"1798","flanker_instructions","39","html-keyboard-response","93","4751417","0.0-4.0-47.0","1","2020-1-6 19:44:43","LION",NA,NA,NA,NA,NA,NA,NA,NA,NA,NA,NA,NA,NA,NA
"715","flanker_test","37","image-keyboard-response","94","4753138","0.0-4.0-48.0-0.0","1","2020-1-6 19:44:43","LION",NA,NA,NA,NA,NA,"congruent","left","TRUE",NA,NA,NA,NA,NA,NA
"490","flanker_test","39","image-keyboard-response","95","4754132","0.0-4.0-48.0-0.1","1","2020-1-6 19:44:43","LION",NA,NA,NA,NA,NA,"incongruent","left","FALSE",NA,NA,NA,NA,NA,NA
"476","flanker_test","39","image-keyboard-response","96","4755511","0.0-4.0-48.0-0.2","1","2020-1-6 19:44:43","LION",NA,NA,NA,NA,NA,"congruent","right","TRUE",NA,NA,NA,NA,NA,NA
"539","flanker_test","39","image-keyboard-response","97","4757196","0.0-4.0-48.0-0.3","1","2020-1-6 19:44:43","LION",NA,NA,NA,NA,NA,"incongruent","right","TRUE",NA,NA,NA,NA,NA,NA
"30514","sort_trial",NA,"free-sort","98","4788692","0.0-4.0-49.0","1","2020-1-6 19:44:43","LION",NA,NA,NA,NA,NA,NA,NA,NA,"[{""cat"":10,""src"":10,""x"":20,""y"":180},{""cat"":26,""src"":8,""x"":58,""y"":140},{""cat"":32,""src"":9,""x"":74,""y"":507},{""cat"":26,""src"":16,""x"":65,""y"":15},{""cat"":10,""src"":0,""x"":59,""y"":245},{""cat"":32,""src"":11,""x"":41,""y"":443},{""cat"":26,""src"":5,""x"":21,""y"":326},{""cat"":10,""src"":8,""x"":27,""y"":69},{""cat"":32,""src"":12,""x"":6,""y"":384}]","[{""cat"":""26"",""src"":""5"",""x"":0,""y"":0},{""cat"":""32"",""src"":""12"",""x"":0,""y"":0},{""cat"":""10"",""src"":""8"",""x"":0,""y"":0},{""cat"":""10"",""src"":""0"",""x"":0,""y"":0},{""cat"":""32"",""src"":""11"",""x"":0,""y"":0},{""cat"":""26"",""src"":""16"",""x"":0,""y"":0},{""cat"":""10"",""src"":""10"",""x"":0,""y"":0},{""cat"":""32"",""src"":""9"",""x"":0,""y"":0},{""cat"":""26"",""src"":""8"",""x"":0,""y"":0}]","[{""cat"":26,""src"":5,""loc"":3},{""cat"":32,""src"":12,""loc"":5},{""cat"":10,""src"":8,""loc"":4},{""cat"":10,""src"":0,""loc"":1},{""cat"":32,""src"":11,""loc"":2},{""cat"":26,""src"":16,""loc"":0},{""cat"":10,""src"":10,""loc"":6},{""cat"":32,""src"":9,""loc"":8},{""cat"":26,""src"":8,""loc"":7}]","9","26,10,32,26,10,32,10,26,32,16,0,11,5,8,12,10,8,9,0,1,2,3,4,5,6,7,8,5,3,4,0,2,1,6,8,7",NA
"886","sort_feedback","32","html-keyboard-response","99","4789579","0.0-4.0-50.0","1","2020-1-6 19:44:43","LION",NA,NA,NA,NA,NA,NA,NA,NA,NA,NA,NA,NA,NA,NA
"19932","setup4",NA,"animation","100","4809512","0.0-4.0-51.0","1","2020-1-6 19:44:43","LION",NA,NA,"[{""cat"":21,""src"":1,""loc"":7},{""cat"":21,""src"":10,""loc"":0},{""cat"":21,""src"":6,""loc"":3},{""cat"":3,""src"":4,""loc"":4},{""cat"":3,""src"":6,""loc"":2},{""cat"":3,""src"":3,""loc"":6},{""cat"":18,""src"":16,""loc"":8},{""cat"":18,""src"":2,""loc"":1},{""cat"":18,""src"":19,""loc"":5}]","4","1104,1102,1105,1102,1101,1102,1105,1101,1105,10005",NA,NA,NA,NA,NA,NA,NA,NA,NA
"649228","flanker_instructions","39","html-keyboard-response","101","5458742","0.0-4.0-52.0","1","2020-1-6 19:44:43","LION",NA,NA,NA,NA,NA,NA,NA,NA,NA,NA,NA,NA,NA,NA
"601","flanker_test","37","image-keyboard-response","102","5460350","0.0-4.0-53.0-0.0","1","2020-1-6 19:44:43","LION",NA,NA,NA,NA,NA,"incongruent","left","TRUE",NA,NA,NA,NA,NA,NA
"422","flanker_test","39","image-keyboard-response","103","5461204","0.0-4.0-53.0-0.1","1","2020-1-6 19:44:43","LION",NA,NA,NA,NA,NA,"congruent","right","TRUE",NA,NA,NA,NA,NA,NA
"658","flanker_test","39","image-keyboard-response","104","5463024","0.0-4.0-53.0-0.2","1","2020-1-6 19:44:43","LION",NA,NA,NA,NA,NA,"incongruent","right","TRUE",NA,NA,NA,NA,NA,NA
"730","flanker_test","37","image-keyboard-response","105","5464137","0.0-4.0-53.0-0.3","1","2020-1-6 19:44:43","LION",NA,NA,NA,NA,NA,"congruent","left","TRUE",NA,NA,NA,NA,NA,NA
"44960","sort_trial",NA,"free-sort","106","5509467","0.0-4.0-54.0","1","2020-1-6 19:44:43","LION",NA,NA,NA,NA,NA,NA,NA,NA,"[{""cat"":21,""src"":1,""x"":47,""y"":427},{""cat"":21,""src"":10,""x"":46,""y"":64},{""cat"":21,""src"":6,""x"":31,""y"":265},{""cat"":3,""src"":4,""x"":5,""y"":124},{""cat"":3,""src"":6,""x"":52,""y"":190},{""cat"":3,""src"":3,""x"":21,""y"":1},{""cat"":18,""src"":16,""x"":7,""y"":371},{""cat"":18,""src"":2,""x"":3,""y"":301},{""cat"":18,""src"":19,""x"":13,""y"":497}]","[{""cat"":""21"",""src"":""6"",""x"":0,""y"":0},{""cat"":""3"",""src"":""4"",""x"":0,""y"":0},{""cat"":""21"",""src"":""10"",""x"":0,""y"":0},{""cat"":""18"",""src"":""2"",""x"":0,""y"":0},{""cat"":""3"",""src"":""6"",""x"":0,""y"":0},{""cat"":""21"",""src"":""1"",""x"":0,""y"":0},{""cat"":""18"",""src"":""16"",""x"":0,""y"":0},{""cat"":""18"",""src"":""19"",""x"":0,""y"":0},{""cat"":""3"",""src"":""3"",""x"":626,""y"":167},{""cat"":""3"",""src"":""3"",""x"":0,""y"":0}]","[{""cat"":21,""src"":6,""loc"":3},{""cat"":3,""src"":4,""loc"":4},{""cat"":21,""src"":10,""loc"":0},{""cat"":18,""src"":2,""loc"":1},{""cat"":3,""src"":6,""loc"":2},{""cat"":21,""src"":1,""loc"":8},{""cat"":18,""src"":16,""loc"":7},{""cat"":18,""src"":19,""loc"":6},{""cat"":3,""src"":3,""loc"":5}]","5","21,18,3,21,3,3,18,18,21,10,2,6,6,4,3,19,16,1,0,1,2,3,4,5,6,7,8,2,3,4,0,1,8,7,6,5",NA
"3686","sort_feedback","32","html-keyboard-response","107","5513155","0.0-4.0-55.0","1","2020-1-6 19:44:43","LION",NA,NA,NA,NA,NA,NA,NA,NA,NA,NA,NA,NA,NA,NA
"20925","setup5",NA,"animation","108","5534081","0.0-4.0-56.0","1","2020-1-6 19:44:43","LION",NA,NA,"[{""cat"":18,""src"":2,""loc"":0},{""cat"":16,""src"":16,""loc"":3},{""cat"":25,""src"":8,""loc"":7},{""cat"":18,""src"":10,""loc"":4},{""cat"":25,""src"":0,""loc"":2},{""cat"":16,""src"":17,""loc"":6},{""cat"":18,""src"":15,""loc"":8},{""cat"":25,""src"":1,""loc"":5},{""cat"":16,""src"":19,""loc"":1}]","5","1106,1102,1106,1101,1101,1105,1101,1105,1102,10996",NA,NA,NA,NA,NA,NA,NA,NA,NA
"9030","flanker_instructions","39","html-keyboard-response","109","5543113","0.0-4.0-57.0","1","2020-1-6 19:44:43","LION",NA,NA,NA,NA,NA,NA,NA,NA,NA,NA,NA,NA,NA,NA
"498","flanker_test","37","image-keyboard-response","110","5544616","0.0-4.0-58.0-0.0","1","2020-1-6 19:44:43","LION",NA,NA,NA,NA,NA,"incongruent","left","TRUE",NA,NA,NA,NA,NA,NA
"423","flanker_test","37","image-keyboard-response","111","5545862","0.0-4.0-58.0-0.1","1","2020-1-6 19:44:43","LION",NA,NA,NA,NA,NA,"congruent","left","TRUE",NA,NA,NA,NA,NA,NA
"644","flanker_test","39","image-keyboard-response","112","5546861","0.0-4.0-58.0-0.2","1","2020-1-6 19:44:43","LION",NA,NA,NA,NA,NA,"congruent","right","TRUE",NA,NA,NA,NA,NA,NA
"522","flanker_test","39","image-keyboard-response","113","5548078","0.0-4.0-58.0-0.3","1","2020-1-6 19:44:43","LION",NA,NA,NA,NA,NA,"incongruent","right","TRUE",NA,NA,NA,NA,NA,NA
"35153","sort_trial",NA,"free-sort","114","5583853","0.0-4.0-59.0","1","2020-1-6 19:44:43","LION",NA,NA,NA,NA,NA,NA,NA,NA,"[{""cat"":18,""src"":2,""x"":52,""y"":127},{""cat"":16,""src"":16,""x"":24,""y"":0},{""cat"":25,""src"":8,""x"":20,""y"":305},{""cat"":18,""src"":10,""x"":12,""y"":63},{""cat"":25,""src"":0,""x"":38,""y"":380},{""cat"":16,""src"":17,""x"":79,""y"":441},{""cat"":18,""src"":15,""x"":52,""y"":188},{""cat"":25,""src"":1,""x"":3,""y"":482},{""cat"":16,""src"":19,""x"":44,""y"":266}]","[{""cat"":""16"",""src"":""19"",""x"":0,""y"":0},{""cat"":""25"",""src"":""0"",""x"":0,""y"":0},{""cat"":""18"",""src"":""2"",""x"":0,""y"":0},{""cat"":""16"",""src"":""16"",""x"":0,""y"":0},{""cat"":""25"",""src"":""1"",""x"":0,""y"":0},{""cat"":""18"",""src"":""10"",""x"":0,""y"":0},{""cat"":""25"",""src"":""8"",""x"":0,""y"":0},{""cat"":""18"",""src"":""15"",""x"":0,""y"":0},{""cat"":""16"",""src"":""17"",""x"":0,""y"":0}]","[{""cat"":16,""src"":19,""loc"":1},{""cat"":25,""src"":0,""loc"":2},{""cat"":18,""src"":2,""loc"":0},{""cat"":16,""src"":16,""loc"":3},{""cat"":25,""src"":1,""loc"":5},{""cat"":18,""src"":10,""loc"":4},{""cat"":25,""src"":8,""loc"":7},{""cat"":18,""src"":15,""loc"":6},{""cat"":16,""src"":17,""loc"":8}]","7","18,16,25,16,18,25,18,25,16,2,19,0,16,10,1,15,8,17,0,1,2,3,4,5,6,7,8,2,0,1,3,5,4,7,6,8",NA
"1912","sort_feedback","32","html-keyboard-response","115","5585767","0.0-4.0-60.0","1","2020-1-6 19:44:43","LION",NA,NA,NA,NA,NA,NA,NA,NA,NA,NA,NA,NA,NA,NA
"19930","setup2",NA,"animation","116","5605698","0.0-4.0-61.0","1","2020-1-6 19:44:43","LION",NA,NA,"[{""cat"":9,""src"":15,""loc"":8},{""cat"":0,""src"":3,""loc"":7},{""cat"":3,""src"":9,""loc"":6},{""cat"":9,""src"":16,""loc"":0},{""cat"":0,""src"":6,""loc"":2},{""cat"":3,""src"":2,""loc"":1},{""cat"":3,""src"":1,""loc"":3},{""cat"":0,""src"":8,""loc"":4},{""cat"":9,""src"":19,""loc"":5}]","2","1107,1102,1104,1102,1101,1105,1101,1102,1105,10001",NA,NA,NA,NA,NA,NA,NA,NA,NA
"4851","flanker_instructions","39","html-keyboard-response","117","5610550","0.0-4.0-62.0","1","2020-1-6 19:44:43","LION",NA,NA,NA,NA,NA,NA,NA,NA,NA,NA,NA,NA,NA,NA
"823","flanker_test","39","image-keyboard-response","118","5612378","0.0-4.0-63.0-0.0","1","2020-1-6 19:44:43","LION",NA,NA,NA,NA,NA,"incongruent","right","TRUE",NA,NA,NA,NA,NA,NA
"409","flanker_test","39","image-keyboard-response","119","5613130","0.0-4.0-63.0-0.1","1","2020-1-6 19:44:43","LION",NA,NA,NA,NA,NA,"congruent","right","TRUE",NA,NA,NA,NA,NA,NA
"421","flanker_test","37","image-keyboard-response","120","5614175","0.0-4.0-63.0-0.2","1","2020-1-6 19:44:43","LION",NA,NA,NA,NA,NA,"incongruent","left","TRUE",NA,NA,NA,NA,NA,NA
"380","flanker_test","37","image-keyboard-response","121","5615303","0.0-4.0-63.0-0.3","1","2020-1-6 19:44:43","LION",NA,NA,NA,NA,NA,"congruent","left","TRUE",NA,NA,NA,NA,NA,NA
"27381","sort_trial",NA,"free-sort","122","5643466","0.0-4.0-64.0","1","2020-1-6 19:44:43","LION",NA,NA,NA,NA,NA,NA,NA,NA,"[{""cat"":9,""src"":15,""x"":53,""y"":1},{""cat"":0,""src"":3,""x"":58,""y"":127},{""cat"":3,""src"":9,""x"":50,""y"":370},{""cat"":9,""src"":16,""x"":13,""y"":308},{""cat"":0,""src"":6,""x"":74,""y"":443},{""cat"":3,""src"":2,""x"":28,""y"":506},{""cat"":3,""src"":1,""x"":36,""y"":62},{""cat"":0,""src"":8,""x"":62,""y"":247},{""cat"":9,""src"":19,""x"":7,""y"":198}]","[{""cat"":""0"",""src"":""3"",""x"":0,""y"":0},{""cat"":""9"",""src"":""15"",""x"":0,""y"":0},{""cat"":""3"",""src"":""9"",""x"":0,""y"":0},{""cat"":""0"",""src"":""6"",""x"":0,""y"":0},{""cat"":""3"",""src"":""2"",""x"":0,""y"":0},{""cat"":""9"",""src"":""16"",""x"":0,""y"":0},{""cat"":""3"",""src"":""1"",""x"":0,""y"":0},{""cat"":""0"",""src"":""8"",""x"":0,""y"":0},{""cat"":""9"",""src"":""19"",""x"":0,""y"":0}]","[{""cat"":0,""src"":3,""loc"":7},{""cat"":9,""src"":15,""loc"":8},{""cat"":3,""src"":9,""loc"":6},{""cat"":0,""src"":6,""loc"":2},{""cat"":3,""src"":2,""loc"":1},{""cat"":9,""src"":16,""loc"":0},{""cat"":3,""src"":1,""loc"":3},{""cat"":0,""src"":8,""loc"":4},{""cat"":9,""src"":19,""loc"":5}]","9","9,3,0,3,0,9,3,0,9,16,2,6,1,8,19,9,3,15,0,1,2,3,4,5,6,7,8,5,4,3,6,7,8,2,0,1",NA
"2137","sort_feedback","32","html-keyboard-response","123","5645606","0.0-4.0-65.0","1","2020-1-6 19:44:43","LION",NA,NA,NA,NA,NA,NA,NA,NA,NA,NA,NA,NA,NA,NA
"19928","setup1",NA,"animation","124","5665536","0.0-4.0-66.0","1","2020-1-6 19:44:43","LION",NA,NA,"[{""cat"":28,""src"":19,""loc"":5},{""cat"":28,""src"":1,""loc"":4},{""cat"":28,""src"":9,""loc"":3},{""cat"":23,""src"":9,""loc"":0},{""cat"":23,""src"":3,""loc"":2},{""cat"":23,""src"":1,""loc"":1},{""cat"":7,""src"":12,""loc"":6},{""cat"":7,""src"":13,""loc"":7},{""cat"":7,""src"":3,""loc"":8}]","1","1106,1101,1102,1104,1101,1105,1102,1102,1101,10004",NA,NA,NA,NA,NA,NA,NA,NA,NA
"1521","flanker_instructions","39","html-keyboard-response","125","5667059","0.0-4.0-67.0","1","2020-1-6 19:44:43","LION",NA,NA,NA,NA,NA,NA,NA,NA,NA,NA,NA,NA,NA,NA
"471","flanker_test","37","image-keyboard-response","126","5668535","0.0-4.0-68.0-0.0","1","2020-1-6 19:44:43","LION",NA,NA,NA,NA,NA,"congruent","left","TRUE",NA,NA,NA,NA,NA,NA
"428","flanker_test","39","image-keyboard-response","127","5669270","0.0-4.0-68.0-0.1","1","2020-1-6 19:44:43","LION",NA,NA,NA,NA,NA,"incongruent","right","TRUE",NA,NA,NA,NA,NA,NA
"396","flanker_test","39","image-keyboard-response","128","5670094","0.0-4.0-68.0-0.2","1","2020-1-6 19:44:43","LION",NA,NA,NA,NA,NA,"congruent","right","TRUE",NA,NA,NA,NA,NA,NA
"428","flanker_test","37","image-keyboard-response","129","5670877","0.0-4.0-68.0-0.3","1","2020-1-6 19:44:43","LION",NA,NA,NA,NA,NA,"incongruent","left","TRUE",NA,NA,NA,NA,NA,NA
"31579","sort_trial",NA,"free-sort","130","5703040","0.0-4.0-69.0","1","2020-1-6 19:44:43","LION",NA,NA,NA,NA,NA,NA,NA,NA,"[{""cat"":28,""src"":19,""x"":45,""y"":129},{""cat"":28,""src"":1,""x"":46,""y"":494},{""cat"":28,""src"":9,""x"":77,""y"":420},{""cat"":23,""src"":9,""x"":2,""y"":388},{""cat"":23,""src"":3,""x"":36,""y"":13},{""cat"":23,""src"":1,""x"":52,""y"":197},{""cat"":7,""src"":12,""x"":27,""y"":243},{""cat"":7,""src"":13,""x"":47,""y"":63},{""cat"":7,""src"":3,""x"":31,""y"":303}]","[{""cat"":""7"",""src"":""13"",""x"":0,""y"":0},{""cat"":""7"",""src"":""3"",""x"":0,""y"":0},{""cat"":""7"",""src"":""12"",""x"":0,""y"":0},{""cat"":""23"",""src"":""9"",""x"":0,""y"":0},{""cat"":""23"",""src"":""1"",""x"":0,""y"":0},{""cat"":""23"",""src"":""3"",""x"":0,""y"":0},{""cat"":""28"",""src"":""19"",""x"":0,""y"":0},{""cat"":""28"",""src"":""1"",""x"":0,""y"":0},{""cat"":""28"",""src"":""9"",""x"":0,""y"":0}]","[{""cat"":7,""src"":13,""loc"":7},{""cat"":7,""src"":3,""loc"":6},{""cat"":7,""src"":12,""loc"":8},{""cat"":23,""src"":9,""loc"":0},{""cat"":23,""src"":1,""loc"":1},{""cat"":23,""src"":3,""loc"":2},{""cat"":28,""src"":19,""loc"":5},{""cat"":28,""src"":1,""loc"":3},{""cat"":28,""src"":9,""loc"":4}]","5","23,23,23,28,28,28,7,7,7,9,1,3,1,9,19,3,13,12,0,1,2,3,4,5,6,7,8,3,4,5,7,8,6,1,0,2",NA
"1201019","sort_feedback","32","html-keyboard-response","131","6904060","0.0-4.0-70.0","1","2020-1-6 19:44:43","LION",NA,NA,NA,NA,NA,NA,NA,NA,NA,NA,NA,NA,NA,NA
"19931","setup3",NA,"animation","132","6923992","0.0-4.0-71.0","1","2020-1-6 19:44:43","LION",NA,NA,"[{""cat"":2,""src"":10,""loc"":8},{""cat"":25,""src"":7,""loc"":5},{""cat"":0,""src"":16,""loc"":2},{""cat"":2,""src"":0,""loc"":7},{""cat"":0,""src"":13,""loc"":0},{""cat"":25,""src"":8,""loc"":3},{""cat"":2,""src"":5,""loc"":6},{""cat"":25,""src"":3,""loc"":4},{""cat"":0,""src"":7,""loc"":1}]","3","1106,1102,1101,1104,1101,1102,1104,1101,1105,10005",NA,NA,NA,NA,NA,NA,NA,NA,NA
"1080","flanker_instructions","39","html-keyboard-response","133","6925075","0.0-4.0-72.0","1","2020-1-6 19:44:43","LION",NA,NA,NA,NA,NA,NA,NA,NA,NA,NA,NA,NA,NA,NA
"625","flanker_test","39","image-keyboard-response","134","6926704","0.0-4.0-73.0-0.0","1","2020-1-6 19:44:43","LION",NA,NA,NA,NA,NA,"incongruent","right","TRUE",NA,NA,NA,NA,NA,NA
"453","flanker_test","37","image-keyboard-response","135","6927523","0.0-4.0-73.0-0.1","1","2020-1-6 19:44:43","LION",NA,NA,NA,NA,NA,"congruent","left","TRUE",NA,NA,NA,NA,NA,NA
"454","flanker_test","39","image-keyboard-response","136","6928962","0.0-4.0-73.0-0.2","1","2020-1-6 19:44:43","LION",NA,NA,NA,NA,NA,"congruent","right","TRUE",NA,NA,NA,NA,NA,NA
"540","flanker_test","37","image-keyboard-response","137","6929901","0.0-4.0-73.0-0.3","1","2020-1-6 19:44:43","LION",NA,NA,NA,NA,NA,"incongruent","left","TRUE",NA,NA,NA,NA,NA,NA
"33007","sort_trial",NA,"free-sort","138","6963548","0.0-4.0-74.0","1","2020-1-6 19:44:43","LION",NA,NA,NA,NA,NA,NA,NA,NA,"[{""cat"":2,""src"":10,""x"":78,""y"":445},{""cat"":25,""src"":7,""x"":74,""y"":264},{""cat"":0,""src"":16,""x"":75,""y"":136},{""cat"":2,""src"":0,""x"":77,""y"":62},{""cat"":0,""src"":13,""x"":13,""y"":6},{""cat"":25,""src"":8,""x"":40,""y"":311},{""cat"":2,""src"":5,""x"":26,""y"":487},{""cat"":25,""src"":3,""x"":5,""y"":205},{""cat"":0,""src"":7,""x"":49,""y"":374}]","[{""cat"":""2"",""src"":""0"",""x"":0,""y"":0},{""cat"":""2"",""src"":""5"",""x"":0,""y"":0},{""cat"":""2"",""src"":""10"",""x"":0,""y"":0},{""cat"":""25"",""src"":""7"",""x"":0,""y"":0},{""cat"":""25"",""src"":""3"",""x"":0,""y"":0},{""cat"":""25"",""src"":""8"",""x"":0,""y"":0},{""cat"":""0"",""src"":""16"",""x"":0,""y"":0},{""cat"":""0"",""src"":""13"",""x"":0,""y"":0},{""cat"":""0"",""src"":""7"",""x"":0,""y"":0}]","[{""cat"":2,""src"":0,""loc"":7},{""cat"":2,""src"":5,""loc"":6},{""cat"":2,""src"":10,""loc"":8},{""cat"":25,""src"":7,""loc"":5},{""cat"":25,""src"":3,""loc"":4},{""cat"":25,""src"":8,""loc"":3},{""cat"":0,""src"":16,""loc"":0},{""cat"":0,""src"":13,""loc"":1},{""cat"":0,""src"":7,""loc"":2}]","6","0,0,0,25,25,25,2,2,2,16,13,7,8,3,7,5,0,10,0,1,2,3,4,5,6,7,8,6,7,8,5,4,3,1,0,2",NA
"1897","sort_feedback","32","html-keyboard-response","139","6965446","0.0-4.0-75.0","1","2020-1-6 19:44:43","LION",NA,NA,NA,NA,NA,NA,NA,NA,NA,NA,NA,NA,NA,NA
"19926","setup2",NA,"animation","140","6985373","0.0-4.0-76.0","1","2020-1-6 19:44:43","LION",NA,NA,"[{""cat"":31,""src"":17,""loc"":2},{""cat"":2,""src"":13,""loc"":0},{""cat"":11,""src"":6,""loc"":1},{""cat"":31,""src"":7,""loc"":4},{""cat"":2,""src"":0,""loc"":5},{""cat"":11,""src"":5,""loc"":3},{""cat"":2,""src"":4,""loc"":7},{""cat"":31,""src"":16,""loc"":6},{""cat"":11,""src"":14,""loc"":8}]","2","1107,1101,1103,1101,1101,1102,1103,1101,1103,10004",NA,NA,NA,NA,NA,NA,NA,NA,NA
"1197","flanker_instructions","39","html-keyboard-response","141","6986573","0.0-4.0-77.0","1","2020-1-6 19:44:43","LION",NA,NA,NA,NA,NA,NA,NA,NA,NA,NA,NA,NA,NA,NA
"454","flanker_test","39","image-keyboard-response","142","6988034","0.0-4.0-78.0-0.0","1","2020-1-6 19:44:43","LION",NA,NA,NA,NA,NA,"congruent","right","TRUE",NA,NA,NA,NA,NA,NA
"443","flanker_test","37","image-keyboard-response","143","6989321","0.0-4.0-78.0-0.1","1","2020-1-6 19:44:43","LION",NA,NA,NA,NA,NA,"congruent","left","TRUE",NA,NA,NA,NA,NA,NA
"646","flanker_test","39","image-keyboard-response","144","6990713","0.0-4.0-78.0-0.2","1","2020-1-6 19:44:43","LION",NA,NA,NA,NA,NA,"incongruent","right","TRUE",NA,NA,NA,NA,NA,NA
"496","flanker_test","39","image-keyboard-response","145","6992395","0.0-4.0-78.0-0.3","1","2020-1-6 19:44:43","LION",NA,NA,NA,NA,NA,"incongruent","left","FALSE",NA,NA,NA,NA,NA,NA
"23576","sort_trial",NA,"free-sort","146","7016614","0.0-4.0-79.0","1","2020-1-6 19:44:43","LION",NA,NA,NA,NA,NA,NA,NA,NA,"[{""cat"":31,""src"":17,""x"":57,""y"":241},{""cat"":2,""src"":13,""x"":62,""y"":484},{""cat"":11,""src"":6,""x"":33,""y"":190},{""cat"":31,""src"":7,""x"":21,""y"":3},{""cat"":2,""src"":0,""x"":31,""y"":425},{""cat"":11,""src"":5,""x"":68,""y"":308},{""cat"":2,""src"":4,""x"":38,""y"":373},{""cat"":31,""src"":16,""x"":9,""y"":141},{""cat"":11,""src"":14,""x"":13,""y"":64}]","[{""cat"":""31"",""src"":""7"",""x"":0,""y"":0},{""cat"":""2"",""src"":""0"",""x"":0,""y"":0},{""cat"":""11"",""src"":""5"",""x"":0,""y"":0},{""cat"":""11"",""src"":""14"",""x"":0,""y"":0},{""cat"":""31"",""src"":""16"",""x"":0,""y"":0},{""cat"":""2"",""src"":""4"",""x"":0,""y"":0},{""cat"":""31"",""src"":""17"",""x"":0,""y"":0},{""cat"":""2"",""src"":""13"",""x"":0,""y"":0},{""cat"":""11"",""src"":""6"",""x"":0,""y"":0}]","[{""cat"":31,""src"":7,""loc"":4},{""cat"":2,""src"":0,""loc"":5},{""cat"":11,""src"":5,""loc"":3},{""cat"":11,""src"":14,""loc"":8},{""cat"":31,""src"":16,""loc"":6},{""cat"":2,""src"":4,""loc"":7},{""cat"":31,""src"":17,""loc"":0},{""cat"":2,""src"":13,""loc"":2},{""cat"":11,""src"":6,""loc"":1}]","7","31,11,2,11,31,2,31,2,11,17,6,13,5,7,0,16,4,14,0,1,2,3,4,5,6,7,8,6,8,7,2,0,1,4,5,3",NA
"1063","sort_feedback","32","html-keyboard-response","147","7017679","0.0-4.0-80.0","1","2020-1-6 19:44:43","LION",NA,NA,NA,NA,NA,NA,NA,NA,NA,NA,NA,NA,NA,NA
"19936","setup4",NA,"animation","148","7037616","0.0-4.0-81.0","1","2020-1-6 19:44:43","LION",NA,NA,"[{""cat"":18,""src"":6,""loc"":0},{""cat"":18,""src"":11,""loc"":3},{""cat"":18,""src"":8,""loc"":6},{""cat"":3,""src"":6,""loc"":1},{""cat"":3,""src"":16,""loc"":8},{""cat"":3,""src"":19,""loc"":4},{""cat"":15,""src"":7,""loc"":2},{""cat"":15,""src"":12,""loc"":5},{""cat"":15,""src"":1,""loc"":7}]","4","1108,1101,1105,1104,1102,1104,1102,1101,1104,10005",NA,NA,NA,NA,NA,NA,NA,NA,NA
"2069","flanker_instructions","39","html-keyboard-response","149","7039687","0.0-4.0-82.0","1","2020-1-6 19:44:43","LION",NA,NA,NA,NA,NA,NA,NA,NA,NA,NA,NA,NA,NA,NA
"770","flanker_test","37","image-keyboard-response","150","7041462","0.0-4.0-83.0-0.0","1","2020-1-6 19:44:43","LION",NA,NA,NA,NA,NA,"incongruent","left","TRUE",NA,NA,NA,NA,NA,NA
"602","flanker_test","39","image-keyboard-response","151","7042413","0.0-4.0-83.0-0.1","1","2020-1-6 19:44:43","LION",NA,NA,NA,NA,NA,"congruent","right","TRUE",NA,NA,NA,NA,NA,NA
"597","flanker_test","39","image-keyboard-response","152","7043538","0.0-4.0-83.0-0.2","1","2020-1-6 19:44:43","LION",NA,NA,NA,NA,NA,"incongruent","right","TRUE",NA,NA,NA,NA,NA,NA
"674","flanker_test","37","image-keyboard-response","153","7044969","0.0-4.0-83.0-0.3","1","2020-1-6 19:44:43","LION",NA,NA,NA,NA,NA,"congruent","left","TRUE",NA,NA,NA,NA,NA,NA
"66639","sort_trial",NA,"free-sort","154","7112679","0.0-4.0-84.0","1","2020-1-6 19:44:43","LION",NA,NA,NA,NA,NA,NA,NA,NA,"[{""cat"":18,""src"":6,""x"":69,""y"":195},{""cat"":18,""src"":11,""x"":72,""y"":239},{""cat"":18,""src"":8,""x"":12,""y"":4},{""cat"":3,""src"":6,""x"":51,""y"":145},{""cat"":3,""src"":16,""x"":21,""y"":436},{""cat"":3,""src"":19,""x"":70,""y"":324},{""cat"":15,""src"":7,""x"":6,""y"":504},{""cat"":15,""src"":12,""x"":20,""y"":74},{""cat"":15,""src"":1,""x"":54,""y"":379}]","[{""cat"":""15"",""src"":""1"",""x"":0,""y"":0},{""cat"":""18"",""src"":""8"",""x"":0,""y"":0},{""cat"":""3"",""src"":""16"",""x"":0,""y"":0},{""cat"":""15"",""src"":""7"",""x"":0,""y"":0},{""cat"":""3"",""src"":""6"",""x"":0,""y"":0},{""cat"":""18"",""src"":""6"",""x"":0,""y"":0},{""cat"":""18"",""src"":""11"",""x"":0,""y"":0},{""cat"":""15"",""src"":""12"",""x"":0,""y"":0},{""cat"":""3"",""src"":""19"",""x"":0,""y"":0}]","[{""cat"":15,""src"":1,""loc"":7},{""cat"":18,""src"":8,""loc"":6},{""cat"":3,""src"":16,""loc"":8},{""cat"":15,""src"":7,""loc"":2},{""cat"":3,""src"":6,""loc"":1},{""cat"":18,""src"":6,""loc"":0},{""cat"":18,""src"":11,""loc"":3},{""cat"":15,""src"":12,""loc"":5},{""cat"":3,""src"":19,""loc"":4}]","9","18,3,15,18,3,15,18,15,3,6,6,7,11,19,12,8,1,16,0,1,2,3,4,5,6,7,8,5,4,3,6,8,7,1,0,2",NA
"1825","sort_feedback","32","html-keyboard-response","155","7114506","0.0-4.0-85.0","1","2020-1-6 19:44:43","LION",NA,NA,NA,NA,NA,NA,NA,NA,NA,NA,NA,NA,NA,NA
"19935","setup1",NA,"animation","156","7134442","0.0-4.0-86.0","1","2020-1-6 19:44:43","LION",NA,NA,"[{""cat"":1,""src"":3,""loc"":1},{""cat"":1,""src"":16,""loc"":0},{""cat"":1,""src"":8,""loc"":2},{""cat"":25,""src"":12,""loc"":3},{""cat"":25,""src"":16,""loc"":4},{""cat"":25,""src"":18,""loc"":5},{""cat"":9,""src"":3,""loc"":7},{""cat"":9,""src"":17,""loc"":8},{""cat"":9,""src"":19,""loc"":6}]","1","1108,1101,1104,1102,1104,1102,1105,1101,1103,10005",NA,NA,NA,NA,NA,NA,NA,NA,NA
"2225","flanker_instructions","39","html-keyboard-response","157","7136669","0.0-4.0-87.0","1","2020-1-6 19:44:43","LION",NA,NA,NA,NA,NA,NA,NA,NA,NA,NA,NA,NA,NA,NA
"817","flanker_test","37","image-keyboard-response","158","7138493","0.0-4.0-88.0-0.0","1","2020-1-6 19:44:43","LION",NA,NA,NA,NA,NA,"congruent","left","TRUE",NA,NA,NA,NA,NA,NA
"562","flanker_test","39","image-keyboard-response","159","7140140","0.0-4.0-88.0-0.1","1","2020-1-6 19:44:43","LION",NA,NA,NA,NA,NA,"congruent","right","TRUE",NA,NA,NA,NA,NA,NA
"698","flanker_test","39","image-keyboard-response","160","7141993","0.0-4.0-88.0-0.2","1","2020-1-6 19:44:43","LION",NA,NA,NA,NA,NA,"incongruent","right","TRUE",NA,NA,NA,NA,NA,NA
"829","flanker_test","37","image-keyboard-response","161","7143417","0.0-4.0-88.0-0.3","1","2020-1-6 19:44:43","LION",NA,NA,NA,NA,NA,"incongruent","left","TRUE",NA,NA,NA,NA,NA,NA
"32673","sort_trial",NA,"free-sort","162","7176966","0.0-4.0-89.0","1","2020-1-6 19:44:43","LION",NA,NA,NA,NA,NA,NA,NA,NA,"[{""cat"":1,""src"":3,""x"":55,""y"":421},{""cat"":1,""src"":16,""x"":73,""y"":12},{""cat"":1,""src"":8,""x"":28,""y"":244},{""cat"":25,""src"":12,""x"":75,""y"":479},{""cat"":25,""src"":16,""x"":40,""y"":303},{""cat"":25,""src"":18,""x"":23,""y"":201},{""cat"":9,""src"":3,""x"":17,""y"":371},{""cat"":9,""src"":17,""x"":66,""y"":133},{""cat"":9,""src"":19,""x"":9,""y"":68}]","[{""cat"":""9"",""src"":""3"",""x"":0,""y"":0},{""cat"":""9"",""src"":""17"",""x"":0,""y"":0},{""cat"":""9"",""src"":""19"",""x"":0,""y"":0},{""cat"":""25"",""src"":""16"",""x"":0,""y"":0},{""cat"":""1"",""src"":""3"",""x"":0,""y"":0},{""cat"":""1"",""src"":""16"",""x"":0,""y"":0},{""cat"":""25"",""src"":""18"",""x"":0,""y"":0},{""cat"":""25"",""src"":""12"",""x"":0,""y"":0},{""cat"":""1"",""src"":""8"",""x"":0,""y"":0}]","[{""cat"":9,""src"":3,""loc"":7},{""cat"":9,""src"":17,""loc"":6},{""cat"":9,""src"":19,""loc"":2},{""cat"":25,""src"":16,""loc"":8},{""cat"":1,""src"":3,""loc"":1},{""cat"":1,""src"":16,""loc"":0},{""cat"":25,""src"":18,""loc"":5},{""cat"":25,""src"":12,""loc"":3},{""cat"":1,""src"":8,""loc"":4}]","5","1,1,9,25,1,25,9,9,25,16,3,19,12,8,18,17,3,16,0,1,2,3,4,5,6,7,8,5,4,2,7,8,6,1,0,3",NA
"1250","sort_feedback","32","html-keyboard-response","163","7178219","0.0-4.0-90.0","1","2020-1-6 19:44:43","LION",NA,NA,NA,NA,NA,NA,NA,NA,NA,NA,NA,NA,NA,NA
"19930","setup3",NA,"animation","164","7198150","0.0-4.0-91.0","1","2020-1-6 19:44:43","LION",NA,NA,"[{""cat"":7,""src"":1,""loc"":3},{""cat"":6,""src"":11,""loc"":0},{""cat"":18,""src"":0,""loc"":8},{""cat"":7,""src"":14,""loc"":5},{""cat"":18,""src"":16,""loc"":7},{""cat"":6,""src"":16,""loc"":1},{""cat"":18,""src"":19,""loc"":6},{""cat"":7,""src"":18,""loc"":4},{""cat"":6,""src"":8,""loc"":2}]","3","1107,1101,1105,1103,1100,1103,1102,1104,1102,10003",NA,NA,NA,NA,NA,NA,NA,NA,NA
"25347","flanker_instructions","39","html-keyboard-response","165","7223498","0.0-4.0-92.0","1","2020-1-6 19:44:43","LION",NA,NA,NA,NA,NA,NA,NA,NA,NA,NA,NA,NA,NA,NA
"668","flanker_test","39","image-keyboard-response","166","7225171","0.0-4.0-93.0-0.0","1","2020-1-6 19:44:43","LION",NA,NA,NA,NA,NA,"congruent","right","TRUE",NA,NA,NA,NA,NA,NA
"661","flanker_test","37","image-keyboard-response","167","7226593","0.0-4.0-93.0-0.1","1","2020-1-6 19:44:43","LION",NA,NA,NA,NA,NA,"incongruent","left","TRUE",NA,NA,NA,NA,NA,NA
"622","flanker_test","39","image-keyboard-response","168","7228047","0.0-4.0-93.0-0.2","1","2020-1-6 19:44:43","LION",NA,NA,NA,NA,NA,"incongruent","right","TRUE",NA,NA,NA,NA,NA,NA
NA,"flanker_test",NA,"image-keyboard-response","169","7229352","0.0-4.0-93.0-0.3","1","2020-1-6 19:44:43","LION",NA,NA,NA,NA,NA,"congruent","left","FALSE",NA,NA,NA,NA,NA,NA
"30934","sort_trial",NA,"free-sort","170","7261090","0.0-4.0-94.0","1","2020-1-6 19:44:43","LION",NA,NA,NA,NA,NA,NA,NA,NA,"[{""cat"":7,""src"":1,""x"":73,""y"":438},{""cat"":6,""src"":11,""x"":12,""y"":135},{""cat"":18,""src"":0,""x"":22,""y"":250},{""cat"":7,""src"":14,""x"":43,""y"":496},{""cat"":18,""src"":16,""x"":65,""y"":68},{""cat"":6,""src"":16,""x"":66,""y"":18},{""cat"":18,""src"":19,""x"":1,""y"":328},{""cat"":7,""src"":18,""x"":32,""y"":199},{""cat"":6,""src"":8,""x"":83,""y"":368}]","[{""cat"":""6"",""src"":""11"",""x"":0,""y"":0},{""cat"":""6"",""src"":""8"",""x"":0,""y"":0},{""cat"":""6"",""src"":""16"",""x"":0,""y"":0},{""cat"":""7"",""src"":""14"",""x"":0,""y"":0},{""cat"":""7"",""src"":""18"",""x"":0,""y"":0},{""cat"":""7"",""src"":""1"",""x"":0,""y"":0},{""cat"":""18"",""src"":""19"",""x"":0,""y"":0},{""cat"":""18"",""src"":""16"",""x"":0,""y"":0},{""cat"":""18"",""src"":""0"",""x"":0,""y"":0}]","[{""cat"":6,""src"":11,""loc"":0},{""cat"":6,""src"":8,""loc"":2},{""cat"":6,""src"":16,""loc"":1},{""cat"":7,""src"":14,""loc"":5},{""cat"":7,""src"":18,""loc"":4},{""cat"":7,""src"":1,""loc"":3},{""cat"":18,""src"":19,""loc"":6},{""cat"":18,""src"":16,""loc"":7},{""cat"":18,""src"":0,""loc"":8}]","9","6,6,6,7,7,7,18,18,18,11,16,8,1,18,14,19,16,0,0,1,2,3,4,5,6,7,8,0,2,1,5,4,3,6,7,8",NA
"1032","sort_feedback","32","html-keyboard-response","171","7262124","0.0-4.0-95.0","1","2020-1-6 19:44:43","LION",NA,NA,NA,NA,NA,NA,NA,NA,NA,NA,NA,NA,NA,NA
"19932","setup5",NA,"animation","172","7282057","0.0-4.0-96.0","1","2020-1-6 19:44:43","LION",NA,NA,"[{""cat"":32,""src"":2,""loc"":0},{""cat"":31,""src"":2,""loc"":8},{""cat"":18,""src"":18,""loc"":3},{""cat"":31,""src"":4,""loc"":5},{""cat"":32,""src"":15,""loc"":7},{""cat"":18,""src"":8,""loc"":1},{""cat"":31,""src"":8,""loc"":2},{""cat"":32,""src"":18,""loc"":4},{""cat"":18,""src"":17,""loc"":6}]","5","1107,1102,1104,1101,1103,1102,1102,1101,1105,10005",NA,NA,NA,NA,NA,NA,NA,NA,NA
"1488","flanker_instructions","39","html-keyboard-response","173","7283547","0.0-4.0-97.0","1","2020-1-6 19:44:43","LION",NA,NA,NA,NA,NA,NA,NA,NA,NA,NA,NA,NA,NA,NA
"397","flanker_test","37","image-keyboard-response","174","7284950","0.0-4.0-98.0-0.0","1","2020-1-6 19:44:43","LION",NA,NA,NA,NA,NA,"incongruent","right","FALSE",NA,NA,NA,NA,NA,NA
"379","flanker_test","39","image-keyboard-response","175","7286439","0.0-4.0-98.0-0.1","1","2020-1-6 19:44:43","LION",NA,NA,NA,NA,NA,"congruent","right","TRUE",NA,NA,NA,NA,NA,NA
"393","flanker_test","37","image-keyboard-response","176","7288015","0.0-4.0-98.0-0.2","1","2020-1-6 19:44:43","LION",NA,NA,NA,NA,NA,"incongruent","left","TRUE",NA,NA,NA,NA,NA,NA
"449","flanker_test","37","image-keyboard-response","177","7289604","0.0-4.0-98.0-0.3","1","2020-1-6 19:44:43","LION",NA,NA,NA,NA,NA,"congruent","left","TRUE",NA,NA,NA,NA,NA,NA
"22442","sort_trial",NA,"free-sort","178","7312375","0.0-4.0-99.0","1","2020-1-6 19:44:43","LION",NA,NA,NA,NA,NA,NA,NA,NA,"[{""cat"":32,""src"":2,""x"":10,""y"":503},{""cat"":31,""src"":2,""x"":69,""y"":190},{""cat"":18,""src"":18,""x"":46,""y"":133},{""cat"":31,""src"":4,""x"":9,""y"":15},{""cat"":32,""src"":15,""x"":82,""y"":246},{""cat"":18,""src"":8,""x"":6,""y"":441},{""cat"":31,""src"":8,""x"":14,""y"":86},{""cat"":32,""src"":18,""x"":23,""y"":310},{""cat"":18,""src"":17,""x"":72,""y"":366}]","[{""cat"":""32"",""src"":""15"",""x"":0,""y"":0},{""cat"":""31"",""src"":""2"",""x"":0,""y"":0},{""cat"":""18"",""src"":""17"",""x"":0,""y"":0},{""cat"":""32"",""src"":""18"",""x"":0,""y"":0},{""cat"":""18"",""src"":""18"",""x"":0,""y"":0},{""cat"":""18"",""src"":""8"",""x"":0,""y"":0},{""cat"":""31"",""src"":""4"",""x"":0,""y"":0},{""cat"":""31"",""src"":""8"",""x"":0,""y"":0},{""cat"":""32"",""src"":""2"",""x"":0,""y"":0}]","[{""cat"":32,""src"":15,""loc"":7},{""cat"":31,""src"":2,""loc"":8},{""cat"":18,""src"":17,""loc"":6},{""cat"":32,""src"":18,""loc"":3},{""cat"":18,""src"":18,""loc"":2},{""cat"":18,""src"":8,""loc"":5},{""cat"":31,""src"":4,""loc"":0},{""cat"":31,""src"":8,""loc"":1},{""cat"":32,""src"":2,""loc"":4}]","3","31,31,18,32,32,18,18,32,31,4,8,18,18,2,8,17,15,2,0,1,2,3,4,5,6,7,8,6,7,4,3,8,5,2,0,1",NA
"1049","sort_feedback","32","html-keyboard-response","179","7313427","0.0-4.0-100.0","1","2020-1-6 19:44:43","LION",NA,NA,NA,NA,NA,NA,NA,NA,NA,NA,NA,NA,NA,NA
NA,"breakStart",NA,"html-keyboard-response","180","7343433","0.0-5.0-0.0","1","2020-1-6 19:44:43","LION",NA,NA,NA,NA,NA,NA,NA,NA,NA,NA,NA,NA,NA,NA
"2008","breakEnd",NA,"html-button-response","181","7345442","0.0-5.0-1.0","1","2020-1-6 19:44:43","LION","0",NA,NA,NA,NA,NA,NA,NA,NA,NA,NA,NA,NA,NA
"19930","setup3",NA,"animation","182","7365374","0.0-6.0-0.0","1","2020-1-6 19:44:43","LION",NA,NA,"[{""cat"":21,""src"":6,""loc"":5},{""cat"":8,""src"":7,""loc"":6},{""cat"":31,""src"":0,""loc"":0},{""cat"":8,""src"":19,""loc"":7},{""cat"":31,""src"":16,""loc"":1},{""cat"":21,""src"":7,""loc"":4},{""cat"":21,""src"":0,""loc"":3},{""cat"":8,""src"":17,""loc"":8},{""cat"":31,""src"":1,""loc"":2}]","3","1103,1103,1103,1103,1101,1101,1105,1102,1105,10004",NA,NA,NA,NA,NA,NA,NA,NA,NA
"833","flanker_instructions","39","html-keyboard-response","183","7366209","0.0-6.0-1.0","1","2020-1-6 19:44:43","LION",NA,NA,NA,NA,NA,NA,NA,NA,NA,NA,NA,NA,NA,NA
"514","flanker_test","37","image-keyboard-response","184","7367728","0.0-6.0-2.0-0.0","1","2020-1-6 19:44:43","LION",NA,NA,NA,NA,NA,"congruent","left","TRUE",NA,NA,NA,NA,NA,NA
"537","flanker_test","37","image-keyboard-response","185","7369218","0.0-6.0-2.0-0.1","1","2020-1-6 19:44:43","LION",NA,NA,NA,NA,NA,"incongruent","left","TRUE",NA,NA,NA,NA,NA,NA
"439","flanker_test","39","image-keyboard-response","186","7370163","0.0-6.0-2.0-0.2","1","2020-1-6 19:44:43","LION",NA,NA,NA,NA,NA,"incongruent","right","TRUE",NA,NA,NA,NA,NA,NA
"401","flanker_test","39","image-keyboard-response","187","7371191","0.0-6.0-2.0-0.3","1","2020-1-6 19:44:43","LION",NA,NA,NA,NA,NA,"congruent","right","TRUE",NA,NA,NA,NA,NA,NA
"38166","sort_trial",NA,"free-sort","188","7410461","0.0-6.0-3.0","1","2020-1-6 19:44:43","LION",NA,NA,NA,NA,NA,NA,NA,NA,"[{""cat"":21,""src"":6,""x"":45,""y"":209},{""cat"":8,""src"":7,""x"":78,""y"":311},{""cat"":31,""src"":0,""x"":53,""y"":77},{""cat"":8,""src"":19,""x"":63,""y"":11},{""cat"":31,""src"":16,""x"":8,""y"":146},{""cat"":21,""src"":7,""x"":82,""y"":427},{""cat"":21,""src"":0,""x"":74,""y"":497},{""cat"":8,""src"":17,""x"":11,""y"":258},{""cat"":31,""src"":1,""x"":48,""y"":364}]","[{""cat"":""31"",""src"":""0"",""x"":0,""y"":0},{""cat"":""31"",""src"":""16"",""x"":0,""y"":0},{""cat"":""8"",""src"":""7"",""x"":0,""y"":0},{""cat"":""8"",""src"":""17"",""x"":0,""y"":0},{""cat"":""8"",""src"":""19"",""x"":0,""y"":0},{""cat"":""21"",""src"":""6"",""x"":0,""y"":0},{""cat"":""21"",""src"":""0"",""x"":0,""y"":0},{""cat"":""31"",""src"":""1"",""x"":0,""y"":0},{""cat"":""21"",""src"":""7"",""x"":0,""y"":0}]","[{""cat"":31,""src"":0,""loc"":0},{""cat"":31,""src"":16,""loc"":1},{""cat"":8,""src"":7,""loc"":6},{""cat"":8,""src"":17,""loc"":8},{""cat"":8,""src"":19,""loc"":7},{""cat"":21,""src"":6,""loc"":4},{""cat"":21,""src"":0,""loc"":3},{""cat"":31,""src"":1,""loc"":2},{""cat"":21,""src"":7,""loc"":5}]","7","31,31,31,21,21,21,8,8,8,0,16,1,0,6,7,7,19,17,0,1,2,3,4,5,6,7,8,0,1,7,6,5,8,2,4,3",NA
"1049","sort_feedback","32","html-keyboard-response","189","7411513","0.0-6.0-4.0","1","2020-1-6 19:44:43","LION",NA,NA,NA,NA,NA,NA,NA,NA,NA,NA,NA,NA,NA,NA
"19933","setup5",NA,"animation","190","7431447","0.0-6.0-5.0","1","2020-1-6 19:44:43","LION",NA,NA,"[{""cat"":15,""src"":11,""loc"":6},{""cat"":12,""src"":19,""loc"":0},{""cat"":31,""src"":11,""loc"":4},{""cat"":15,""src"":14,""loc"":5},{""cat"":12,""src"":13,""loc"":7},{""cat"":31,""src"":9,""loc"":2},{""cat"":15,""src"":12,""loc"":1},{""cat"":31,""src"":6,""loc"":8},{""cat"":12,""src"":3,""loc"":3}]","5","1107,1102,1101,1104,1102,1103,1103,1102,1104,10005",NA,NA,NA,NA,NA,NA,NA,NA,NA
"1579","flanker_instructions","39","html-keyboard-response","191","7433029","0.0-6.0-6.0","1","2020-1-6 19:44:43","LION",NA,NA,NA,NA,NA,NA,NA,NA,NA,NA,NA,NA,NA,NA
"704","flanker_test","39","image-keyboard-response","192","7434739","0.0-6.0-7.0-0.0","1","2020-1-6 19:44:43","LION",NA,NA,NA,NA,NA,"congruent","right","TRUE",NA,NA,NA,NA,NA,NA
"651","flanker_test","37","image-keyboard-response","193","7435895","0.0-6.0-7.0-0.1","1","2020-1-6 19:44:43","LION",NA,NA,NA,NA,NA,"incongruent","left","TRUE",NA,NA,NA,NA,NA,NA
"509","flanker_test","37","image-keyboard-response","194","7437189","0.0-6.0-7.0-0.2","1","2020-1-6 19:44:43","LION",NA,NA,NA,NA,NA,"congruent","left","TRUE",NA,NA,NA,NA,NA,NA
"470","flanker_test","39","image-keyboard-response","195","7438196","0.0-6.0-7.0-0.3","1","2020-1-6 19:44:43","LION",NA,NA,NA,NA,NA,"incongruent","right","TRUE",NA,NA,NA,NA,NA,NA
"27432","sort_trial",NA,"free-sort","196","7466250","0.0-6.0-8.0","1","2020-1-6 19:44:43","LION",NA,NA,NA,NA,NA,NA,NA,NA,"[{""cat"":15,""src"":11,""x"":1,""y"":378},{""cat"":12,""src"":19,""x"":2,""y"":492},{""cat"":31,""src"":11,""x"":49,""y"":447},{""cat"":15,""src"":14,""x"":73,""y"":265},{""cat"":12,""src"":13,""x"":61,""y"":201},{""cat"":31,""src"":9,""x"":69,""y"":315},{""cat"":15,""src"":12,""x"":29,""y"":2},{""cat"":31,""src"":6,""x"":10,""y"":136},{""cat"":12,""src"":3,""x"":32,""y"":79}]","[{""cat"":""12"",""src"":""3"",""x"":0,""y"":0},{""cat"":""15"",""src"":""14"",""x"":0,""y"":0},{""cat"":""31"",""src"":""11"",""x"":0,""y"":0},{""cat"":""12"",""src"":""19"",""x"":0,""y"":0},{""cat"":""15"",""src"":""12"",""x"":0,""y"":0},{""cat"":""31"",""src"":""9"",""x"":0,""y"":0},{""cat"":""15"",""src"":""11"",""x"":0,""y"":0},{""cat"":""12"",""src"":""13"",""x"":0,""y"":0},{""cat"":""31"",""src"":""6"",""x"":0,""y"":0}]","[{""cat"":12,""src"":3,""loc"":3},{""cat"":15,""src"":14,""loc"":5},{""cat"":31,""src"":11,""loc"":4},{""cat"":12,""src"":19,""loc"":0},{""cat"":15,""src"":12,""loc"":1},{""cat"":31,""src"":9,""loc"":2},{""cat"":15,""src"":11,""loc"":8},{""cat"":12,""src"":13,""loc"":7},{""cat"":31,""src"":6,""loc"":6}]","7","12,15,31,12,31,15,31,12,15,19,12,9,3,11,14,6,13,11,0,1,2,3,4,5,6,7,8,3,4,5,0,2,1,8,7,6",NA
"830","sort_feedback","32","html-keyboard-response","197","7467082","0.0-6.0-9.0","1","2020-1-6 19:44:43","LION",NA,NA,NA,NA,NA,NA,NA,NA,NA,NA,NA,NA,NA,NA
"19933","setup2",NA,"animation","198","7487017","0.0-6.0-10.0","1","2020-1-6 19:44:43","LION",NA,NA,"[{""cat"":17,""src"":6,""loc"":4},{""cat"":24,""src"":4,""loc"":5},{""cat"":32,""src"":9,""loc"":3},{""cat"":32,""src"":4,""loc"":1},{""cat"":24,""src"":9,""loc"":0},{""cat"":17,""src"":14,""loc"":2},{""cat"":17,""src"":4,""loc"":8},{""cat"":32,""src"":1,""loc"":6},{""cat"":24,""src"":17,""loc"":7}]","2","1107,1101,1101,1105,1101,1106,1101,1105,1101,10005",NA,NA,NA,NA,NA,NA,NA,NA,NA
"2081","flanker_instructions","39","html-keyboard-response","199","7489099","0.0-6.0-11.0","1","2020-1-6 19:44:43","LION",NA,NA,NA,NA,NA,NA,NA,NA,NA,NA,NA,NA,NA,NA
"588","flanker_test","37","image-keyboard-response","200","7490691","0.0-6.0-12.0-0.0","1","2020-1-6 19:44:43","LION",NA,NA,NA,NA,NA,"incongruent","left","TRUE",NA,NA,NA,NA,NA,NA
"548","flanker_test","37","image-keyboard-response","201","7491569","0.0-6.0-12.0-0.1","1","2020-1-6 19:44:43","LION",NA,NA,NA,NA,NA,"congruent","left","TRUE",NA,NA,NA,NA,NA,NA
"543","flanker_test","39","image-keyboard-response","202","7493198","0.0-6.0-12.0-0.2","1","2020-1-6 19:44:43","LION",NA,NA,NA,NA,NA,"incongruent","right","TRUE",NA,NA,NA,NA,NA,NA
"574","flanker_test","39","image-keyboard-response","203","7494657","0.0-6.0-12.0-0.3","1","2020-1-6 19:44:43","LION",NA,NA,NA,NA,NA,"congruent","right","TRUE",NA,NA,NA,NA,NA,NA
"29592","sort_trial",NA,"free-sort","204","7525052","0.0-6.0-13.0","1","2020-1-6 19:44:43","LION",NA,NA,NA,NA,NA,NA,NA,NA,"[{""cat"":17,""src"":6,""x"":17,""y"":3},{""cat"":24,""src"":4,""x"":11,""y"":206},{""cat"":32,""src"":9,""x"":4,""y"":60},{""cat"":32,""src"":4,""x"":32,""y"":373},{""cat"":24,""src"":9,""x"":36,""y"":448},{""cat"":17,""src"":14,""x"":72,""y"":267},{""cat"":17,""src"":4,""x"":78,""y"":324},{""cat"":32,""src"":1,""x"":45,""y"":479},{""cat"":24,""src"":17,""x"":4,""y"":145}]","[{""cat"":""24"",""src"":""17"",""x"":0,""y"":0},{""cat"":""32"",""src"":""1"",""x"":0,""y"":0},{""cat"":""17"",""src"":""4"",""x"":0,""y"":0},{""cat"":""24"",""src"":""4"",""x"":0,""y"":0},{""cat"":""17"",""src"":""14"",""x"":0,""y"":0},{""cat"":""32"",""src"":""4"",""x"":0,""y"":0},{""cat"":""32"",""src"":""9"",""x"":0,""y"":0},{""cat"":""24"",""src"":""9"",""x"":0,""y"":0},{""cat"":""17"",""src"":""6"",""x"":0,""y"":0}]","[{""cat"":24,""src"":17,""loc"":7},{""cat"":32,""src"":1,""loc"":6},{""cat"":17,""src"":4,""loc"":8},{""cat"":24,""src"":4,""loc"":2},{""cat"":17,""src"":14,""loc"":0},{""cat"":32,""src"":4,""loc"":1},{""cat"":32,""src"":9,""loc"":3},{""cat"":24,""src"":9,""loc"":5},{""cat"":17,""src"":6,""loc"":4}]","6","17,32,24,32,17,24,32,24,17,14,4,4,9,6,9,1,17,4,0,1,2,3,4,5,6,7,8,4,5,3,6,8,7,1,0,2",NA
"1117","sort_feedback","32","html-keyboard-response","205","7526172","0.0-6.0-14.0","1","2020-1-6 19:44:43","LION",NA,NA,NA,NA,NA,NA,NA,NA,NA,NA,NA,NA,NA,NA
"19933","setup1",NA,"animation","206","7546106","0.0-6.0-15.0","1","2020-1-6 19:44:43","LION",NA,NA,"[{""cat"":1,""src"":15,""loc"":4},{""cat"":1,""src"":10,""loc"":5},{""cat"":1,""src"":13,""loc"":3},{""cat"":25,""src"":17,""loc"":6},{""cat"":25,""src"":3,""loc"":7},{""cat"":25,""src"":13,""loc"":8},{""cat"":19,""src"":4,""loc"":1},{""cat"":19,""src"":2,""loc"":2},{""cat"":19,""src"":6,""loc"":0}]","1","1107,1101,1101,1105,1102,1104,1102,1104,1102,10005",NA,NA,NA,NA,NA,NA,NA,NA,NA
"1595","flanker_instructions","39","html-keyboard-response","207","7547704","0.0-6.0-16.0","1","2020-1-6 19:44:43","LION",NA,NA,NA,NA,NA,NA,NA,NA,NA,NA,NA,NA,NA,NA
"575","flanker_test","39","image-keyboard-response","208","7549286","0.0-6.0-17.0-0.0","1","2020-1-6 19:44:43","LION",NA,NA,NA,NA,NA,"congruent","right","TRUE",NA,NA,NA,NA,NA,NA
"442","flanker_test","39","image-keyboard-response","209","7550594","0.0-6.0-17.0-0.1","1","2020-1-6 19:44:43","LION",NA,NA,NA,NA,NA,"incongruent","right","TRUE",NA,NA,NA,NA,NA,NA
"418","flanker_test","37","image-keyboard-response","210","7552055","0.0-6.0-17.0-0.2","1","2020-1-6 19:44:43","LION",NA,NA,NA,NA,NA,"incongruent","left","TRUE",NA,NA,NA,NA,NA,NA
"388","flanker_test","37","image-keyboard-response","211","7552787","0.0-6.0-17.0-0.3","1","2020-1-6 19:44:43","LION",NA,NA,NA,NA,NA,"congruent","left","TRUE",NA,NA,NA,NA,NA,NA
"24742","sort_trial",NA,"free-sort","212","7577933","0.0-6.0-18.0","1","2020-1-6 19:44:43","LION",NA,NA,NA,NA,NA,NA,NA,NA,"[{""cat"":1,""src"":15,""x"":8,""y"":120},{""cat"":1,""src"":10,""x"":70,""y"":483},{""cat"":1,""src"":13,""x"":35,""y"":80},{""cat"":25,""src"":17,""x"":73,""y"":312},{""cat"":25,""src"":3,""x"":80,""y"":267},{""cat"":25,""src"":13,""x"":11,""y"":383},{""cat"":19,""src"":4,""x"":46,""y"":427},{""cat"":19,""src"":2,""x"":75,""y"":209},{""cat"":19,""src"":6,""x"":53,""y"":22}]","[{""cat"":""25"",""src"":""13"",""x"":0,""y"":0},{""cat"":""19"",""src"":""4"",""x"":0,""y"":0},{""cat"":""1"",""src"":""10"",""x"":0,""y"":0},{""cat"":""25"",""src"":""3"",""x"":0,""y"":0},{""cat"":""1"",""src"":""15"",""x"":0,""y"":0},{""cat"":""1"",""src"":""13"",""x"":0,""y"":0},{""cat"":""19"",""src"":""2"",""x"":0,""y"":0},{""cat"":""19"",""src"":""6"",""x"":0,""y"":0},{""cat"":""25"",""src"":""17"",""x"":0,""y"":0}]","[{""cat"":25,""src"":13,""loc"":7},{""cat"":19,""src"":4,""loc"":6},{""cat"":1,""src"":10,""loc"":8},{""cat"":25,""src"":3,""loc"":2},{""cat"":1,""src"":15,""loc"":4},{""cat"":1,""src"":13,""loc"":3},{""cat"":19,""src"":2,""loc"":5},{""cat"":19,""src"":6,""loc"":0},{""cat"":25,""src"":17,""loc"":1}]","3","19,25,25,1,1,19,19,25,1,6,17,3,13,15,2,4,13,10,0,1,2,3,4,5,6,7,8,7,8,3,5,4,6,1,0,2",NA
"1317","sort_feedback","32","html-keyboard-response","213","7579251","0.0-6.0-19.0","1","2020-1-6 19:44:43","LION",NA,NA,NA,NA,NA,NA,NA,NA,NA,NA,NA,NA,NA,NA
"19929","setup4",NA,"animation","214","7599182","0.0-6.0-20.0","1","2020-1-6 19:44:43","LION",NA,NA,"[{""cat"":15,""src"":19,""loc"":8},{""cat"":15,""src"":14,""loc"":0},{""cat"":15,""src"":3,""loc"":3},{""cat"":30,""src"":14,""loc"":2},{""cat"":30,""src"":11,""loc"":6},{""cat"":30,""src"":15,""loc"":4},{""cat"":6,""src"":16,""loc"":1},{""cat"":6,""src"":18,""loc"":7},{""cat"":6,""src"":3,""loc"":5}]","4","1102,1103,1103,1101,1105,1102,1104,1102,1104,10003",NA,NA,NA,NA,NA,NA,NA,NA,NA
"2798","flanker_instructions","39","html-keyboard-response","215","7601981","0.0-6.0-21.0","1","2020-1-6 19:44:43","LION",NA,NA,NA,NA,NA,NA,NA,NA,NA,NA,NA,NA,NA,NA
"662","flanker_test","37","image-keyboard-response","216","7603649","0.0-6.0-22.0-0.0","1","2020-1-6 19:44:43","LION",NA,NA,NA,NA,NA,"incongruent","left","TRUE",NA,NA,NA,NA,NA,NA
"458","flanker_test","39","image-keyboard-response","217","7605032","0.0-6.0-22.0-0.1","1","2020-1-6 19:44:43","LION",NA,NA,NA,NA,NA,"congruent","right","TRUE",NA,NA,NA,NA,NA,NA
"404","flanker_test","37","image-keyboard-response","218","7606192","0.0-6.0-22.0-0.2","1","2020-1-6 19:44:43","LION",NA,NA,NA,NA,NA,"congruent","left","TRUE",NA,NA,NA,NA,NA,NA
"494","flanker_test","39","image-keyboard-response","219","7607116","0.0-6.0-22.0-0.3","1","2020-1-6 19:44:43","LION",NA,NA,NA,NA,NA,"incongruent","right","TRUE",NA,NA,NA,NA,NA,NA
"22084","sort_trial",NA,"free-sort","220","7630080","0.0-6.0-23.0","1","2020-1-6 19:44:43","LION",NA,NA,NA,NA,NA,NA,NA,NA,"[{""cat"":15,""src"":19,""x"":41,""y"":448},{""cat"":15,""src"":14,""x"":3,""y"":28},{""cat"":15,""src"":3,""x"":74,""y"":129},{""cat"":30,""src"":14,""x"":23,""y"":260},{""cat"":30,""src"":11,""x"":53,""y"":383},{""cat"":30,""src"":15,""x"":83,""y"":501},{""cat"":6,""src"":16,""x"":75,""y"":72},{""cat"":6,""src"":18,""x"":45,""y"":183},{""cat"":6,""src"":3,""x"":5,""y"":325}]","[{""cat"":""6"",""src"":""18"",""x"":0,""y"":0},{""cat"":""30"",""src"":""11"",""x"":0,""y"":0},{""cat"":""15"",""src"":""19"",""x"":0,""y"":0},{""cat"":""30"",""src"":""15"",""x"":0,""y"":0},{""cat"":""6"",""src"":""3"",""x"":0,""y"":0},{""cat"":""15"",""src"":""3"",""x"":0,""y"":0},{""cat"":""6"",""src"":""16"",""x"":0,""y"":0},{""cat"":""15"",""src"":""14"",""x"":0,""y"":0},{""cat"":""30"",""src"":""14"",""x"":0,""y"":0}]","[{""cat"":6,""src"":18,""loc"":7},{""cat"":30,""src"":11,""loc"":6},{""cat"":15,""src"":19,""loc"":8},{""cat"":30,""src"":15,""loc"":4},{""cat"":6,""src"":3,""loc"":5},{""cat"":15,""src"":3,""loc"":3},{""cat"":6,""src"":16,""loc"":0},{""cat"":15,""src"":14,""loc"":2},{""cat"":30,""src"":14,""loc"":1}]","6","6,30,15,15,30,6,30,6,15,16,14,14,3,15,3,11,18,19,0,1,2,3,4,5,6,7,8,6,8,7,5,3,4,1,0,2",NA
"906","sort_feedback","32","html-keyboard-response","221","7630989","0.0-6.0-24.0","1","2020-1-6 19:44:43","LION",NA,NA,NA,NA,NA,NA,NA,NA,NA,NA,NA,NA,NA,NA
"19929","setup2",NA,"animation","222","7650918","0.0-6.0-25.0","1","2020-1-6 19:44:43","LION",NA,NA,"[{""cat"":28,""src"":6,""loc"":2},{""cat"":20,""src"":6,""loc"":0},{""cat"":19,""src"":11,""loc"":1},{""cat"":28,""src"":4,""loc"":6},{""cat"":19,""src"":16,""loc"":7},{""cat"":20,""src"":14,""loc"":8},{""cat"":28,""src"":13,""loc"":4},{""cat"":19,""src"":14,""loc"":3},{""cat"":20,""src"":1,""loc"":5}]","2","1104,1101,1105,1101,1102,1104,1103,1103,1103,10003",NA,NA,NA,NA,NA,NA,NA,NA,NA
"1642","flanker_instructions","37","html-keyboard-response","223","7652562","0.0-6.0-26.0","1","2020-1-6 19:44:43","LION",NA,NA,NA,NA,NA,NA,NA,NA,NA,NA,NA,NA,NA,NA
NA,"flanker_test",NA,"image-keyboard-response","224","7654469","0.0-6.0-27.0-0.0","1","2020-1-6 19:44:43","LION",NA,NA,NA,NA,NA,"congruent","right","FALSE",NA,NA,NA,NA,NA,NA
"456","flanker_test","37","image-keyboard-response","225","7655282","0.0-6.0-27.0-0.1","1","2020-1-6 19:44:43","LION",NA,NA,NA,NA,NA,"congruent","left","TRUE",NA,NA,NA,NA,NA,NA
NA,"flanker_test",NA,"image-keyboard-response","226","7656845","0.0-6.0-27.0-0.2","1","2020-1-6 19:44:43","LION",NA,NA,NA,NA,NA,"incongruent","left","FALSE",NA,NA,NA,NA,NA,NA
"434","flanker_test","39","image-keyboard-response","227","7658182","0.0-6.0-27.0-0.3","1","2020-1-6 19:44:43","LION",NA,NA,NA,NA,NA,"incongruent","right","TRUE",NA,NA,NA,NA,NA,NA
"24350","sort_trial",NA,"free-sort","228","7683018","0.0-6.0-28.0","1","2020-1-6 19:44:43","LION",NA,NA,NA,NA,NA,NA,NA,NA,"[{""cat"":28,""src"":6,""x"":10,""y"":508},{""cat"":20,""src"":6,""x"":26,""y"":300},{""cat"":19,""src"":11,""x"":82,""y"":379},{""cat"":28,""src"":4,""x"":64,""y"":81},{""cat"":19,""src"":16,""x"":25,""y"":246},{""cat"":20,""src"":14,""x"":43,""y"":11},{""cat"":28,""src"":13,""x"":18,""y"":440},{""cat"":19,""src"":14,""x"":57,""y"":187},{""cat"":20,""src"":1,""x"":35,""y"":133}]","[{""cat"":""19"",""src"":""16"",""x"":0,""y"":0},{""cat"":""28"",""src"":""4"",""x"":0,""y"":0},{""cat"":""20"",""src"":""14"",""x"":0,""y"":0},{""cat"":""19"",""src"":""11"",""x"":0,""y"":0},{""cat"":""20"",""src"":""6"",""x"":0,""y"":0},{""cat"":""28"",""src"":""6"",""x"":0,""y"":0},{""cat"":""20"",""src"":""1"",""x"":0,""y"":0},{""cat"":""28"",""src"":""13"",""x"":0,""y"":0},{""cat"":""19"",""src"":""14"",""x"":0,""y"":0}]","[{""cat"":19,""src"":16,""loc"":7},{""cat"":28,""src"":4,""loc"":6},{""cat"":20,""src"":14,""loc"":8},{""cat"":19,""src"":11,""loc"":1},{""cat"":20,""src"":6,""loc"":0},{""cat"":28,""src"":6,""loc"":2},{""cat"":20,""src"":1,""loc"":5},{""cat"":28,""src"":13,""loc"":4},{""cat"":19,""src"":14,""loc"":3}]","9","20,19,28,19,28,20,28,19,20,6,11,6,14,13,1,4,16,14,0,1,2,3,4,5,6,7,8,4,3,5,8,7,6,1,0,2",NA
"1725","sort_feedback","32","html-keyboard-response","229","7684744","0.0-6.0-29.0","1","2020-1-6 19:44:43","LION",NA,NA,NA,NA,NA,NA,NA,NA,NA,NA,NA,NA,NA,NA
"19932","setup5",NA,"animation","230","7704677","0.0-6.0-30.0","1","2020-1-6 19:44:43","LION",NA,NA,"[{""cat"":31,""src"":2,""loc"":0},{""cat"":8,""src"":8,""loc"":4},{""cat"":28,""src"":19,""loc"":6},{""cat"":28,""src"":11,""loc"":2},{""cat"":8,""src"":0,""loc"":7},{""cat"":31,""src"":14,""loc"":5},{""cat"":31,""src"":17,""loc"":8},{""cat"":28,""src"":2,""loc"":3},{""cat"":8,""src"":3,""loc"":1}]","5","1102,1104,1101,1105,1102,1105,1101,1105,1101,10006",NA,NA,NA,NA,NA,NA,NA,NA,NA
"1451","flanker_instructions","39","html-keyboard-response","231","7706129","0.0-6.0-31.0","1","2020-1-6 19:44:43","LION",NA,NA,NA,NA,NA,NA,NA,NA,NA,NA,NA,NA,NA,NA
"634","flanker_test","37","image-keyboard-response","232","7707770","0.0-6.0-32.0-0.0","1","2020-1-6 19:44:43","LION",NA,NA,NA,NA,NA,"congruent","left","TRUE",NA,NA,NA,NA,NA,NA
"494","flanker_test","39","image-keyboard-response","233","7708752","0.0-6.0-32.0-0.1","1","2020-1-6 19:44:43","LION",NA,NA,NA,NA,NA,"congruent","right","TRUE",NA,NA,NA,NA,NA,NA
"530","flanker_test","39","image-keyboard-response","234","7710224","0.0-6.0-32.0-0.2","1","2020-1-6 19:44:43","LION",NA,NA,NA,NA,NA,"incongruent","right","TRUE",NA,NA,NA,NA,NA,NA
"711","flanker_test","37","image-keyboard-response","235","7712029","0.0-6.0-32.0-0.3","1","2020-1-6 19:44:43","LION",NA,NA,NA,NA,NA,"incongruent","left","TRUE",NA,NA,NA,NA,NA,NA
"25948","sort_trial",NA,"free-sort","236","7739152","0.0-6.0-33.0","1","2020-1-6 19:44:43","LION",NA,NA,NA,NA,NA,NA,NA,NA,"[{""cat"":31,""src"":2,""x"":21,""y"":4},{""cat"":8,""src"":8,""x"":4,""y"":134},{""cat"":28,""src"":19,""x"":74,""y"":303},{""cat"":28,""src"":11,""x"":41,""y"":386},{""cat"":8,""src"":0,""x"":56,""y"":429},{""cat"":31,""src"":14,""x"":7,""y"":490},{""cat"":31,""src"":17,""x"":34,""y"":87},{""cat"":28,""src"":2,""x"":25,""y"":265},{""cat"":8,""src"":3,""x"":37,""y"":208}]","[{""cat"":""28"",""src"":""19"",""x"":0,""y"":0},{""cat"":""31"",""src"":""17"",""x"":520,""y"":348},{""cat"":""31"",""src"":""17"",""x"":0,""y"":0},{""cat"":""8"",""src"":""0"",""x"":0,""y"":0},{""cat"":""28"",""src"":""11"",""x"":0,""y"":0},{""cat"":""8"",""src"":""3"",""x"":0,""y"":0},{""cat"":""8"",""src"":""8"",""x"":0,""y"":0},{""cat"":""28"",""src"":""2"",""x"":0,""y"":0},{""cat"":""31"",""src"":""14"",""x"":0,""y"":0},{""cat"":""31"",""src"":""2"",""x"":0,""y"":0}]","[{""cat"":28,""src"":19,""loc"":6},{""cat"":31,""src"":17,""loc"":8},{""cat"":8,""src"":0,""loc"":7},{""cat"":28,""src"":11,""loc"":2},{""cat"":8,""src"":3,""loc"":1},{""cat"":8,""src"":8,""loc"":0},{""cat"":28,""src"":2,""loc"":3},{""cat"":31,""src"":14,""loc"":5},{""cat"":31,""src"":2,""loc"":4}]","7","8,8,28,28,31,31,28,8,31,8,3,11,2,2,14,19,0,17,0,1,2,3,4,5,6,7,8,5,4,3,6,8,7,0,2,1",NA
"931","sort_feedback","32","html-keyboard-response","237","7740084","0.0-6.0-34.0","1","2020-1-6 19:44:43","LION",NA,NA,NA,NA,NA,NA,NA,NA,NA,NA,NA,NA,NA,NA
"19928","setup1",NA,"animation","238","7760013","0.0-6.0-35.0","1","2020-1-6 19:44:43","LION",NA,NA,"[{""cat"":22,""src"":6,""loc"":3},{""cat"":22,""src"":17,""loc"":4},{""cat"":22,""src"":16,""loc"":5},{""cat"":28,""src"":19,""loc"":0},{""cat"":28,""src"":11,""loc"":2},{""cat"":28,""src"":15,""loc"":1},{""cat"":29,""src"":4,""loc"":7},{""cat"":29,""src"":6,""loc"":6},{""cat"":29,""src"":9,""loc"":8}]","1","1105,1102,1104,1102,1104,1102,1105,1102,1101,10000",NA,NA,NA,NA,NA,NA,NA,NA,NA
"391","flanker_instructions","39","html-keyboard-response","239","7760405","0.0-6.0-36.0","1","2020-1-6 19:44:43","LION",NA,NA,NA,NA,NA,NA,NA,NA,NA,NA,NA,NA,NA,NA
"539","flanker_test","37","image-keyboard-response","240","7761951","0.0-6.0-37.0-0.0","1","2020-1-6 19:44:43","LION",NA,NA,NA,NA,NA,"incongruent","left","TRUE",NA,NA,NA,NA,NA,NA
"484","flanker_test","39","image-keyboard-response","241","7763535","0.0-6.0-37.0-0.1","1","2020-1-6 19:44:43","LION",NA,NA,NA,NA,NA,"incongruent","right","TRUE",NA,NA,NA,NA,NA,NA
"357","flanker_test","37","image-keyboard-response","242","7764614","0.0-6.0-37.0-0.2","1","2020-1-6 19:44:43","LION",NA,NA,NA,NA,NA,"congruent","left","TRUE",NA,NA,NA,NA,NA,NA
"368","flanker_test","39","image-keyboard-response","243","7765512","0.0-6.0-37.0-0.3","1","2020-1-6 19:44:43","LION",NA,NA,NA,NA,NA,"congruent","right","TRUE",NA,NA,NA,NA,NA,NA
"22730","sort_trial",NA,"free-sort","244","7789064","0.0-6.0-38.0","1","2020-1-6 19:44:43","LION",NA,NA,NA,NA,NA,NA,NA,NA,"[{""cat"":22,""src"":6,""x"":44,""y"":481},{""cat"":22,""src"":17,""x"":71,""y"":190},{""cat"":22,""src"":16,""x"":82,""y"":122},{""cat"":28,""src"":19,""x"":2,""y"":63},{""cat"":28,""src"":11,""x"":68,""y"":245},{""cat"":28,""src"":15,""x"":69,""y"":26},{""cat"":29,""src"":4,""x"":38,""y"":428},{""cat"":29,""src"":6,""x"":24,""y"":364},{""cat"":29,""src"":9,""x"":48,""y"":324}]","[{""cat"":""29"",""src"":""4"",""x"":0,""y"":0},{""cat"":""29"",""src"":""6"",""x"":0,""y"":0},{""cat"":""29"",""src"":""9"",""x"":0,""y"":0},{""cat"":""28"",""src"":""11"",""x"":0,""y"":0},{""cat"":""28"",""src"":""15"",""x"":0,""y"":0},{""cat"":""22"",""src"":""16"",""x"":308,""y"":121},{""cat"":""22"",""src"":""17"",""x"":0,""y"":0},{""cat"":""22"",""src"":""16"",""x"":0,""y"":0},{""cat"":""28"",""src"":""19"",""x"":0,""y"":0},{""cat"":""22"",""src"":""6"",""x"":0,""y"":0}]","[{""cat"":29,""src"":4,""loc"":7},{""cat"":29,""src"":6,""loc"":6},{""cat"":29,""src"":9,""loc"":8},{""cat"":28,""src"":11,""loc"":2},{""cat"":28,""src"":15,""loc"":1},{""cat"":22,""src"":17,""loc"":0},{""cat"":22,""src"":16,""loc"":5},{""cat"":28,""src"":19,""loc"":3},{""cat"":22,""src"":6,""loc"":4}]","6","22,28,28,28,22,22,29,29,29,17,15,11,19,6,16,6,4,9,0,1,2,3,4,5,6,7,8,5,4,3,7,8,6,1,0,2",NA
"1191","sort_feedback","32","html-keyboard-response","245","7790257","0.0-6.0-39.0","1","2020-1-6 19:44:43","LION",NA,NA,NA,NA,NA,NA,NA,NA,NA,NA,NA,NA,NA,NA
"19933","setup4",NA,"animation","246","7810191","0.0-6.0-40.0","1","2020-1-6 19:44:43","LION",NA,NA,"[{""cat"":12,""src"":3,""loc"":0},{""cat"":12,""src"":0,""loc"":4},{""cat"":12,""src"":1,""loc"":6},{""cat"":8,""src"":19,""loc"":3},{""cat"":8,""src"":0,""loc"":8},{""cat"":8,""src"":7,""loc"":1},{""cat"":22,""src"":15,""loc"":5},{""cat"":22,""src"":12,""loc"":2},{""cat"":22,""src"":5,""loc"":7}]","4","1107,1102,1104,1102,1104,1102,1102,1103,1101,10006",NA,NA,NA,NA,NA,NA,NA,NA,NA
"2420","flanker_instructions","39","html-keyboard-response","247","7812613","0.0-6.0-41.0","1","2020-1-6 19:44:43","LION",NA,NA,NA,NA,NA,NA,NA,NA,NA,NA,NA,NA,NA,NA
NA,"flanker_test",NA,"image-keyboard-response","248","7814523","0.0-6.0-42.0-0.0","1","2020-1-6 19:44:43","LION",NA,NA,NA,NA,NA,"incongruent","right","FALSE",NA,NA,NA,NA,NA,NA
NA,"flanker_test",NA,"image-keyboard-response","249","7816519","0.0-6.0-42.0-0.1","1","2020-1-6 19:44:43","LION",NA,NA,NA,NA,NA,"incongruent","left","FALSE",NA,NA,NA,NA,NA,NA
"369","flanker_test","37","image-keyboard-response","250","7817614","0.0-6.0-42.0-0.2","1","2020-1-6 19:44:43","LION",NA,NA,NA,NA,NA,"congruent","right","FALSE",NA,NA,NA,NA,NA,NA
"509","flanker_test","37","image-keyboard-response","251","7819036","0.0-6.0-42.0-0.3","1","2020-1-6 19:44:43","LION",NA,NA,NA,NA,NA,"congruent","left","TRUE",NA,NA,NA,NA,NA,NA
"24193","sort_trial",NA,"free-sort","252","7843875","0.0-6.0-43.0","1","2020-1-6 19:44:43","LION",NA,NA,NA,NA,NA,NA,NA,NA,"[{""cat"":12,""src"":3,""x"":72,""y"":186},{""cat"":12,""src"":0,""x"":0,""y"":123},{""cat"":12,""src"":1,""x"":4,""y"":480},{""cat"":8,""src"":19,""x"":50,""y"":378},{""cat"":8,""src"":0,""x"":81,""y"":13},{""cat"":8,""src"":7,""x"":24,""y"":428},{""cat"":22,""src"":15,""x"":48,""y"":71},{""cat"":22,""src"":12,""x"":52,""y"":250},{""cat"":22,""src"":5,""x"":6,""y"":299}]","[{""cat"":""22"",""src"":""5"",""x"":0,""y"":0},{""cat"":""12"",""src"":""0"",""x"":0,""y"":0},{""cat"":""12"",""src"":""1"",""x"":0,""y"":0},{""cat"":""22"",""src"":""12"",""x"":0,""y"":0},{""cat"":""12"",""src"":""3"",""x"":0,""y"":0},{""cat"":""8"",""src"":""7"",""x"":0,""y"":0},{""cat"":""8"",""src"":""19"",""x"":0,""y"":0},{""cat"":""8"",""src"":""0"",""x"":0,""y"":0},{""cat"":""22"",""src"":""15"",""x"":0,""y"":0}]","[{""cat"":22,""src"":5,""loc"":7},{""cat"":12,""src"":0,""loc"":8},{""cat"":12,""src"":1,""loc"":6},{""cat"":22,""src"":12,""loc"":2},{""cat"":12,""src"":3,""loc"":0},{""cat"":8,""src"":7,""loc"":1},{""cat"":8,""src"":19,""loc"":5},{""cat"":8,""src"":0,""loc"":4},{""cat"":22,""src"":15,""loc"":3}]","5","12,8,22,22,8,8,12,22,12,3,7,12,15,0,19,1,5,0,0,1,2,3,4,5,6,7,8,4,5,3,8,7,6,2,0,1",NA
"1042","sort_feedback","32","html-keyboard-response","253","7844920","0.0-6.0-44.0","1","2020-1-6 19:44:43","LION",NA,NA,NA,NA,NA,NA,NA,NA,NA,NA,NA,NA,NA,NA
"19933","setup3",NA,"animation","254","7864853","0.0-6.0-45.0","1","2020-1-6 19:44:43","LION",NA,NA,"[{""cat"":18,""src"":11,""loc"":1},{""cat"":8,""src"":7,""loc"":8},{""cat"":15,""src"":15,""loc"":4},{""cat"":8,""src"":1,""loc"":6},{""cat"":18,""src"":10,""loc"":2},{""cat"":15,""src"":17,""loc"":5},{""cat"":8,""src"":5,""loc"":7},{""cat"":15,""src"":12,""loc"":3},{""cat"":18,""src"":15,""loc"":0}]","3","1106,1102,1101,1105,1101,1101,1102,1105,1104,10006",NA,NA,NA,NA,NA,NA,NA,NA,NA
"76","flanker_instructions","39","html-keyboard-response","255","7864931","0.0-6.0-46.0","1","2020-1-6 19:44:43","LION",NA,NA,NA,NA,NA,NA,NA,NA,NA,NA,NA,NA,NA,NA
"442","flanker_test","37","image-keyboard-response","256","7866380","0.0-6.0-47.0-0.0","1","2020-1-6 19:44:43","LION",NA,NA,NA,NA,NA,"congruent","left","TRUE",NA,NA,NA,NA,NA,NA
"340","flanker_test","39","image-keyboard-response","257","7867195","0.0-6.0-47.0-0.1","1","2020-1-6 19:44:43","LION",NA,NA,NA,NA,NA,"incongruent","right","TRUE",NA,NA,NA,NA,NA,NA
"507","flanker_test","37","image-keyboard-response","258","7868874","0.0-6.0-47.0-0.2","1","2020-1-6 19:44:43","LION",NA,NA,NA,NA,NA,"incongruent","left","TRUE",NA,NA,NA,NA,NA,NA
"397","flanker_test","39","image-keyboard-response","259","7870143","0.0-6.0-47.0-0.3","1","2020-1-6 19:44:43","LION",NA,NA,NA,NA,NA,"congruent","right","TRUE",NA,NA,NA,NA,NA,NA
"28781","sort_trial",NA,"free-sort","260","7899826","0.0-6.0-48.0","1","2020-1-6 19:44:43","LION",NA,NA,NA,NA,NA,NA,NA,NA,"[{""cat"":18,""src"":11,""x"":7,""y"":251},{""cat"":8,""src"":7,""x"":15,""y"":205},{""cat"":15,""src"":15,""x"":77,""y"":490},{""cat"":8,""src"":1,""x"":51,""y"":316},{""cat"":18,""src"":10,""x"":78,""y"":370},{""cat"":15,""src"":17,""x"":35,""y"":28},{""cat"":8,""src"":5,""x"":49,""y"":442},{""cat"":15,""src"":12,""x"":13,""y"":76},{""cat"":18,""src"":15,""x"":6,""y"":121}]","[{""cat"":""8"",""src"":""5"",""x"":0,""y"":0},{""cat"":""18"",""src"":""10"",""x"":0,""y"":0},{""cat"":""8"",""src"":""7"",""x"":0,""y"":0},{""cat"":""8"",""src"":""1"",""x"":0,""y"":0},{""cat"":""18"",""src"":""11"",""x"":0,""y"":0},{""cat"":""18"",""src"":""15"",""x"":0,""y"":0},{""cat"":""15"",""src"":""12"",""x"":0,""y"":0},{""cat"":""15"",""src"":""17"",""x"":0,""y"":0},{""cat"":""15"",""src"":""15"",""x"":0,""y"":0}]","[{""cat"":8,""src"":5,""loc"":6},{""cat"":18,""src"":10,""loc"":2},{""cat"":8,""src"":7,""loc"":8},{""cat"":8,""src"":1,""loc"":7},{""cat"":18,""src"":11,""loc"":1},{""cat"":18,""src"":15,""loc"":0},{""cat"":15,""src"":12,""loc"":3},{""cat"":15,""src"":17,""loc"":5},{""cat"":15,""src"":15,""loc"":4}]","7","18,18,18,15,15,15,8,8,8,15,11,10,12,15,17,5,1,7,0,1,2,3,4,5,6,7,8,5,4,1,6,8,7,0,3,2",NA
"1203","sort_feedback","32","html-keyboard-response","261","7901031","0.0-6.0-49.0","1","2020-1-6 19:44:43","LION",NA,NA,NA,NA,NA,NA,NA,NA,NA,NA,NA,NA,NA,NA
"3680","demographics",NA,"html-button-response","262","7904713","0.0-7.0-0.0","1","2020-1-6 19:44:43","LION","0",NA,NA,NA,NA,NA,NA,NA,NA,NA,NA,NA,NA,NA
"8088","workerID",NA,"survey-text","263","7912804","0.0-7.0-1.0","1","2020-1-6 19:44:43","LION",NA,NA,NA,NA,NA,NA,NA,NA,NA,NA,NA,NA,NA,"{""Q0"":""A2UREJJH126LX9""}"
"28034","attn_check",NA,"survey-multi-choice","264","7940840","0.0-7.0-2.0","1","2020-1-6 19:44:43","LION",NA,NA,NA,NA,NA,NA,NA,NA,NA,NA,NA,NA,NA,"{""Q0"":""LION""}"
"5839","age",NA,"survey-text","265","7946683","0.0-7.0-3.0","1","2020-1-6 19:44:43","LION",NA,NA,NA,NA,NA,NA,NA,NA,NA,NA,NA,NA,NA,"{""Q0"":""22""}"
"1927","gender",NA,"survey-multi-choice","266","7948613","0.0-7.0-4.0","1","2020-1-6 19:44:43","LION",NA,NA,NA,NA,NA,NA,NA,NA,NA,NA,NA,NA,NA,"{""Q0"":""Male""}"
"1637","ethnic",NA,"survey-multi-choice","267","7950253","0.0-7.0-5.0","1","2020-1-6 19:44:43","LION",NA,NA,NA,NA,NA,NA,NA,NA,NA,NA,NA,NA,NA,"{""Q0"":""Not Hispanic or Latino""}"
"1887","race",NA,"survey-multi-select","268","7952145","0.0-7.0-6.0","1","2020-1-6 19:44:43","LION",NA,NA,NA,NA,NA,NA,NA,NA,NA,NA,NA,NA,NA,"{""Q0"":[""White""]}"
"2406","english",NA,"survey-multi-choice","269","7954553","0.0-7.0-7.0","1","2020-1-6 19:44:43","LION",NA,NA,NA,NA,NA,NA,NA,NA,NA,NA,NA,NA,NA,"{""Q0"":""Yes""}"
"2047","understand",NA,"survey-multi-choice","270","7956602","0.0-7.0-8.0","1","2020-1-6 19:44:43","LION",NA,NA,NA,NA,NA,NA,NA,NA,NA,NA,NA,NA,NA,"{""Q0"":""No""}"
"58958","strategies",NA,"survey-text","271","8015562","0.0-7.0-9.0","1","2020-1-6 19:44:43","LION",NA,NA,NA,NA,NA,NA,NA,NA,NA,NA,NA,NA,NA,"{""Q0"":""I generally tried to remember the whole scene by grouping words together in my mind so that i could recall them later ""}"
"16235","comments",NA,"survey-text","272","8031798","0.0-7.0-10.0","1","2020-1-6 19:44:43","LION",NA,NA,NA,NA,NA,NA,NA,NA,NA,NA,NA,NA,NA,"{""Q0"":""Thanks!""}"
"2337","study_end",NA,"html-button-response","273","8034136","0.0-8.0","1","2020-1-6 19:44:43","LION","0",NA,NA,NA,NA,NA,NA,NA,NA,NA,NA,NA,NA,NA
