"rt","stimulus","key_press","trial_type","trial_index","time_elapsed","internal_node_id","session","startTime","attn_word","button_pressed","view_history","animation_sequence","condition","time_sequence","stim_type","direction","correct","init_locations","moves","final_locations","sort_correct","finalLocations","responses"
"1794","welcome","32","html-keyboard-response","0","1799","0.0-0.0","1","2020-1-6 23:25:26","LION",NA,NA,NA,NA,NA,NA,NA,NA,NA,NA,NA,NA,NA,NA
"3373","consent",NA,"html-button-response","1","5174","0.0-1.0","1","2020-1-6 23:25:26","LION","0",NA,NA,NA,NA,NA,NA,NA,NA,NA,NA,NA,NA,NA
"7303","instructions",NA,"instructions","2","12479","0.0-2.0","1","2020-1-6 23:25:26","LION",NA,"[{""page_index"":0,""viewing_time"":1607},{""page_index"":1,""viewing_time"":1078},{""page_index"":2,""viewing_time"":971},{""page_index"":3,""viewing_time"":889},{""page_index"":4,""viewing_time"":789},{""page_index"":5,""viewing_time"":858},{""page_index"":6,""viewing_time"":1110}]",NA,NA,NA,NA,NA,NA,NA,NA,NA,NA,NA,NA
"19948","setup5",NA,"animation","3","32429","0.0-3.0-0.0","1","2020-1-6 23:25:26","LION",NA,NA,"[{""cat"":26,""src"":14,""loc"":1},{""cat"":1,""src"":4,""loc"":3},{""cat"":20,""src"":3,""loc"":8},{""cat"":1,""src"":1,""loc"":2},{""cat"":20,""src"":14,""loc"":4},{""cat"":26,""src"":2,""loc"":7},{""cat"":1,""src"":10,""loc"":6},{""cat"":26,""src"":12,""loc"":5},{""cat"":20,""src"":10,""loc"":0}]","5","1103,1105,1104,1101,1113,1105,1110,1105,1101,10001",NA,NA,NA,NA,NA,NA,NA,NA,NA
"675557","flanker_instructions","32","html-keyboard-response","4","707987","0.0-3.0-1.0","1","2020-1-6 23:25:26","LION",NA,NA,NA,NA,NA,NA,NA,NA,NA,NA,NA,NA,NA,NA
"444","flanker_test","39","image-keyboard-response","5","709436","0.0-3.0-2.0-0.0","1","2020-1-6 23:25:26","LION",NA,NA,NA,NA,NA,"congruent","right","TRUE",NA,NA,NA,NA,NA,NA
"392","flanker_test","37","image-keyboard-response","6","710945","0.0-3.0-2.0-0.1","1","2020-1-6 23:25:26","LION",NA,NA,NA,NA,NA,"congruent","left","TRUE",NA,NA,NA,NA,NA,NA
"527","flanker_test","39","image-keyboard-response","7","712504","0.0-3.0-2.0-0.2","1","2020-1-6 23:25:26","LION",NA,NA,NA,NA,NA,"incongruent","right","TRUE",NA,NA,NA,NA,NA,NA
"775","flanker_test","37","image-keyboard-response","8","713855","0.0-3.0-2.0-0.3","1","2020-1-6 23:25:26","LION",NA,NA,NA,NA,NA,"incongruent","left","TRUE",NA,NA,NA,NA,NA,NA
"23589","sort_trial",NA,"free-sort","9","737902","0.0-3.0-3.0","1","2020-1-6 23:25:26","LION",NA,NA,NA,NA,NA,NA,NA,NA,"[{""cat"":26,""src"":14,""x"":59,""y"":121},{""cat"":1,""src"":4,""x"":75,""y"":81},{""cat"":20,""src"":3,""x"":63,""y"":479},{""cat"":1,""src"":1,""x"":15,""y"":3},{""cat"":20,""src"":14,""x"":52,""y"":182},{""cat"":26,""src"":2,""x"":38,""y"":321},{""cat"":1,""src"":10,""x"":39,""y"":265},{""cat"":26,""src"":12,""x"":62,""y"":444},{""cat"":20,""src"":10,""x"":23,""y"":374}]","[{""cat"":""1"",""src"":""1"",""x"":0,""y"":0},{""cat"":""1"",""src"":""4"",""x"":0,""y"":0},{""cat"":""26"",""src"":""14"",""x"":0,""y"":0},{""cat"":""20"",""src"":""10"",""x"":0,""y"":0},{""cat"":""26"",""src"":""2"",""x"":0,""y"":0},{""cat"":""1"",""src"":""10"",""x"":0,""y"":0},{""cat"":""20"",""src"":""14"",""x"":0,""y"":0},{""cat"":""26"",""src"":""12"",""x"":0,""y"":0},{""cat"":""20"",""src"":""3"",""x"":0,""y"":0}]","[{""cat"":1,""src"":1,""loc"":1},{""cat"":1,""src"":4,""loc"":0},{""cat"":26,""src"":14,""loc"":8},{""cat"":20,""src"":10,""loc"":7},{""cat"":26,""src"":2,""loc"":2},{""cat"":1,""src"":10,""loc"":6},{""cat"":20,""src"":14,""loc"":3},{""cat"":26,""src"":12,""loc"":4},{""cat"":20,""src"":3,""loc"":5}]","1","1,1,26,20,26,20,1,20,26,4,1,2,14,12,3,10,10,14,0,1,2,3,4,5,6,7,8,1,0,4,6,7,8,5,3,2",NA
"3032","sort_feedback","32","html-keyboard-response","10","740936","0.0-3.0-4.0","1","2020-1-6 23:25:26","LION",NA,NA,NA,NA,NA,NA,NA,NA,NA,NA,NA,NA,NA,NA
"19947","setup5",NA,"animation","11","760885","0.0-3.0-5.0","1","2020-1-6 23:25:26","LION",NA,NA,"[{""cat"":4,""src"":9,""loc"":1},{""cat"":26,""src"":6,""loc"":4},{""cat"":3,""src"":18,""loc"":8},{""cat"":4,""src"":17,""loc"":7},{""cat"":26,""src"":8,""loc"":2},{""cat"":3,""src"":9,""loc"":5},{""cat"":4,""src"":18,""loc"":3},{""cat"":26,""src"":0,""loc"":6},{""cat"":3,""src"":7,""loc"":0}]","5","1102,1116,1101,1101,1114,1104,1103,1102,1104,10000",NA,NA,NA,NA,NA,NA,NA,NA,NA
"3121","flanker_instructions","39","html-keyboard-response","12","764008","0.0-3.0-6.0","1","2020-1-6 23:25:26","LION",NA,NA,NA,NA,NA,NA,NA,NA,NA,NA,NA,NA,NA,NA
NA,"flanker_test",NA,"image-keyboard-response","13","765932","0.0-3.0-7.0-0.0","1","2020-1-6 23:25:26","LION",NA,NA,NA,NA,NA,"incongruent","right","FALSE",NA,NA,NA,NA,NA,NA
"533","flanker_test","37","image-keyboard-response","14","767410","0.0-3.0-7.0-0.1","1","2020-1-6 23:25:26","LION",NA,NA,NA,NA,NA,"congruent","left","TRUE",NA,NA,NA,NA,NA,NA
"433","flanker_test","39","image-keyboard-response","15","768714","0.0-3.0-7.0-0.2","1","2020-1-6 23:25:26","LION",NA,NA,NA,NA,NA,"congruent","right","TRUE",NA,NA,NA,NA,NA,NA
"544","flanker_test","37","image-keyboard-response","16","770115","0.0-3.0-7.0-0.3","1","2020-1-6 23:25:26","LION",NA,NA,NA,NA,NA,"incongruent","left","TRUE",NA,NA,NA,NA,NA,NA
"32355","sort_trial",NA,"free-sort","17","802960","0.0-3.0-8.0","1","2020-1-6 23:25:26","LION",NA,NA,NA,NA,NA,NA,NA,NA,"[{""cat"":4,""src"":9,""x"":29,""y"":436},{""cat"":26,""src"":6,""x"":18,""y"":267},{""cat"":3,""src"":18,""x"":23,""y"":22},{""cat"":4,""src"":17,""x"":4,""y"":377},{""cat"":26,""src"":8,""x"":37,""y"":72},{""cat"":3,""src"":9,""x"":80,""y"":200},{""cat"":4,""src"":18,""x"":40,""y"":132},{""cat"":26,""src"":0,""x"":5,""y"":304},{""cat"":3,""src"":7,""x"":3,""y"":491}]","[{""cat"":""3"",""src"":""7"",""x"":0,""y"":0},{""cat"":""4"",""src"":""9"",""x"":0,""y"":0},{""cat"":""26"",""src"":""8"",""x"":0,""y"":0},{""cat"":""4"",""src"":""17"",""x"":0,""y"":0},{""cat"":""3"",""src"":""18"",""x"":0,""y"":0},{""cat"":""26"",""src"":""0"",""x"":0,""y"":0},{""cat"":""26"",""src"":""6"",""x"":0,""y"":0},{""cat"":""3"",""src"":""9"",""x"":0,""y"":0},{""cat"":""4"",""src"":""18"",""x"":0,""y"":0}]","[{""cat"":3,""src"":7,""loc"":0},{""cat"":4,""src"":9,""loc"":1},{""cat"":26,""src"":8,""loc"":2},{""cat"":4,""src"":17,""loc"":7},{""cat"":3,""src"":18,""loc"":8},{""cat"":26,""src"":0,""loc"":6},{""cat"":26,""src"":6,""loc"":5},{""cat"":3,""src"":9,""loc"":3},{""cat"":4,""src"":18,""loc"":4}]","6","3,4,26,3,4,26,26,4,3,7,9,8,9,18,6,0,17,18,0,1,2,3,4,5,6,7,8,0,1,2,7,8,6,5,3,4",NA
"2799","sort_feedback","32","html-keyboard-response","18","805761","0.0-3.0-9.0","1","2020-1-6 23:25:26","LION",NA,NA,NA,NA,NA,NA,NA,NA,NA,NA,NA,NA,NA,NA
"11672","finalInstructions",NA,"html-button-response","19","817434","0.0-4.0-0.0","1","2020-1-6 23:25:26","LION","0",NA,NA,NA,NA,NA,NA,NA,NA,NA,NA,NA,NA,NA
"20009","setup1",NA,"animation","20","837444","0.0-4.0-1.0","1","2020-1-6 23:25:26","LION",NA,NA,"[{""cat"":29,""src"":9,""loc"":7},{""cat"":29,""src"":4,""loc"":6},{""cat"":29,""src"":0,""loc"":8},{""cat"":23,""src"":14,""loc"":2},{""cat"":23,""src"":7,""loc"":1},{""cat"":23,""src"":8,""loc"":0},{""cat"":26,""src"":6,""loc"":4},{""cat"":26,""src"":12,""loc"":5},{""cat"":26,""src"":11,""loc"":3}]","1","1117,1104,1110,1112,1112,1116,1101,1111,1109,10017",NA,NA,NA,NA,NA,NA,NA,NA,NA
"2046","flanker_instructions","39","html-keyboard-response","21","839491","0.0-4.0-2.0","1","2020-1-6 23:25:26","LION",NA,NA,NA,NA,NA,NA,NA,NA,NA,NA,NA,NA,NA,NA
NA,"flanker_test",NA,"image-keyboard-response","22","841416","0.0-4.0-3.0-0.0","1","2020-1-6 23:25:26","LION",NA,NA,NA,NA,NA,"incongruent","right","FALSE",NA,NA,NA,NA,NA,NA
"725","flanker_test","37","image-keyboard-response","23","842458","0.0-4.0-3.0-0.1","1","2020-1-6 23:25:26","LION",NA,NA,NA,NA,NA,"incongruent","left","TRUE",NA,NA,NA,NA,NA,NA
"439","flanker_test","37","image-keyboard-response","24","843619","0.0-4.0-3.0-0.2","1","2020-1-6 23:25:26","LION",NA,NA,NA,NA,NA,"congruent","left","TRUE",NA,NA,NA,NA,NA,NA
"418","flanker_test","39","image-keyboard-response","25","844808","0.0-4.0-3.0-0.3","1","2020-1-6 23:25:26","LION",NA,NA,NA,NA,NA,"congruent","right","TRUE",NA,NA,NA,NA,NA,NA
"17170","sort_trial",NA,"free-sort","26","862462","0.0-4.0-4.0","1","2020-1-6 23:25:26","LION",NA,NA,NA,NA,NA,NA,NA,NA,"[{""cat"":29,""src"":9,""x"":20,""y"":384},{""cat"":29,""src"":4,""x"":39,""y"":315},{""cat"":29,""src"":0,""x"":29,""y"":448},{""cat"":23,""src"":14,""x"":79,""y"":483},{""cat"":23,""src"":7,""x"":73,""y"":147},{""cat"":23,""src"":8,""x"":20,""y"":196},{""cat"":26,""src"":6,""x"":82,""y"":243},{""cat"":26,""src"":12,""x"":2,""y"":80},{""cat"":26,""src"":11,""x"":13,""y"":24}]","[{""cat"":""23"",""src"":""7"",""x"":0,""y"":0},{""cat"":""23"",""src"":""8"",""x"":0,""y"":0},{""cat"":""26"",""src"":""6"",""x"":0,""y"":0},{""cat"":""29"",""src"":""9"",""x"":0,""y"":0},{""cat"":""29"",""src"":""4"",""x"":0,""y"":0},{""cat"":""29"",""src"":""0"",""x"":0,""y"":0},{""cat"":""23"",""src"":""14"",""x"":0,""y"":0},{""cat"":""26"",""src"":""12"",""x"":0,""y"":0},{""cat"":""26"",""src"":""11"",""x"":0,""y"":0}]","[{""cat"":23,""src"":7,""loc"":0},{""cat"":23,""src"":8,""loc"":6},{""cat"":26,""src"":6,""loc"":8},{""cat"":29,""src"":9,""loc"":7},{""cat"":29,""src"":4,""loc"":2},{""cat"":29,""src"":0,""loc"":5},{""cat"":23,""src"":14,""loc"":1},{""cat"":26,""src"":12,""loc"":3},{""cat"":26,""src"":11,""loc"":4}]","1","23,23,29,26,26,29,23,29,26,7,14,4,12,11,0,8,9,6,0,1,2,3,4,5,6,7,8,0,6,4,7,8,5,1,3,2",NA
"2209","sort_feedback","32","html-keyboard-response","27","864672","0.0-4.0-5.0","1","2020-1-6 23:25:26","LION",NA,NA,NA,NA,NA,NA,NA,NA,NA,NA,NA,NA,NA,NA
"19954","setup5",NA,"animation","28","884627","0.0-4.0-6.0","1","2020-1-6 23:25:26","LION",NA,NA,"[{""cat"":19,""src"":6,""loc"":5},{""cat"":27,""src"":8,""loc"":8},{""cat"":20,""src"":14,""loc"":0},{""cat"":20,""src"":10,""loc"":7},{""cat"":27,""src"":12,""loc"":4},{""cat"":19,""src"":10,""loc"":1},{""cat"":20,""src"":16,""loc"":3},{""cat"":27,""src"":4,""loc"":2},{""cat"":19,""src"":13,""loc"":6}]","5","1107,1110,1105,1105,1102,1102,1102,1103,1110,10008",NA,NA,NA,NA,NA,NA,NA,NA,NA
"10112","flanker_instructions","39","html-keyboard-response","29","894741","0.0-4.0-7.0","1","2020-1-6 23:25:26","LION",NA,NA,NA,NA,NA,NA,NA,NA,NA,NA,NA,NA,NA,NA
"782","flanker_test","39","image-keyboard-response","30","896529","0.0-4.0-8.0-0.0","1","2020-1-6 23:25:26","LION",NA,NA,NA,NA,NA,"incongruent","right","TRUE",NA,NA,NA,NA,NA,NA
"589","flanker_test","37","image-keyboard-response","31","898213","0.0-4.0-8.0-0.1","1","2020-1-6 23:25:26","LION",NA,NA,NA,NA,NA,"incongruent","left","TRUE",NA,NA,NA,NA,NA,NA
"531","flanker_test","39","image-keyboard-response","32","899859","0.0-4.0-8.0-0.2","1","2020-1-6 23:25:26","LION",NA,NA,NA,NA,NA,"congruent","right","TRUE",NA,NA,NA,NA,NA,NA
"826","flanker_test","37","image-keyboard-response","33","901021","0.0-4.0-8.0-0.3","1","2020-1-6 23:25:26","LION",NA,NA,NA,NA,NA,"congruent","left","TRUE",NA,NA,NA,NA,NA,NA
"16751","sort_trial",NA,"free-sort","34","918091","0.0-4.0-9.0","1","2020-1-6 23:25:26","LION",NA,NA,NA,NA,NA,NA,NA,NA,"[{""cat"":19,""src"":6,""x"":37,""y"":64},{""cat"":27,""src"":8,""x"":2,""y"":304},{""cat"":20,""src"":14,""x"":55,""y"":426},{""cat"":20,""src"":10,""x"":33,""y"":265},{""cat"":27,""src"":12,""x"":18,""y"":5},{""cat"":19,""src"":10,""x"":10,""y"":483},{""cat"":20,""src"":16,""x"":9,""y"":180},{""cat"":27,""src"":4,""x"":68,""y"":368},{""cat"":19,""src"":13,""x"":16,""y"":131}]","[{""cat"":""20"",""src"":""16"",""x"":0,""y"":0},{""cat"":""19"",""src"":""13"",""x"":0,""y"":0},{""cat"":""19"",""src"":""6"",""x"":0,""y"":0},{""cat"":""27"",""src"":""12"",""x"":0,""y"":0},{""cat"":""19"",""src"":""10"",""x"":0,""y"":0},{""cat"":""27"",""src"":""4"",""x"":0,""y"":0},{""cat"":""27"",""src"":""8"",""x"":0,""y"":0},{""cat"":""20"",""src"":""14"",""x"":0,""y"":0},{""cat"":""20"",""src"":""10"",""x"":0,""y"":0}]","[{""cat"":20,""src"":16,""loc"":0},{""cat"":19,""src"":13,""loc"":2},{""cat"":19,""src"":6,""loc"":1},{""cat"":27,""src"":12,""loc"":8},{""cat"":19,""src"":10,""loc"":5},{""cat"":27,""src"":4,""loc"":4},{""cat"":27,""src"":8,""loc"":7},{""cat"":20,""src"":14,""loc"":6},{""cat"":20,""src"":10,""loc"":3}]","0","20,19,19,20,27,19,20,27,27,16,6,13,10,4,10,14,8,12,0,1,2,3,4,5,6,7,8,0,2,1,8,5,4,7,6,3",NA
"12698","sort_feedback","39","html-keyboard-response","35","930790","0.0-4.0-10.0","1","2020-1-6 23:25:26","LION",NA,NA,NA,NA,NA,NA,NA,NA,NA,NA,NA,NA,NA,NA
"20384","setup2",NA,"animation","36","951175","0.0-4.0-11.0","1","2020-1-6 23:25:26","LION",NA,NA,"[{""cat"":33,""src"":0,""loc"":8},{""cat"":11,""src"":14,""loc"":6},{""cat"":9,""src"":1,""loc"":7},{""cat"":33,""src"":3,""loc"":3},{""cat"":11,""src"":13,""loc"":5},{""cat"":9,""src"":16,""loc"":4},{""cat"":11,""src"":15,""loc"":0},{""cat"":33,""src"":4,""loc"":1},{""cat"":9,""src"":19,""loc"":2}]","2","1110,1104,1112,1102,1103,1104,1104,1116,1115,10413",NA,NA,NA,NA,NA,NA,NA,NA,NA
"8619","flanker_instructions","39","html-keyboard-response","37","959795","0.0-4.0-12.0","1","2020-1-6 23:25:26","LION",NA,NA,NA,NA,NA,NA,NA,NA,NA,NA,NA,NA,NA,NA
NA,"flanker_test",NA,"image-keyboard-response","38","961715","0.0-4.0-13.0-0.0","1","2020-1-6 23:25:26","LION",NA,NA,NA,NA,NA,"incongruent","left","FALSE",NA,NA,NA,NA,NA,NA
"444","flanker_test","37","image-keyboard-response","39","963136","0.0-4.0-13.0-0.1","1","2020-1-6 23:25:26","LION",NA,NA,NA,NA,NA,"congruent","left","TRUE",NA,NA,NA,NA,NA,NA
"554","flanker_test","39","image-keyboard-response","40","964487","0.0-4.0-13.0-0.2","1","2020-1-6 23:25:26","LION",NA,NA,NA,NA,NA,"incongruent","right","TRUE",NA,NA,NA,NA,NA,NA
"412","flanker_test","39","image-keyboard-response","41","965738","0.0-4.0-13.0-0.3","1","2020-1-6 23:25:26","LION",NA,NA,NA,NA,NA,"congruent","right","TRUE",NA,NA,NA,NA,NA,NA
"23165","sort_trial",NA,"free-sort","42","989990","0.0-4.0-14.0","1","2020-1-6 23:25:26","LION",NA,NA,NA,NA,NA,NA,NA,NA,"[{""cat"":33,""src"":0,""x"":30,""y"":508},{""cat"":11,""src"":14,""x"":25,""y"":432},{""cat"":9,""src"":1,""x"":69,""y"":240},{""cat"":33,""src"":3,""x"":19,""y"":306},{""cat"":11,""src"":13,""x"":65,""y"":27},{""cat"":9,""src"":16,""x"":3,""y"":381},{""cat"":11,""src"":15,""x"":7,""y"":89},{""cat"":33,""src"":4,""x"":34,""y"":201},{""cat"":9,""src"":19,""x"":69,""y"":134}]","[{""cat"":""11"",""src"":""13"",""x"":0,""y"":0},{""cat"":""11"",""src"":""15"",""x"":0,""y"":0},{""cat"":""9"",""src"":""1"",""x"":0,""y"":0},{""cat"":""33"",""src"":""4"",""x"":275,""y"":400},{""cat"":""33"",""src"":""4"",""x"":0,""y"":0},{""cat"":""33"",""src"":""3"",""x"":0,""y"":0},{""cat"":""9"",""src"":""19"",""x"":0,""y"":0},{""cat"":""9"",""src"":""16"",""x"":0,""y"":0},{""cat"":""33"",""src"":""0"",""x"":0,""y"":0},{""cat"":""11"",""src"":""14"",""x"":0,""y"":0}]","[{""cat"":11,""src"":13,""loc"":1},{""cat"":11,""src"":15,""loc"":2},{""cat"":9,""src"":1,""loc"":0},{""cat"":33,""src"":4,""loc"":7},{""cat"":33,""src"":3,""loc"":3},{""cat"":9,""src"":19,""loc"":6},{""cat"":9,""src"":16,""loc"":8},{""cat"":33,""src"":0,""loc"":4},{""cat"":11,""src"":14,""loc"":5}]","1","9,11,11,33,33,11,9,33,9,1,13,15,3,0,14,19,4,16,0,1,2,3,4,5,6,7,8,2,0,1,4,7,8,5,3,6",NA
"1408","sort_feedback","32","html-keyboard-response","43","991399","0.0-4.0-15.0","1","2020-1-6 23:25:26","LION",NA,NA,NA,NA,NA,NA,NA,NA,NA,NA,NA,NA,NA,NA
"19978","setup4",NA,"animation","44","1011379","0.0-4.0-16.0","1","2020-1-6 23:25:26","LION",NA,NA,"[{""cat"":19,""src"":12,""loc"":5},{""cat"":19,""src"":0,""loc"":8},{""cat"":19,""src"":17,""loc"":0},{""cat"":27,""src"":10,""loc"":3},{""cat"":27,""src"":4,""loc"":7},{""cat"":27,""src"":16,""loc"":1},{""cat"":18,""src"":15,""loc"":6},{""cat"":18,""src"":8,""loc"":2},{""cat"":18,""src"":19,""loc"":4}]","4","1121,1110,1105,1105,1104,1107,1109,1102,1105,10010",NA,NA,NA,NA,NA,NA,NA,NA,NA
"57635","flanker_instructions","39","html-keyboard-response","45","1069016","0.0-4.0-17.0","1","2020-1-6 23:25:26","LION",NA,NA,NA,NA,NA,NA,NA,NA,NA,NA,NA,NA,NA,NA
"401","flanker_test","39","image-keyboard-response","46","1070431","0.0-4.0-18.0-0.0","1","2020-1-6 23:25:26","LION",NA,NA,NA,NA,NA,"congruent","right","TRUE",NA,NA,NA,NA,NA,NA
"410","flanker_test","39","image-keyboard-response","47","1071381","0.0-4.0-18.0-0.1","1","2020-1-6 23:25:26","LION",NA,NA,NA,NA,NA,"incongruent","left","FALSE",NA,NA,NA,NA,NA,NA
"318","flanker_test","37","image-keyboard-response","48","1072417","0.0-4.0-18.0-0.2","1","2020-1-6 23:25:26","LION",NA,NA,NA,NA,NA,"congruent","left","TRUE",NA,NA,NA,NA,NA,NA
"592","flanker_test","39","image-keyboard-response","49","1073532","0.0-4.0-18.0-0.3","1","2020-1-6 23:25:26","LION",NA,NA,NA,NA,NA,"incongruent","right","TRUE",NA,NA,NA,NA,NA,NA
"26138","sort_trial",NA,"free-sort","50","1100081","0.0-4.0-19.0","1","2020-1-6 23:25:26","LION",NA,NA,NA,NA,NA,NA,NA,NA,"[{""cat"":19,""src"":12,""x"":56,""y"":433},{""cat"":19,""src"":0,""x"":73,""y"":87},{""cat"":19,""src"":17,""x"":14,""y"":381},{""cat"":27,""src"":10,""x"":35,""y"":143},{""cat"":27,""src"":4,""x"":27,""y"":25},{""cat"":27,""src"":16,""x"":7,""y"":506},{""cat"":18,""src"":15,""x"":64,""y"":255},{""cat"":18,""src"":8,""x"":11,""y"":187},{""cat"":18,""src"":19,""x"":60,""y"":322}]","[{""cat"":""18"",""src"":""15"",""x"":0,""y"":0},{""cat"":""18"",""src"":""8"",""x"":0,""y"":0},{""cat"":""27"",""src"":""10"",""x"":0,""y"":0},{""cat"":""19"",""src"":""12"",""x"":0,""y"":0},{""cat"":""19"",""src"":""17"",""x"":0,""y"":0},{""cat"":""18"",""src"":""19"",""x"":0,""y"":0},{""cat"":""27"",""src"":""16"",""x"":0,""y"":0},{""cat"":""19"",""src"":""0"",""x"":0,""y"":0},{""cat"":""27"",""src"":""4"",""x"":0,""y"":0}]","[{""cat"":18,""src"":15,""loc"":2},{""cat"":18,""src"":8,""loc"":0},{""cat"":27,""src"":10,""loc"":1},{""cat"":19,""src"":12,""loc"":8},{""cat"":19,""src"":17,""loc"":3},{""cat"":18,""src"":19,""loc"":7},{""cat"":27,""src"":16,""loc"":5},{""cat"":19,""src"":0,""loc"":6},{""cat"":27,""src"":4,""loc"":4}]","0","18,27,18,19,27,27,19,18,19,8,10,15,17,4,16,0,19,12,0,1,2,3,4,5,6,7,8,1,2,0,4,8,6,7,5,3",NA
"1217","sort_feedback","32","html-keyboard-response","51","1101299","0.0-4.0-20.0","1","2020-1-6 23:25:26","LION",NA,NA,NA,NA,NA,NA,NA,NA,NA,NA,NA,NA,NA,NA
"26871","setup3",NA,"animation","52","1128171","0.0-4.0-21.0","1","2020-1-6 23:25:26","LION",NA,NA,"[{""cat"":5,""src"":17,""loc"":4},{""cat"":8,""src"":16,""loc"":2},{""cat"":6,""src"":14,""loc"":6},{""cat"":5,""src"":7,""loc"":5},{""cat"":6,""src"":19,""loc"":8},{""cat"":8,""src"":5,""loc"":0},{""cat"":8,""src"":10,""loc"":1},{""cat"":6,""src"":1,""loc"":7},{""cat"":5,""src"":12,""loc"":3}]","3","1102,1101,1668,2001,2035,1965,2000,1999,2000,10999",NA,NA,NA,NA,NA,NA,NA,NA,NA
"20755","flanker_instructions","39","html-keyboard-response","53","1148928","0.0-4.0-22.0","1","2020-1-6 23:25:26","LION",NA,NA,NA,NA,NA,NA,NA,NA,NA,NA,NA,NA,NA,NA
"584","flanker_test","37","image-keyboard-response","54","1150514","0.0-4.0-23.0-0.0","1","2020-1-6 23:25:26","LION",NA,NA,NA,NA,NA,"congruent","left","TRUE",NA,NA,NA,NA,NA,NA
"411","flanker_test","39","image-keyboard-response","55","1151935","0.0-4.0-23.0-0.1","1","2020-1-6 23:25:26","LION",NA,NA,NA,NA,NA,"congruent","right","TRUE",NA,NA,NA,NA,NA,NA
"733","flanker_test","37","image-keyboard-response","56","1153121","0.0-4.0-23.0-0.2","1","2020-1-6 23:25:26","LION",NA,NA,NA,NA,NA,"incongruent","left","TRUE",NA,NA,NA,NA,NA,NA
"686","flanker_test","39","image-keyboard-response","57","1154381","0.0-4.0-23.0-0.3","1","2020-1-6 23:25:26","LION",NA,NA,NA,NA,NA,"incongruent","right","TRUE",NA,NA,NA,NA,NA,NA
"23214","sort_trial",NA,"free-sort","58","1178310","0.0-4.0-24.0","1","2020-1-6 23:25:26","LION",NA,NA,NA,NA,NA,NA,NA,NA,"[{""cat"":5,""src"":17,""x"":71,""y"":439},{""cat"":8,""src"":16,""x"":69,""y"":121},{""cat"":6,""src"":14,""x"":62,""y"":383},{""cat"":5,""src"":7,""x"":19,""y"":484},{""cat"":6,""src"":19,""x"":61,""y"":63},{""cat"":8,""src"":5,""x"":55,""y"":190},{""cat"":8,""src"":10,""x"":4,""y"":23},{""cat"":6,""src"":1,""x"":80,""y"":260},{""cat"":5,""src"":12,""x"":48,""y"":311}]","[{""cat"":""6"",""src"":""14"",""x"":0,""y"":0},{""cat"":""5"",""src"":""12"",""x"":0,""y"":0},{""cat"":""6"",""src"":""1"",""x"":0,""y"":0},{""cat"":""6"",""src"":""19"",""x"":0,""y"":0},{""cat"":""8"",""src"":""16"",""x"":0,""y"":0},{""cat"":""8"",""src"":""5"",""x"":0,""y"":0},{""cat"":""8"",""src"":""10"",""x"":0,""y"":0},{""cat"":""5"",""src"":""17"",""x"":0,""y"":0},{""cat"":""5"",""src"":""7"",""x"":0,""y"":0}]","[{""cat"":6,""src"":14,""loc"":7},{""cat"":5,""src"":12,""loc"":2},{""cat"":6,""src"":1,""loc"":8},{""cat"":6,""src"":19,""loc"":1},{""cat"":8,""src"":16,""loc"":0},{""cat"":8,""src"":5,""loc"":5},{""cat"":8,""src"":10,""loc"":3},{""cat"":5,""src"":17,""loc"":4},{""cat"":5,""src"":7,""loc"":6}]","1","8,6,5,8,5,8,5,6,6,16,19,12,10,17,5,7,14,1,0,1,2,3,4,5,6,7,8,4,3,1,6,7,5,8,0,2",NA
"1493","sort_feedback","32","html-keyboard-response","59","1179804","0.0-4.0-25.0","1","2020-1-6 23:25:26","LION",NA,NA,NA,NA,NA,NA,NA,NA,NA,NA,NA,NA,NA,NA
"19946","setup2",NA,"animation","60","1199751","0.0-4.0-26.0","1","2020-1-6 23:25:26","LION",NA,NA,"[{""cat"":13,""src"":13,""loc"":2},{""cat"":21,""src"":2,""loc"":1},{""cat"":17,""src"":16,""loc"":0},{""cat"":17,""src"":7,""loc"":3},{""cat"":21,""src"":14,""loc"":4},{""cat"":13,""src"":6,""loc"":5},{""cat"":17,""src"":12,""loc"":6},{""cat"":21,""src"":0,""loc"":8},{""cat"":13,""src"":1,""loc"":7}]","2","1104,1101,1102,1101,1105,1103,1105,1101,1111,10013",NA,NA,NA,NA,NA,NA,NA,NA,NA
"6798","flanker_instructions","39","html-keyboard-response","61","1206551","0.0-4.0-27.0","1","2020-1-6 23:25:26","LION",NA,NA,NA,NA,NA,NA,NA,NA,NA,NA,NA,NA,NA,NA
"671","flanker_test","39","image-keyboard-response","62","1208236","0.0-4.0-28.0-0.0","1","2020-1-6 23:25:26","LION",NA,NA,NA,NA,NA,"incongruent","right","TRUE",NA,NA,NA,NA,NA,NA
"486","flanker_test","39","image-keyboard-response","63","1209830","0.0-4.0-28.0-0.1","1","2020-1-6 23:25:26","LION",NA,NA,NA,NA,NA,"incongruent","left","FALSE",NA,NA,NA,NA,NA,NA
"497","flanker_test","39","image-keyboard-response","64","1210906","0.0-4.0-28.0-0.2","1","2020-1-6 23:25:26","LION",NA,NA,NA,NA,NA,"congruent","right","TRUE",NA,NA,NA,NA,NA,NA
"429","flanker_test","37","image-keyboard-response","65","1212480","0.0-4.0-28.0-0.3","1","2020-1-6 23:25:26","LION",NA,NA,NA,NA,NA,"congruent","left","TRUE",NA,NA,NA,NA,NA,NA
"32057","sort_trial",NA,"free-sort","66","1244995","0.0-4.0-29.0","1","2020-1-6 23:25:26","LION",NA,NA,NA,NA,NA,NA,NA,NA,"[{""cat"":13,""src"":13,""x"":78,""y"":183},{""cat"":21,""src"":2,""x"":80,""y"":377},{""cat"":17,""src"":16,""x"":71,""y"":13},{""cat"":17,""src"":7,""x"":81,""y"":252},{""cat"":21,""src"":14,""x"":30,""y"":129},{""cat"":13,""src"":6,""x"":3,""y"":507},{""cat"":17,""src"":12,""x"":48,""y"":420},{""cat"":21,""src"":0,""x"":65,""y"":84},{""cat"":13,""src"":1,""x"":67,""y"":315}]","[{""cat"":""17"",""src"":""16"",""x"":0,""y"":0},{""cat"":""21"",""src"":""2"",""x"":0,""y"":0},{""cat"":""13"",""src"":""13"",""x"":0,""y"":0},{""cat"":""17"",""src"":""12"",""x"":0,""y"":0},{""cat"":""13"",""src"":""1"",""x"":0,""y"":0},{""cat"":""21"",""src"":""0"",""x"":0,""y"":0},{""cat"":""17"",""src"":""7"",""x"":0,""y"":0},{""cat"":""13"",""src"":""6"",""x"":0,""y"":0},{""cat"":""21"",""src"":""14"",""x"":0,""y"":0}]","[{""cat"":17,""src"":16,""loc"":0},{""cat"":21,""src"":2,""loc"":1},{""cat"":13,""src"":13,""loc"":2},{""cat"":17,""src"":12,""loc"":6},{""cat"":13,""src"":1,""loc"":7},{""cat"":21,""src"":0,""loc"":8},{""cat"":17,""src"":7,""loc"":3},{""cat"":13,""src"":6,""loc"":5},{""cat"":21,""src"":14,""loc"":4}]","9","17,21,13,17,21,13,17,13,21,16,2,13,7,14,6,12,1,0,0,1,2,3,4,5,6,7,8,0,1,2,6,8,7,3,4,5",NA
"2038","sort_feedback","32","html-keyboard-response","67","1247035","0.0-4.0-30.0","1","2020-1-6 23:25:26","LION",NA,NA,NA,NA,NA,NA,NA,NA,NA,NA,NA,NA,NA,NA
"25139","setup5",NA,"animation","68","1272174","0.0-4.0-31.0","1","2020-1-6 23:25:26","LION",NA,NA,"[{""cat"":12,""src"":15,""loc"":5},{""cat"":28,""src"":15,""loc"":1},{""cat"":31,""src"":3,""loc"":8},{""cat"":31,""src"":13,""loc"":3},{""cat"":28,""src"":2,""loc"":6},{""cat"":12,""src"":16,""loc"":0},{""cat"":28,""src"":11,""loc"":4},{""cat"":31,""src"":16,""loc"":2},{""cat"":12,""src"":14,""loc"":7}]","5","1103,1100,1105,1830,2001,1999,1295,1713,1997,10996",NA,NA,NA,NA,NA,NA,NA,NA,NA
"16487","flanker_instructions","39","html-keyboard-response","69","1288664","0.0-4.0-32.0","1","2020-1-6 23:25:26","LION",NA,NA,NA,NA,NA,NA,NA,NA,NA,NA,NA,NA,NA,NA
"739","flanker_test","39","image-keyboard-response","70","1290417","0.0-4.0-33.0-0.0","1","2020-1-6 23:25:26","LION",NA,NA,NA,NA,NA,"incongruent","right","TRUE",NA,NA,NA,NA,NA,NA
"435","flanker_test","39","image-keyboard-response","71","1291417","0.0-4.0-33.0-0.1","1","2020-1-6 23:25:26","LION",NA,NA,NA,NA,NA,"congruent","right","TRUE",NA,NA,NA,NA,NA,NA
"507","flanker_test","37","image-keyboard-response","72","1292321","0.0-4.0-33.0-0.2","1","2020-1-6 23:25:26","LION",NA,NA,NA,NA,NA,"congruent","left","TRUE",NA,NA,NA,NA,NA,NA
"662","flanker_test","37","image-keyboard-response","73","1293856","0.0-4.0-33.0-0.3","1","2020-1-6 23:25:26","LION",NA,NA,NA,NA,NA,"incongruent","left","TRUE",NA,NA,NA,NA,NA,NA
"19132","sort_trial",NA,"free-sort","74","1313383","0.0-4.0-34.0","1","2020-1-6 23:25:26","LION",NA,NA,NA,NA,NA,NA,NA,NA,"[{""cat"":12,""src"":15,""x"":55,""y"":382},{""cat"":28,""src"":15,""x"":80,""y"":202},{""cat"":31,""src"":3,""x"":35,""y"":259},{""cat"":31,""src"":13,""x"":52,""y"":84},{""cat"":28,""src"":2,""x"":79,""y"":15},{""cat"":12,""src"":16,""x"":13,""y"":120},{""cat"":28,""src"":11,""x"":50,""y"":305},{""cat"":31,""src"":16,""x"":40,""y"":430},{""cat"":12,""src"":14,""x"":79,""y"":484}]","[{""cat"":""12"",""src"":""15"",""x"":0,""y"":0},{""cat"":""12"",""src"":""14"",""x"":0,""y"":0},{""cat"":""31"",""src"":""3"",""x"":0,""y"":0},{""cat"":""28"",""src"":""11"",""x"":0,""y"":0},{""cat"":""31"",""src"":""13"",""x"":0,""y"":0},{""cat"":""12"",""src"":""16"",""x"":0,""y"":0},{""cat"":""28"",""src"":""15"",""x"":0,""y"":0},{""cat"":""28"",""src"":""2"",""x"":0,""y"":0},{""cat"":""31"",""src"":""16"",""x"":0,""y"":0}]","[{""cat"":12,""src"":15,""loc"":7},{""cat"":12,""src"":14,""loc"":1},{""cat"":31,""src"":3,""loc"":2},{""cat"":28,""src"":11,""loc"":3},{""cat"":31,""src"":13,""loc"":8},{""cat"":12,""src"":16,""loc"":6},{""cat"":28,""src"":15,""loc"":0},{""cat"":28,""src"":2,""loc"":4},{""cat"":31,""src"":16,""loc"":5}]","0","28,12,31,28,28,31,12,12,31,15,14,3,11,2,16,16,15,13,0,1,2,3,4,5,6,7,8,6,1,2,3,7,8,5,0,4",NA
"1131","sort_feedback","32","html-keyboard-response","75","1314516","0.0-4.0-35.0","1","2020-1-6 23:25:26","LION",NA,NA,NA,NA,NA,NA,NA,NA,NA,NA,NA,NA,NA,NA
"19993","setup3",NA,"animation","76","1334509","0.0-4.0-36.0","1","2020-1-6 23:25:26","LION",NA,NA,"[{""cat"":2,""src"":12,""loc"":7},{""cat"":21,""src"":5,""loc"":5},{""cat"":4,""src"":12,""loc"":1},{""cat"":4,""src"":0,""loc"":0},{""cat"":21,""src"":18,""loc"":4},{""cat"":2,""src"":7,""loc"":8},{""cat"":2,""src"":9,""loc"":6},{""cat"":21,""src"":1,""loc"":3},{""cat"":4,""src"":8,""loc"":2}]","3","1117,1111,1105,1122,1101,1105,1110,1113,1108,10001",NA,NA,NA,NA,NA,NA,NA,NA,NA
"1659","flanker_instructions","39","html-keyboard-response","77","1336170","0.0-4.0-37.0","1","2020-1-6 23:25:26","LION",NA,NA,NA,NA,NA,NA,NA,NA,NA,NA,NA,NA,NA,NA
"529","flanker_test","39","image-keyboard-response","78","1337702","0.0-4.0-38.0-0.0","1","2020-1-6 23:25:26","LION",NA,NA,NA,NA,NA,"congruent","right","TRUE",NA,NA,NA,NA,NA,NA
"684","flanker_test","37","image-keyboard-response","79","1338834","0.0-4.0-38.0-0.1","1","2020-1-6 23:25:26","LION",NA,NA,NA,NA,NA,"congruent","left","TRUE",NA,NA,NA,NA,NA,NA
"848","flanker_test","39","image-keyboard-response","80","1340124","0.0-4.0-38.0-0.2","1","2020-1-6 23:25:26","LION",NA,NA,NA,NA,NA,"incongruent","right","TRUE",NA,NA,NA,NA,NA,NA
"550","flanker_test","37","image-keyboard-response","81","1341807","0.0-4.0-38.0-0.3","1","2020-1-6 23:25:26","LION",NA,NA,NA,NA,NA,"incongruent","left","TRUE",NA,NA,NA,NA,NA,NA
"18749","sort_trial",NA,"free-sort","82","1361531","0.0-4.0-39.0","1","2020-1-6 23:25:26","LION",NA,NA,NA,NA,NA,NA,NA,NA,"[{""cat"":2,""src"":12,""x"":11,""y"":435},{""cat"":21,""src"":5,""x"":25,""y"":82},{""cat"":4,""src"":12,""x"":16,""y"":318},{""cat"":4,""src"":0,""x"":18,""y"":497},{""cat"":21,""src"":18,""x"":44,""y"":376},{""cat"":2,""src"":7,""x"":47,""y"":146},{""cat"":2,""src"":9,""x"":72,""y"":244},{""cat"":21,""src"":1,""x"":65,""y"":8},{""cat"":4,""src"":8,""x"":39,""y"":190}]","[{""cat"":""21"",""src"":""18"",""x"":0,""y"":0},{""cat"":""4"",""src"":""12"",""x"":0,""y"":0},{""cat"":""2"",""src"":""9"",""x"":0,""y"":0},{""cat"":""4"",""src"":""8"",""x"":242,""y"":150},{""cat"":""4"",""src"":""8"",""x"":0,""y"":0},{""cat"":""2"",""src"":""7"",""x"":0,""y"":0},{""cat"":""2"",""src"":""12"",""x"":0,""y"":0},{""cat"":""4"",""src"":""0"",""x"":0,""y"":0},{""cat"":""21"",""src"":""5"",""x"":0,""y"":0},{""cat"":""21"",""src"":""1"",""x"":0,""y"":0}]","[{""cat"":21,""src"":18,""loc"":6},{""cat"":4,""src"":12,""loc"":1},{""cat"":2,""src"":9,""loc"":2},{""cat"":4,""src"":8,""loc"":0},{""cat"":2,""src"":7,""loc"":7},{""cat"":2,""src"":12,""loc"":8},{""cat"":4,""src"":0,""loc"":5},{""cat"":21,""src"":5,""loc"":3},{""cat"":21,""src"":1,""loc"":4}]","1","4,4,2,21,21,4,21,2,2,8,12,9,5,1,0,18,7,12,0,1,2,3,4,5,6,7,8,3,1,2,7,8,6,0,4,5",NA
"1180","sort_feedback","32","html-keyboard-response","83","1362713","0.0-4.0-40.0","1","2020-1-6 23:25:26","LION",NA,NA,NA,NA,NA,NA,NA,NA,NA,NA,NA,NA,NA,NA
"26460","setup4",NA,"animation","84","1389174","0.0-4.0-41.0","1","2020-1-6 23:25:26","LION",NA,NA,"[{""cat"":13,""src"":5,""loc"":4},{""cat"":13,""src"":15,""loc"":7},{""cat"":13,""src"":4,""loc"":2},{""cat"":4,""src"":16,""loc"":1},{""cat"":4,""src"":13,""loc"":3},{""cat"":4,""src"":6,""loc"":8},{""cat"":26,""src"":15,""loc"":5},{""cat"":26,""src"":4,""loc"":6},{""cat"":26,""src"":18,""loc"":0}]","4","1102,1101,1258,1999,2001,1999,2000,2001,1999,11000",NA,NA,NA,NA,NA,NA,NA,NA,NA
"19601","flanker_instructions","39","html-keyboard-response","85","1408778","0.0-4.0-42.0","1","2020-1-6 23:25:26","LION",NA,NA,NA,NA,NA,NA,NA,NA,NA,NA,NA,NA,NA,NA
"641","flanker_test","37","image-keyboard-response","86","1410436","0.0-4.0-43.0-0.0","1","2020-1-6 23:25:26","LION",NA,NA,NA,NA,NA,"incongruent","left","TRUE",NA,NA,NA,NA,NA,NA
"430","flanker_test","39","image-keyboard-response","87","1412001","0.0-4.0-43.0-0.1","1","2020-1-6 23:25:26","LION",NA,NA,NA,NA,NA,"congruent","right","TRUE",NA,NA,NA,NA,NA,NA
"622","flanker_test","39","image-keyboard-response","88","1413588","0.0-4.0-43.0-0.2","1","2020-1-6 23:25:26","LION",NA,NA,NA,NA,NA,"incongruent","right","TRUE",NA,NA,NA,NA,NA,NA
"488","flanker_test","37","image-keyboard-response","89","1414743","0.0-4.0-43.0-0.3","1","2020-1-6 23:25:26","LION",NA,NA,NA,NA,NA,"congruent","left","TRUE",NA,NA,NA,NA,NA,NA
"16058","sort_trial",NA,"free-sort","90","1431960","0.0-4.0-44.0","1","2020-1-6 23:25:26","LION",NA,NA,NA,NA,NA,NA,NA,NA,"[{""cat"":13,""src"":5,""x"":55,""y"":4},{""cat"":13,""src"":15,""x"":14,""y"":312},{""cat"":13,""src"":4,""x"":5,""y"":265},{""cat"":4,""src"":16,""x"":10,""y"":120},{""cat"":4,""src"":13,""x"":1,""y"":428},{""cat"":4,""src"":6,""x"":36,""y"":79},{""cat"":26,""src"":15,""x"":54,""y"":502},{""cat"":26,""src"":4,""x"":67,""y"":383},{""cat"":26,""src"":18,""x"":49,""y"":204}]","[{""cat"":""13"",""src"":""4"",""x"":0,""y"":0},{""cat"":""13"",""src"":""15"",""x"":0,""y"":0},{""cat"":""26"",""src"":""4"",""x"":0,""y"":0},{""cat"":""4"",""src"":""13"",""x"":0,""y"":0},{""cat"":""26"",""src"":""18"",""x"":0,""y"":0},{""cat"":""4"",""src"":""16"",""x"":0,""y"":0},{""cat"":""13"",""src"":""5"",""x"":0,""y"":0},{""cat"":""4"",""src"":""6"",""x"":0,""y"":0},{""cat"":""26"",""src"":""15"",""x"":0,""y"":0}]","[{""cat"":13,""src"":4,""loc"":3},{""cat"":13,""src"":15,""loc"":6},{""cat"":26,""src"":4,""loc"":7},{""cat"":4,""src"":13,""loc"":1},{""cat"":26,""src"":18,""loc"":0},{""cat"":4,""src"":16,""loc"":2},{""cat"":13,""src"":5,""loc"":4},{""cat"":4,""src"":6,""loc"":5},{""cat"":26,""src"":15,""loc"":8}]","2","26,4,4,13,13,4,13,26,26,18,13,16,4,5,6,15,4,15,0,1,2,3,4,5,6,7,8,4,3,5,0,6,7,1,2,8",NA
"11357","sort_feedback","32","html-keyboard-response","91","1443318","0.0-4.0-45.0","1","2020-1-6 23:25:26","LION",NA,NA,NA,NA,NA,NA,NA,NA,NA,NA,NA,NA,NA,NA
"19996","setup1",NA,"animation","92","1463315","0.0-4.0-46.0","1","2020-1-6 23:25:26","LION",NA,NA,"[{""cat"":26,""src"":4,""loc"":0},{""cat"":26,""src"":12,""loc"":2},{""cat"":26,""src"":1,""loc"":1},{""cat"":1,""src"":2,""loc"":6},{""cat"":1,""src"":19,""loc"":8},{""cat"":1,""src"":7,""loc"":7},{""cat"":14,""src"":2,""loc"":3},{""cat"":14,""src"":1,""loc"":5},{""cat"":14,""src"":13,""loc"":4}]","1","1107,1113,1101,1119,1105,1115,1120,1102,1102,10012",NA,NA,NA,NA,NA,NA,NA,NA,NA
"4805","flanker_instructions","39","html-keyboard-response","93","1468121","0.0-4.0-47.0","1","2020-1-6 23:25:26","LION",NA,NA,NA,NA,NA,NA,NA,NA,NA,NA,NA,NA,NA,NA
NA,"flanker_test",NA,"image-keyboard-response","94","1470037","0.0-4.0-48.0-0.0","1","2020-1-6 23:25:26","LION",NA,NA,NA,NA,NA,"incongruent","left","FALSE",NA,NA,NA,NA,NA,NA
"662","flanker_test","39","image-keyboard-response","95","1471556","0.0-4.0-48.0-0.1","1","2020-1-6 23:25:26","LION",NA,NA,NA,NA,NA,"incongruent","right","TRUE",NA,NA,NA,NA,NA,NA
"413","flanker_test","37","image-keyboard-response","96","1473013","0.0-4.0-48.0-0.2","1","2020-1-6 23:25:26","LION",NA,NA,NA,NA,NA,"congruent","left","TRUE",NA,NA,NA,NA,NA,NA
"475","flanker_test","39","image-keyboard-response","97","1474009","0.0-4.0-48.0-0.3","1","2020-1-6 23:25:26","LION",NA,NA,NA,NA,NA,"congruent","right","TRUE",NA,NA,NA,NA,NA,NA
"17958","sort_trial",NA,"free-sort","98","1492765","0.0-4.0-49.0","1","2020-1-6 23:25:26","LION",NA,NA,NA,NA,NA,NA,NA,NA,"[{""cat"":26,""src"":4,""x"":24,""y"":386},{""cat"":26,""src"":12,""x"":59,""y"":304},{""cat"":26,""src"":1,""x"":14,""y"":130},{""cat"":1,""src"":2,""x"":57,""y"":421},{""cat"":1,""src"":19,""x"":54,""y"":500},{""cat"":1,""src"":7,""x"":14,""y"":254},{""cat"":14,""src"":2,""x"":79,""y"":72},{""cat"":14,""src"":1,""x"":68,""y"":180},{""cat"":14,""src"":13,""x"":36,""y"":5}]","[{""cat"":""26"",""src"":""12"",""x"":0,""y"":0},{""cat"":""14"",""src"":""2"",""x"":0,""y"":0},{""cat"":""14"",""src"":""1"",""x"":0,""y"":0},{""cat"":""1"",""src"":""2"",""x"":0,""y"":0},{""cat"":""26"",""src"":""4"",""x"":0,""y"":0},{""cat"":""1"",""src"":""19"",""x"":0,""y"":0},{""cat"":""1"",""src"":""7"",""x"":0,""y"":0},{""cat"":""26"",""src"":""1"",""x"":0,""y"":0},{""cat"":""14"",""src"":""13"",""x"":0,""y"":0}]","[{""cat"":26,""src"":12,""loc"":2},{""cat"":14,""src"":2,""loc"":1},{""cat"":14,""src"":1,""loc"":8},{""cat"":1,""src"":2,""loc"":6},{""cat"":26,""src"":4,""loc"":7},{""cat"":1,""src"":19,""loc"":0},{""cat"":1,""src"":7,""loc"":5},{""cat"":26,""src"":1,""loc"":3},{""cat"":14,""src"":13,""loc"":4}]","3","1,14,26,26,14,1,1,26,14,19,2,12,1,13,7,2,4,1,0,1,2,3,4,5,6,7,8,5,1,0,7,8,6,3,4,2",NA
"1337","sort_feedback","32","html-keyboard-response","99","1494104","0.0-4.0-50.0","1","2020-1-6 23:25:26","LION",NA,NA,NA,NA,NA,NA,NA,NA,NA,NA,NA,NA,NA,NA
"28076","setup2",NA,"animation","100","1522180","0.0-4.0-51.0","1","2020-1-6 23:25:26","LION",NA,NA,"[{""cat"":3,""src"":5,""loc"":5},{""cat"":26,""src"":11,""loc"":4},{""cat"":11,""src"":1,""loc"":3},{""cat"":26,""src"":12,""loc"":6},{""cat"":11,""src"":2,""loc"":7},{""cat"":3,""src"":2,""loc"":8},{""cat"":3,""src"":6,""loc"":2},{""cat"":11,""src"":17,""loc"":1},{""cat"":26,""src"":13,""loc"":0}]","2","1105,1960,2003,2007,2011,1983,1999,2010,1989,11009",NA,NA,NA,NA,NA,NA,NA,NA,NA
"16029","flanker_instructions","39","html-keyboard-response","101","1538211","0.0-4.0-52.0","1","2020-1-6 23:25:26","LION",NA,NA,NA,NA,NA,NA,NA,NA,NA,NA,NA,NA,NA,NA
"642","flanker_test","37","image-keyboard-response","102","1539868","0.0-4.0-53.0-0.0","1","2020-1-6 23:25:26","LION",NA,NA,NA,NA,NA,"incongruent","left","TRUE",NA,NA,NA,NA,NA,NA
"506","flanker_test","37","image-keyboard-response","103","1541317","0.0-4.0-53.0-0.1","1","2020-1-6 23:25:26","LION",NA,NA,NA,NA,NA,"congruent","left","TRUE",NA,NA,NA,NA,NA,NA
"518","flanker_test","39","image-keyboard-response","104","1542233","0.0-4.0-53.0-0.2","1","2020-1-6 23:25:26","LION",NA,NA,NA,NA,NA,"congruent","right","TRUE",NA,NA,NA,NA,NA,NA
"627","flanker_test","39","image-keyboard-response","105","1543880","0.0-4.0-53.0-0.3","1","2020-1-6 23:25:26","LION",NA,NA,NA,NA,NA,"incongruent","right","TRUE",NA,NA,NA,NA,NA,NA
"19815","sort_trial",NA,"free-sort","106","1564678","0.0-4.0-54.0","1","2020-1-6 23:25:26","LION",NA,NA,NA,NA,NA,NA,NA,NA,"[{""cat"":3,""src"":5,""x"":82,""y"":20},{""cat"":26,""src"":11,""x"":26,""y"":327},{""cat"":11,""src"":1,""x"":1,""y"":203},{""cat"":26,""src"":12,""x"":45,""y"":85},{""cat"":11,""src"":2,""x"":46,""y"":479},{""cat"":3,""src"":2,""x"":36,""y"":433},{""cat"":3,""src"":6,""x"":10,""y"":380},{""cat"":11,""src"":17,""x"":31,""y"":256},{""cat"":26,""src"":13,""x"":54,""y"":146}]","[{""cat"":""11"",""src"":""17"",""x"":0,""y"":0},{""cat"":""3"",""src"":""2"",""x"":0,""y"":0},{""cat"":""3"",""src"":""5"",""x"":0,""y"":0},{""cat"":""26"",""src"":""13"",""x"":0,""y"":0},{""cat"":""26"",""src"":""12"",""x"":0,""y"":0},{""cat"":""26"",""src"":""11"",""x"":0,""y"":0},{""cat"":""3"",""src"":""6"",""x"":0,""y"":0},{""cat"":""11"",""src"":""1"",""x"":0,""y"":0},{""cat"":""11"",""src"":""2"",""x"":0,""y"":0}]","[{""cat"":11,""src"":17,""loc"":2},{""cat"":3,""src"":2,""loc"":6},{""cat"":3,""src"":5,""loc"":1},{""cat"":26,""src"":13,""loc"":0},{""cat"":26,""src"":12,""loc"":5},{""cat"":26,""src"":11,""loc"":3},{""cat"":3,""src"":6,""loc"":4},{""cat"":11,""src"":1,""loc"":8},{""cat"":11,""src"":2,""loc"":7}]","2","26,3,11,26,3,26,3,11,11,13,5,17,11,6,12,2,2,1,0,1,2,3,4,5,6,7,8,3,2,0,5,6,4,1,8,7",NA
"1319","sort_feedback","32","html-keyboard-response","107","1565999","0.0-4.0-55.0","1","2020-1-6 23:25:26","LION",NA,NA,NA,NA,NA,NA,NA,NA,NA,NA,NA,NA,NA,NA
"19941","setup3",NA,"animation","108","1585940","0.0-4.0-56.0","1","2020-1-6 23:25:26","LION",NA,NA,"[{""cat"":27,""src"":2,""loc"":6},{""cat"":14,""src"":13,""loc"":4},{""cat"":16,""src"":8,""loc"":1},{""cat"":14,""src"":4,""loc"":3},{""cat"":27,""src"":3,""loc"":8},{""cat"":16,""src"":4,""loc"":0},{""cat"":14,""src"":11,""loc"":5},{""cat"":27,""src"":10,""loc"":7},{""cat"":16,""src"":12,""loc"":2}]","3","1102,1103,1111,1102,1105,1105,1103,1104,1101,10005",NA,NA,NA,NA,NA,NA,NA,NA,NA
"1802","flanker_instructions","39","html-keyboard-response","109","1587743","0.0-4.0-57.0","1","2020-1-6 23:25:26","LION",NA,NA,NA,NA,NA,NA,NA,NA,NA,NA,NA,NA,NA,NA
"545","flanker_test","37","image-keyboard-response","110","1589295","0.0-4.0-58.0-0.0","1","2020-1-6 23:25:26","LION",NA,NA,NA,NA,NA,"congruent","left","TRUE",NA,NA,NA,NA,NA,NA
"439","flanker_test","39","image-keyboard-response","111","1590197","0.0-4.0-58.0-0.1","1","2020-1-6 23:25:26","LION",NA,NA,NA,NA,NA,"congruent","right","TRUE",NA,NA,NA,NA,NA,NA
"675","flanker_test","37","image-keyboard-response","112","1592081","0.0-4.0-58.0-0.2","1","2020-1-6 23:25:26","LION",NA,NA,NA,NA,NA,"incongruent","left","TRUE",NA,NA,NA,NA,NA,NA
"623","flanker_test","39","image-keyboard-response","113","1593487","0.0-4.0-58.0-0.3","1","2020-1-6 23:25:26","LION",NA,NA,NA,NA,NA,"incongruent","right","TRUE",NA,NA,NA,NA,NA,NA
"20588","sort_trial",NA,"free-sort","114","1615134","0.0-4.0-59.0","1","2020-1-6 23:25:26","LION",NA,NA,NA,NA,NA,NA,NA,NA,"[{""cat"":27,""src"":2,""x"":48,""y"":441},{""cat"":14,""src"":13,""x"":40,""y"":505},{""cat"":16,""src"":8,""x"":81,""y"":24},{""cat"":14,""src"":4,""x"":63,""y"":371},{""cat"":27,""src"":3,""x"":9,""y"":120},{""cat"":16,""src"":4,""x"":28,""y"":308},{""cat"":14,""src"":11,""x"":10,""y"":75},{""cat"":27,""src"":10,""x"":18,""y"":183},{""cat"":16,""src"":12,""x"":71,""y"":240}]","[{""cat"":""16"",""src"":""4"",""x"":0,""y"":0},{""cat"":""16"",""src"":""12"",""x"":0,""y"":0},{""cat"":""27"",""src"":""2"",""x"":0,""y"":0},{""cat"":""16"",""src"":""8"",""x"":0,""y"":0},{""cat"":""14"",""src"":""4"",""x"":0,""y"":0},{""cat"":""14"",""src"":""13"",""x"":0,""y"":0},{""cat"":""27"",""src"":""10"",""x"":0,""y"":0},{""cat"":""27"",""src"":""3"",""x"":0,""y"":0},{""cat"":""14"",""src"":""11"",""x"":0,""y"":0}]","[{""cat"":16,""src"":4,""loc"":2},{""cat"":16,""src"":12,""loc"":6},{""cat"":27,""src"":2,""loc"":3},{""cat"":16,""src"":8,""loc"":7},{""cat"":14,""src"":4,""loc"":8},{""cat"":14,""src"":13,""loc"":5},{""cat"":27,""src"":10,""loc"":1},{""cat"":27,""src"":3,""loc"":0},{""cat"":14,""src"":11,""loc"":4}]","0","27,27,16,27,14,14,16,16,14,3,10,4,2,11,13,12,8,4,0,1,2,3,4,5,6,7,8,7,6,0,2,8,5,1,3,4",NA
"1308","sort_feedback","32","html-keyboard-response","115","1616443","0.0-4.0-60.0","1","2020-1-6 23:25:26","LION",NA,NA,NA,NA,NA,NA,NA,NA,NA,NA,NA,NA,NA,NA
"23733","setup5",NA,"animation","116","1640177","0.0-4.0-61.0","1","2020-1-6 23:25:26","LION",NA,NA,"[{""cat"":3,""src"":15,""loc"":6},{""cat"":15,""src"":2,""loc"":5},{""cat"":11,""src"":12,""loc"":0},{""cat"":15,""src"":6,""loc"":2},{""cat"":3,""src"":7,""loc"":3},{""cat"":11,""src"":3,""loc"":7},{""cat"":11,""src"":6,""loc"":4},{""cat"":15,""src"":17,""loc"":8},{""cat"":3,""src"":18,""loc"":1}]","5","1110,1104,1103,1101,1313,1999,2002,1998,2001,10002",NA,NA,NA,NA,NA,NA,NA,NA,NA
"1702","flanker_instructions","39","html-keyboard-response","117","1641880","0.0-4.0-62.0","1","2020-1-6 23:25:26","LION",NA,NA,NA,NA,NA,NA,NA,NA,NA,NA,NA,NA,NA,NA
"587","flanker_test","39","image-keyboard-response","118","1643473","0.0-4.0-63.0-0.0","1","2020-1-6 23:25:26","LION",NA,NA,NA,NA,NA,"congruent","right","TRUE",NA,NA,NA,NA,NA,NA
"531","flanker_test","37","image-keyboard-response","119","1645136","0.0-4.0-63.0-0.1","1","2020-1-6 23:25:26","LION",NA,NA,NA,NA,NA,"incongruent","left","TRUE",NA,NA,NA,NA,NA,NA
"652","flanker_test","39","image-keyboard-response","120","1646616","0.0-4.0-63.0-0.2","1","2020-1-6 23:25:26","LION",NA,NA,NA,NA,NA,"incongruent","right","TRUE",NA,NA,NA,NA,NA,NA
"448","flanker_test","37","image-keyboard-response","121","1648247","0.0-4.0-63.0-0.3","1","2020-1-6 23:25:26","LION",NA,NA,NA,NA,NA,"congruent","left","TRUE",NA,NA,NA,NA,NA,NA
"16242","sort_trial",NA,"free-sort","122","1665615","0.0-4.0-64.0","1","2020-1-6 23:25:26","LION",NA,NA,NA,NA,NA,NA,NA,NA,"[{""cat"":3,""src"":15,""x"":72,""y"":500},{""cat"":15,""src"":2,""x"":9,""y"":253},{""cat"":11,""src"":12,""x"":34,""y"":367},{""cat"":15,""src"":6,""x"":7,""y"":16},{""cat"":3,""src"":7,""x"":6,""y"":447},{""cat"":11,""src"":3,""x"":7,""y"":305},{""cat"":11,""src"":6,""x"":46,""y"":145},{""cat"":15,""src"":17,""x"":59,""y"":86},{""cat"":3,""src"":18,""x"":66,""y"":206}]","[{""cat"":""15"",""src"":""2"",""x"":0,""y"":0},{""cat"":""11"",""src"":""3"",""x"":0,""y"":0},{""cat"":""11"",""src"":""6"",""x"":0,""y"":0},{""cat"":""15"",""src"":""6"",""x"":0,""y"":0},{""cat"":""3"",""src"":""7"",""x"":0,""y"":0},{""cat"":""11"",""src"":""12"",""x"":0,""y"":0},{""cat"":""3"",""src"":""15"",""x"":0,""y"":0},{""cat"":""3"",""src"":""18"",""x"":0,""y"":0},{""cat"":""15"",""src"":""17"",""x"":0,""y"":0}]","[{""cat"":15,""src"":2,""loc"":3},{""cat"":11,""src"":3,""loc"":1},{""cat"":11,""src"":6,""loc"":2},{""cat"":15,""src"":6,""loc"":0},{""cat"":3,""src"":7,""loc"":8},{""cat"":11,""src"":12,""loc"":6},{""cat"":3,""src"":15,""loc"":7},{""cat"":3,""src"":18,""loc"":4},{""cat"":15,""src"":17,""loc"":5}]","0","15,11,11,15,3,15,11,3,3,6,3,6,2,18,17,12,15,7,0,1,2,3,4,5,6,7,8,3,1,2,0,7,8,5,6,4",NA
"1355","sort_feedback","32","html-keyboard-response","123","1666972","0.0-4.0-65.0","1","2020-1-6 23:25:26","LION",NA,NA,NA,NA,NA,NA,NA,NA,NA,NA,NA,NA,NA,NA
"20194","setup4",NA,"animation","124","1687166","0.0-4.0-66.0","1","2020-1-6 23:25:26","LION",NA,NA,"[{""cat"":7,""src"":15,""loc"":7},{""cat"":7,""src"":16,""loc"":5},{""cat"":7,""src"":2,""loc"":1},{""cat"":11,""src"":15,""loc"":0},{""cat"":11,""src"":0,""loc"":6},{""cat"":11,""src"":1,""loc"":4},{""cat"":28,""src"":17,""loc"":2},{""cat"":28,""src"":5,""loc"":3},{""cat"":28,""src"":6,""loc"":8}]","4","1108,1102,1102,1105,1101,1104,1102,1102,1117,10251",NA,NA,NA,NA,NA,NA,NA,NA,NA
"9520","flanker_instructions","39","html-keyboard-response","125","1696689","0.0-4.0-67.0","1","2020-1-6 23:25:26","LION",NA,NA,NA,NA,NA,NA,NA,NA,NA,NA,NA,NA,NA,NA
"668","flanker_test","37","image-keyboard-response","126","1698359","0.0-4.0-68.0-0.0","1","2020-1-6 23:25:26","LION",NA,NA,NA,NA,NA,"incongruent","left","TRUE",NA,NA,NA,NA,NA,NA
"588","flanker_test","39","image-keyboard-response","127","1699524","0.0-4.0-68.0-0.1","1","2020-1-6 23:25:26","LION",NA,NA,NA,NA,NA,"incongruent","right","TRUE",NA,NA,NA,NA,NA,NA
"456","flanker_test","39","image-keyboard-response","128","1701036","0.0-4.0-68.0-0.2","1","2020-1-6 23:25:26","LION",NA,NA,NA,NA,NA,"congruent","right","TRUE",NA,NA,NA,NA,NA,NA
"379","flanker_test","37","image-keyboard-response","129","1702460","0.0-4.0-68.0-0.3","1","2020-1-6 23:25:26","LION",NA,NA,NA,NA,NA,"congruent","left","TRUE",NA,NA,NA,NA,NA,NA
"17242","sort_trial",NA,"free-sort","130","1720879","0.0-4.0-69.0","1","2020-1-6 23:25:26","LION",NA,NA,NA,NA,NA,NA,NA,NA,"[{""cat"":7,""src"":15,""x"":24,""y"":61},{""cat"":7,""src"":16,""x"":39,""y"":371},{""cat"":7,""src"":2,""x"":51,""y"":318},{""cat"":11,""src"":15,""x"":55,""y"":15},{""cat"":11,""src"":0,""x"":49,""y"":442},{""cat"":11,""src"":1,""x"":10,""y"":497},{""cat"":28,""src"":17,""x"":40,""y"":248},{""cat"":28,""src"":5,""x"":52,""y"":184},{""cat"":28,""src"":6,""x"":43,""y"":141}]","[{""cat"":""28"",""src"":""17"",""x"":0,""y"":0},{""cat"":""28"",""src"":""5"",""x"":0,""y"":0},{""cat"":""28"",""src"":""6"",""x"":0,""y"":0},{""cat"":""7"",""src"":""15"",""x"":0,""y"":0},{""cat"":""11"",""src"":""0"",""x"":0,""y"":0},{""cat"":""7"",""src"":""16"",""x"":0,""y"":0},{""cat"":""11"",""src"":""1"",""x"":0,""y"":0},{""cat"":""7"",""src"":""2"",""x"":0,""y"":0},{""cat"":""11"",""src"":""15"",""x"":0,""y"":0}]","[{""cat"":28,""src"":17,""loc"":5},{""cat"":28,""src"":5,""loc"":2},{""cat"":28,""src"":6,""loc"":1},{""cat"":7,""src"":15,""loc"":8},{""cat"":11,""src"":0,""loc"":6},{""cat"":7,""src"":16,""loc"":7},{""cat"":11,""src"":1,""loc"":4},{""cat"":7,""src"":2,""loc"":3},{""cat"":11,""src"":15,""loc"":0}]","3","11,28,28,7,11,28,11,7,7,15,6,5,2,1,17,0,16,15,0,1,2,3,4,5,6,7,8,8,2,1,7,6,0,4,5,3",NA
"1128","sort_feedback","32","html-keyboard-response","131","1722008","0.0-4.0-70.0","1","2020-1-6 23:25:26","LION",NA,NA,NA,NA,NA,NA,NA,NA,NA,NA,NA,NA,NA,NA
"19963","setup1",NA,"animation","132","1741971","0.0-4.0-71.0","1","2020-1-6 23:25:26","LION",NA,NA,"[{""cat"":0,""src"":6,""loc"":0},{""cat"":0,""src"":18,""loc"":1},{""cat"":0,""src"":10,""loc"":2},{""cat"":13,""src"":16,""loc"":6},{""cat"":13,""src"":17,""loc"":8},{""cat"":13,""src"":10,""loc"":7},{""cat"":8,""src"":19,""loc"":5},{""cat"":8,""src"":17,""loc"":4},{""cat"":8,""src"":11,""loc"":3}]","1","1102,1103,1114,1110,1104,1108,1108,1102,1108,10004",NA,NA,NA,NA,NA,NA,NA,NA,NA
"1468","flanker_instructions","39","html-keyboard-response","133","1743440","0.0-4.0-72.0","1","2020-1-6 23:25:26","LION",NA,NA,NA,NA,NA,NA,NA,NA,NA,NA,NA,NA,NA,NA
"453","flanker_test","39","image-keyboard-response","134","1744896","0.0-4.0-73.0-0.0","1","2020-1-6 23:25:26","LION",NA,NA,NA,NA,NA,"congruent","right","TRUE",NA,NA,NA,NA,NA,NA
"487","flanker_test","37","image-keyboard-response","135","1746256","0.0-4.0-73.0-0.1","1","2020-1-6 23:25:26","LION",NA,NA,NA,NA,NA,"incongruent","left","TRUE",NA,NA,NA,NA,NA,NA
"491","flanker_test","39","image-keyboard-response","136","1747765","0.0-4.0-73.0-0.2","1","2020-1-6 23:25:26","LION",NA,NA,NA,NA,NA,"incongruent","right","TRUE",NA,NA,NA,NA,NA,NA
"407","flanker_test","37","image-keyboard-response","137","1749115","0.0-4.0-73.0-0.3","1","2020-1-6 23:25:26","LION",NA,NA,NA,NA,NA,"congruent","left","TRUE",NA,NA,NA,NA,NA,NA
"21249","sort_trial",NA,"free-sort","138","1770802","0.0-4.0-74.0","1","2020-1-6 23:25:26","LION",NA,NA,NA,NA,NA,NA,NA,NA,"[{""cat"":0,""src"":6,""x"":44,""y"":499},{""cat"":0,""src"":18,""x"":10,""y"":382},{""cat"":0,""src"":10,""x"":5,""y"":134},{""cat"":13,""src"":16,""x"":18,""y"":421},{""cat"":13,""src"":17,""x"":65,""y"":190},{""cat"":13,""src"":10,""x"":54,""y"":311},{""cat"":8,""src"":19,""x"":41,""y"":4},{""cat"":8,""src"":17,""x"":63,""y"":79},{""cat"":8,""src"":11,""x"":11,""y"":254}]","[{""cat"":""0"",""src"":""6"",""x"":0,""y"":0},{""cat"":""0"",""src"":""18"",""x"":0,""y"":0},{""cat"":""0"",""src"":""10"",""x"":0,""y"":0},{""cat"":""13"",""src"":""17"",""x"":0,""y"":0},{""cat"":""13"",""src"":""10"",""x"":0,""y"":0},{""cat"":""13"",""src"":""16"",""x"":0,""y"":0},{""cat"":""8"",""src"":""11"",""x"":0,""y"":0},{""cat"":""8"",""src"":""19"",""x"":0,""y"":0},{""cat"":""8"",""src"":""17"",""x"":0,""y"":0}]","[{""cat"":0,""src"":6,""loc"":1},{""cat"":0,""src"":18,""loc"":0},{""cat"":0,""src"":10,""loc"":2},{""cat"":13,""src"":17,""loc"":6},{""cat"":13,""src"":10,""loc"":7},{""cat"":13,""src"":16,""loc"":5},{""cat"":8,""src"":11,""loc"":8},{""cat"":8,""src"":19,""loc"":3},{""cat"":8,""src"":17,""loc"":4}]","3","0,0,0,8,8,13,13,13,8,18,6,10,19,17,16,17,10,11,0,1,2,3,4,5,6,7,8,1,0,2,7,8,5,3,4,6",NA
"1628","sort_feedback","32","html-keyboard-response","139","1772432","0.0-4.0-75.0","1","2020-1-6 23:25:26","LION",NA,NA,NA,NA,NA,NA,NA,NA,NA,NA,NA,NA,NA,NA
"19977","setup3",NA,"animation","140","1792409","0.0-4.0-76.0","1","2020-1-6 23:25:26","LION",NA,NA,"[{""cat"":10,""src"":7,""loc"":1},{""cat"":20,""src"":0,""loc"":3},{""cat"":30,""src"":15,""loc"":8},{""cat"":20,""src"":4,""loc"":5},{""cat"":10,""src"":11,""loc"":0},{""cat"":30,""src"":7,""loc"":7},{""cat"":20,""src"":8,""loc"":4},{""cat"":30,""src"":9,""loc"":6},{""cat"":10,""src"":1,""loc"":2}]","3","1107,1104,1105,1107,1111,1108,1109,1113,1112,10001",NA,NA,NA,NA,NA,NA,NA,NA,NA
"1623","flanker_instructions","39","html-keyboard-response","141","1794033","0.0-4.0-77.0","1","2020-1-6 23:25:26","LION",NA,NA,NA,NA,NA,NA,NA,NA,NA,NA,NA,NA,NA,NA
"560","flanker_test","37","image-keyboard-response","142","1795603","0.0-4.0-78.0-0.0","1","2020-1-6 23:25:26","LION",NA,NA,NA,NA,NA,"congruent","left","TRUE",NA,NA,NA,NA,NA,NA
"591","flanker_test","39","image-keyboard-response","143","1796608","0.0-4.0-78.0-0.1","1","2020-1-6 23:25:26","LION",NA,NA,NA,NA,NA,"incongruent","right","TRUE",NA,NA,NA,NA,NA,NA
"600","flanker_test","37","image-keyboard-response","144","1797525","0.0-4.0-78.0-0.2","1","2020-1-6 23:25:26","LION",NA,NA,NA,NA,NA,"incongruent","left","TRUE",NA,NA,NA,NA,NA,NA
"421","flanker_test","39","image-keyboard-response","145","1798514","0.0-4.0-78.0-0.3","1","2020-1-6 23:25:26","LION",NA,NA,NA,NA,NA,"congruent","right","TRUE",NA,NA,NA,NA,NA,NA
"18150","sort_trial",NA,"free-sort","146","1817073","0.0-4.0-79.0","1","2020-1-6 23:25:26","LION",NA,NA,NA,NA,NA,NA,NA,NA,"[{""cat"":10,""src"":7,""x"":19,""y"":479},{""cat"":20,""src"":0,""x"":75,""y"":15},{""cat"":30,""src"":15,""x"":30,""y"":198},{""cat"":20,""src"":4,""x"":48,""y"":382},{""cat"":10,""src"":11,""x"":5,""y"":147},{""cat"":30,""src"":7,""x"":7,""y"":303},{""cat"":20,""src"":8,""x"":36,""y"":89},{""cat"":30,""src"":9,""x"":49,""y"":267},{""cat"":10,""src"":1,""x"":49,""y"":448}]","[{""cat"":""30"",""src"":""15"",""x"":0,""y"":0},{""cat"":""30"",""src"":""7"",""x"":0,""y"":0},{""cat"":""10"",""src"":""1"",""x"":0,""y"":0},{""cat"":""20"",""src"":""4"",""x"":0,""y"":0},{""cat"":""10"",""src"":""7"",""x"":0,""y"":0},{""cat"":""20"",""src"":""8"",""x"":0,""y"":0},{""cat"":""10"",""src"":""11"",""x"":0,""y"":0},{""cat"":""30"",""src"":""9"",""x"":0,""y"":0},{""cat"":""20"",""src"":""0"",""x"":0,""y"":0}]","[{""cat"":30,""src"":15,""loc"":5},{""cat"":30,""src"":7,""loc"":2},{""cat"":10,""src"":1,""loc"":8},{""cat"":20,""src"":4,""loc"":7},{""cat"":10,""src"":7,""loc"":3},{""cat"":20,""src"":8,""loc"":0},{""cat"":10,""src"":11,""loc"":1},{""cat"":30,""src"":9,""loc"":4},{""cat"":20,""src"":0,""loc"":6}]","0","20,10,30,10,30,30,20,20,10,8,11,7,7,9,15,0,4,1,0,1,2,3,4,5,6,7,8,5,6,1,4,7,0,8,3,2",NA
"82608","sort_feedback","32","html-keyboard-response","147","1899683","0.0-4.0-80.0","1","2020-1-6 23:25:26","LION",NA,NA,NA,NA,NA,NA,NA,NA,NA,NA,NA,NA,NA,NA
"21681","setup4",NA,"animation","148","1921365","0.0-4.0-81.0","1","2020-1-6 23:25:26","LION",NA,NA,"[{""cat"":18,""src"":4,""loc"":5},{""cat"":18,""src"":18,""loc"":0},{""cat"":18,""src"":14,""loc"":8},{""cat"":19,""src"":0,""loc"":4},{""cat"":19,""src"":2,""loc"":7},{""cat"":19,""src"":5,""loc"":1},{""cat"":4,""src"":13,""loc"":2},{""cat"":4,""src"":15,""loc"":3},{""cat"":4,""src"":17,""loc"":6}]","4","1117,1101,1110,1119,1111,1102,1101,1730,1999,10191",NA,NA,NA,NA,NA,NA,NA,NA,NA
"1409","flanker_instructions","39","html-keyboard-response","149","1922778","0.0-4.0-82.0","1","2020-1-6 23:25:26","LION",NA,NA,NA,NA,NA,NA,NA,NA,NA,NA,NA,NA,NA,NA
"489","flanker_test","37","image-keyboard-response","150","1924290","0.0-4.0-83.0-0.0","1","2020-1-6 23:25:26","LION",NA,NA,NA,NA,NA,"congruent","left","TRUE",NA,NA,NA,NA,NA,NA
"594","flanker_test","37","image-keyboard-response","151","1925665","0.0-4.0-83.0-0.1","1","2020-1-6 23:25:26","LION",NA,NA,NA,NA,NA,"incongruent","left","TRUE",NA,NA,NA,NA,NA,NA
"593","flanker_test","39","image-keyboard-response","152","1927421","0.0-4.0-83.0-0.2","1","2020-1-6 23:25:26","LION",NA,NA,NA,NA,NA,"incongruent","right","TRUE",NA,NA,NA,NA,NA,NA
"594","flanker_test","39","image-keyboard-response","153","1928409","0.0-4.0-83.0-0.3","1","2020-1-6 23:25:26","LION",NA,NA,NA,NA,NA,"congruent","right","TRUE",NA,NA,NA,NA,NA,NA
"16369","sort_trial",NA,"free-sort","154","1945388","0.0-4.0-84.0","1","2020-1-6 23:25:26","LION",NA,NA,NA,NA,NA,NA,NA,NA,"[{""cat"":18,""src"":4,""x"":17,""y"":21},{""cat"":18,""src"":18,""x"":37,""y"":245},{""cat"":18,""src"":14,""x"":30,""y"":491},{""cat"":19,""src"":0,""x"":38,""y"":430},{""cat"":19,""src"":2,""x"":2,""y"":367},{""cat"":19,""src"":5,""x"":20,""y"":321},{""cat"":4,""src"":13,""x"":78,""y"":181},{""cat"":4,""src"":15,""x"":25,""y"":81},{""cat"":4,""src"":17,""x"":72,""y"":145}]","[{""cat"":""18"",""src"":""18"",""x"":0,""y"":0},{""cat"":""19"",""src"":""2"",""x"":0,""y"":0},{""cat"":""19"",""src"":""0"",""x"":0,""y"":0},{""cat"":""18"",""src"":""14"",""x"":0,""y"":0},{""cat"":""19"",""src"":""5"",""x"":0,""y"":0},{""cat"":""4"",""src"":""13"",""x"":0,""y"":0},{""cat"":""4"",""src"":""17"",""x"":0,""y"":0},{""cat"":""4"",""src"":""15"",""x"":0,""y"":0},{""cat"":""18"",""src"":""4"",""x"":0,""y"":0}]","[{""cat"":18,""src"":18,""loc"":3},{""cat"":19,""src"":2,""loc"":8},{""cat"":19,""src"":0,""loc"":7},{""cat"":18,""src"":14,""loc"":6},{""cat"":19,""src"":5,""loc"":2},{""cat"":4,""src"":13,""loc"":1},{""cat"":4,""src"":17,""loc"":4},{""cat"":4,""src"":15,""loc"":5},{""cat"":18,""src"":4,""loc"":0}]","0","18,4,19,18,4,4,18,19,19,4,13,5,18,17,15,14,0,2,0,1,2,3,4,5,6,7,8,8,5,4,0,6,7,3,2,1",NA
"1157","sort_feedback","32","html-keyboard-response","155","1946546","0.0-4.0-85.0","1","2020-1-6 23:25:26","LION",NA,NA,NA,NA,NA,NA,NA,NA,NA,NA,NA,NA,NA,NA
"20627","setup2",NA,"animation","156","1967174","0.0-4.0-86.0","1","2020-1-6 23:25:26","LION",NA,NA,"[{""cat"":24,""src"":2,""loc"":1},{""cat"":6,""src"":7,""loc"":2},{""cat"":29,""src"":12,""loc"":0},{""cat"":6,""src"":8,""loc"":7},{""cat"":29,""src"":13,""loc"":8},{""cat"":24,""src"":18,""loc"":6},{""cat"":6,""src"":19,""loc"":3},{""cat"":29,""src"":9,""loc"":4},{""cat"":24,""src"":13,""loc"":5}]","2","1110,1102,1107,1105,1106,1104,1103,1103,1102,10684",NA,NA,NA,NA,NA,NA,NA,NA,NA
"33877","flanker_instructions","39","html-keyboard-response","157","2001053","0.0-4.0-87.0","1","2020-1-6 23:25:26","LION",NA,NA,NA,NA,NA,NA,NA,NA,NA,NA,NA,NA,NA,NA
"493","flanker_test","37","image-keyboard-response","158","2002552","0.0-4.0-88.0-0.0","1","2020-1-6 23:25:26","LION",NA,NA,NA,NA,NA,"congruent","left","TRUE",NA,NA,NA,NA,NA,NA
"610","flanker_test","39","image-keyboard-response","159","2004366","0.0-4.0-88.0-0.1","1","2020-1-6 23:25:26","LION",NA,NA,NA,NA,NA,"incongruent","right","TRUE",NA,NA,NA,NA,NA,NA
"419","flanker_test","39","image-keyboard-response","160","2005458","0.0-4.0-88.0-0.2","1","2020-1-6 23:25:26","LION",NA,NA,NA,NA,NA,"congruent","right","TRUE",NA,NA,NA,NA,NA,NA
"612","flanker_test","37","image-keyboard-response","161","2006909","0.0-4.0-88.0-0.3","1","2020-1-6 23:25:26","LION",NA,NA,NA,NA,NA,"incongruent","left","TRUE",NA,NA,NA,NA,NA,NA
"17866","sort_trial",NA,"free-sort","162","2025685","0.0-4.0-89.0","1","2020-1-6 23:25:26","LION",NA,NA,NA,NA,NA,NA,NA,NA,"[{""cat"":24,""src"":2,""x"":60,""y"":419},{""cat"":6,""src"":7,""x"":83,""y"":89},{""cat"":29,""src"":12,""x"":10,""y"":493},{""cat"":6,""src"":8,""x"":12,""y"":192},{""cat"":29,""src"":13,""x"":51,""y"":145},{""cat"":24,""src"":18,""x"":26,""y"":0},{""cat"":6,""src"":19,""x"":8,""y"":310},{""cat"":29,""src"":9,""x"":70,""y"":362},{""cat"":24,""src"":13,""x"":67,""y"":249}]","[{""cat"":""24"",""src"":""13"",""x"":0,""y"":0},{""cat"":""29"",""src"":""9"",""x"":0,""y"":0},{""cat"":""24"",""src"":""2"",""x"":0,""y"":0},{""cat"":""29"",""src"":""12"",""x"":0,""y"":0},{""cat"":""6"",""src"":""19"",""x"":0,""y"":0},{""cat"":""24"",""src"":""18"",""x"":0,""y"":0},{""cat"":""29"",""src"":""13"",""x"":0,""y"":0},{""cat"":""6"",""src"":""8"",""x"":0,""y"":0},{""cat"":""6"",""src"":""7"",""x"":251,""y"":147},{""cat"":""6"",""src"":""7"",""x"":0,""y"":0}]","[{""cat"":24,""src"":13,""loc"":2},{""cat"":29,""src"":9,""loc"":3},{""cat"":24,""src"":2,""loc"":4},{""cat"":29,""src"":12,""loc"":5},{""cat"":6,""src"":19,""loc"":8},{""cat"":24,""src"":18,""loc"":1},{""cat"":29,""src"":13,""loc"":6},{""cat"":6,""src"":8,""loc"":7},{""cat"":6,""src"":7,""loc"":0}]","1","6,24,24,29,24,29,29,6,6,7,18,13,9,2,12,13,8,19,0,1,2,3,4,5,6,7,8,8,5,0,1,2,3,6,7,4",NA
"3079","sort_feedback","32","html-keyboard-response","163","2028765","0.0-4.0-90.0","1","2020-1-6 23:25:26","LION",NA,NA,NA,NA,NA,NA,NA,NA,NA,NA,NA,NA,NA,NA
"26396","setup5",NA,"animation","164","2055162","0.0-4.0-91.0","1","2020-1-6 23:25:26","LION",NA,NA,"[{""cat"":12,""src"":9,""loc"":7},{""cat"":22,""src"":13,""loc"":4},{""cat"":24,""src"":10,""loc"":1},{""cat"":12,""src"":4,""loc"":2},{""cat"":22,""src"":14,""loc"":6},{""cat"":24,""src"":12,""loc"":3},{""cat"":22,""src"":17,""loc"":0},{""cat"":24,""src"":8,""loc"":8},{""cat"":12,""src"":8,""loc"":5}]","5","1110,1102,1185,2015,1987,2005,1993,2000,2002,10997",NA,NA,NA,NA,NA,NA,NA,NA,NA
"4944","flanker_instructions","39","html-keyboard-response","165","2060108","0.0-4.0-92.0","1","2020-1-6 23:25:26","LION",NA,NA,NA,NA,NA,NA,NA,NA,NA,NA,NA,NA,NA,NA
"577","flanker_test","39","image-keyboard-response","166","2061692","0.0-4.0-93.0-0.0","1","2020-1-6 23:25:26","LION",NA,NA,NA,NA,NA,"incongruent","right","TRUE",NA,NA,NA,NA,NA,NA
"440","flanker_test","39","image-keyboard-response","167","2063271","0.0-4.0-93.0-0.1","1","2020-1-6 23:25:26","LION",NA,NA,NA,NA,NA,"congruent","right","TRUE",NA,NA,NA,NA,NA,NA
"420","flanker_test","37","image-keyboard-response","168","2064645","0.0-4.0-93.0-0.2","1","2020-1-6 23:25:26","LION",NA,NA,NA,NA,NA,"congruent","left","TRUE",NA,NA,NA,NA,NA,NA
"418","flanker_test","39","image-keyboard-response","169","2065718","0.0-4.0-93.0-0.3","1","2020-1-6 23:25:26","LION",NA,NA,NA,NA,NA,"incongruent","left","FALSE",NA,NA,NA,NA,NA,NA
"16952","sort_trial",NA,"free-sort","170","2083070","0.0-4.0-94.0","1","2020-1-6 23:25:26","LION",NA,NA,NA,NA,NA,NA,NA,NA,"[{""cat"":12,""src"":9,""x"":68,""y"":360},{""cat"":22,""src"":13,""x"":18,""y"":487},{""cat"":24,""src"":10,""x"":80,""y"":141},{""cat"":12,""src"":4,""x"":62,""y"":181},{""cat"":22,""src"":14,""x"":18,""y"":87},{""cat"":24,""src"":12,""x"":8,""y"":21},{""cat"":22,""src"":17,""x"":26,""y"":248},{""cat"":24,""src"":8,""x"":71,""y"":446},{""cat"":12,""src"":8,""x"":78,""y"":308}]","[{""cat"":""12"",""src"":""8"",""x"":0,""y"":0},{""cat"":""22"",""src"":""17"",""x"":0,""y"":0},{""cat"":""24"",""src"":""10"",""x"":0,""y"":0},{""cat"":""12"",""src"":""4"",""x"":0,""y"":0},{""cat"":""22"",""src"":""14"",""x"":0,""y"":0},{""cat"":""24"",""src"":""12"",""x"":0,""y"":0},{""cat"":""24"",""src"":""8"",""x"":0,""y"":0},{""cat"":""22"",""src"":""13"",""x"":0,""y"":0},{""cat"":""12"",""src"":""9"",""x"":0,""y"":0}]","[{""cat"":12,""src"":8,""loc"":2},{""cat"":22,""src"":17,""loc"":6},{""cat"":24,""src"":10,""loc"":0},{""cat"":12,""src"":4,""loc"":1},{""cat"":22,""src"":14,""loc"":5},{""cat"":24,""src"":12,""loc"":3},{""cat"":24,""src"":8,""loc"":7},{""cat"":22,""src"":13,""loc"":8},{""cat"":12,""src"":9,""loc"":4}]","1","24,12,12,24,12,22,22,24,22,10,4,8,12,9,14,17,8,13,0,1,2,3,4,5,6,7,8,2,3,0,5,8,4,1,6,7",NA
"1107","sort_feedback","32","html-keyboard-response","171","2084178","0.0-4.0-95.0","1","2020-1-6 23:25:26","LION",NA,NA,NA,NA,NA,NA,NA,NA,NA,NA,NA,NA,NA,NA
"25010","setup1",NA,"animation","172","2109189","0.0-4.0-96.0","1","2020-1-6 23:25:26","LION",NA,NA,"[{""cat"":33,""src"":7,""loc"":5},{""cat"":33,""src"":4,""loc"":3},{""cat"":33,""src"":18,""loc"":4},{""cat"":11,""src"":13,""loc"":8},{""cat"":11,""src"":12,""loc"":7},{""cat"":11,""src"":8,""loc"":6},{""cat"":16,""src"":6,""loc"":0},{""cat"":16,""src"":7,""loc"":2},{""cat"":16,""src"":1,""loc"":1}]","1","1110,1115,1103,1668,1999,2001,2000,2004,1996,10014",NA,NA,NA,NA,NA,NA,NA,NA,NA
"1443","flanker_instructions","39","html-keyboard-response","173","2110634","0.0-4.0-97.0","1","2020-1-6 23:25:26","LION",NA,NA,NA,NA,NA,NA,NA,NA,NA,NA,NA,NA,NA,NA
"467","flanker_test","39","image-keyboard-response","174","2112106","0.0-4.0-98.0-0.0","1","2020-1-6 23:25:26","LION",NA,NA,NA,NA,NA,"congruent","right","TRUE",NA,NA,NA,NA,NA,NA
"462","flanker_test","37","image-keyboard-response","175","2113117","0.0-4.0-98.0-0.1","1","2020-1-6 23:25:26","LION",NA,NA,NA,NA,NA,"congruent","left","TRUE",NA,NA,NA,NA,NA,NA
"558","flanker_test","39","image-keyboard-response","176","2114729","0.0-4.0-98.0-0.2","1","2020-1-6 23:25:26","LION",NA,NA,NA,NA,NA,"incongruent","right","TRUE",NA,NA,NA,NA,NA,NA
"562","flanker_test","37","image-keyboard-response","177","2116384","0.0-4.0-98.0-0.3","1","2020-1-6 23:25:26","LION",NA,NA,NA,NA,NA,"incongruent","left","TRUE",NA,NA,NA,NA,NA,NA
"15839","sort_trial",NA,"free-sort","178","2132639","0.0-4.0-99.0","1","2020-1-6 23:25:26","LION",NA,NA,NA,NA,NA,NA,NA,NA,"[{""cat"":33,""src"":7,""x"":48,""y"":64},{""cat"":33,""src"":4,""x"":29,""y"":428},{""cat"":33,""src"":18,""x"":5,""y"":364},{""cat"":11,""src"":13,""x"":45,""y"":13},{""cat"":11,""src"":12,""x"":58,""y"":145},{""cat"":11,""src"":8,""x"":1,""y"":254},{""cat"":16,""src"":6,""x"":37,""y"":299},{""cat"":16,""src"":7,""x"":58,""y"":482},{""cat"":16,""src"":1,""x"":68,""y"":187}]","[{""cat"":""11"",""src"":""8"",""x"":0,""y"":0},{""cat"":""16"",""src"":""1"",""x"":0,""y"":0},{""cat"":""11"",""src"":""12"",""x"":0,""y"":0},{""cat"":""33"",""src"":""7"",""x"":0,""y"":0},{""cat"":""11"",""src"":""13"",""x"":0,""y"":0},{""cat"":""33"",""src"":""4"",""x"":0,""y"":0},{""cat"":""16"",""src"":""7"",""x"":0,""y"":0},{""cat"":""33"",""src"":""18"",""x"":0,""y"":0},{""cat"":""16"",""src"":""6"",""x"":0,""y"":0}]","[{""cat"":11,""src"":8,""loc"":2},{""cat"":16,""src"":1,""loc"":1},{""cat"":11,""src"":12,""loc"":0},{""cat"":33,""src"":7,""loc"":5},{""cat"":11,""src"":13,""loc"":4},{""cat"":33,""src"":4,""loc"":3},{""cat"":16,""src"":7,""loc"":8},{""cat"":33,""src"":18,""loc"":6},{""cat"":16,""src"":6,""loc"":7}]","3","11,16,11,33,11,33,33,16,16,12,1,8,4,13,7,18,6,7,0,1,2,3,4,5,6,7,8,2,1,0,5,4,3,7,8,6",NA
"2051","sort_feedback","32","html-keyboard-response","179","2134692","0.0-4.0-100.0","1","2020-1-6 23:25:26","LION",NA,NA,NA,NA,NA,NA,NA,NA,NA,NA,NA,NA,NA,NA
NA,"breakStart",NA,"html-keyboard-response","180","2165173","0.0-5.0-0.0","1","2020-1-6 23:25:26","LION",NA,NA,NA,NA,NA,NA,NA,NA,NA,NA,NA,NA,NA,NA
"156806","breakEnd",NA,"html-button-response","181","2321980","0.0-5.0-1.0","1","2020-1-6 23:25:26","LION","0",NA,NA,NA,NA,NA,NA,NA,NA,NA,NA,NA,NA,NA
"20192","setup4",NA,"animation","182","2342174","0.0-6.0-0.0","1","2020-1-6 23:25:26","LION",NA,NA,"[{""cat"":9,""src"":16,""loc"":0},{""cat"":9,""src"":4,""loc"":3},{""cat"":9,""src"":1,""loc"":6},{""cat"":11,""src"":15,""loc"":7},{""cat"":11,""src"":17,""loc"":2},{""cat"":11,""src"":1,""loc"":4},{""cat"":24,""src"":6,""loc"":5},{""cat"":24,""src"":13,""loc"":1},{""cat"":24,""src"":15,""loc"":8}]","4","1123,1111,1101,1108,1111,1118,1111,1107,1105,10197",NA,NA,NA,NA,NA,NA,NA,NA,NA
"41619","flanker_instructions","39","html-keyboard-response","183","2383795","0.0-6.0-1.0","1","2020-1-6 23:25:26","LION",NA,NA,NA,NA,NA,NA,NA,NA,NA,NA,NA,NA,NA,NA
"710","flanker_test","39","image-keyboard-response","184","2385514","0.0-6.0-2.0-0.0","1","2020-1-6 23:25:26","LION",NA,NA,NA,NA,NA,"incongruent","right","TRUE",NA,NA,NA,NA,NA,NA
"426","flanker_test","37","image-keyboard-response","185","2386611","0.0-6.0-2.0-0.1","1","2020-1-6 23:25:26","LION",NA,NA,NA,NA,NA,"congruent","left","TRUE",NA,NA,NA,NA,NA,NA
"336","flanker_test","39","image-keyboard-response","186","2387679","0.0-6.0-2.0-0.2","1","2020-1-6 23:25:26","LION",NA,NA,NA,NA,NA,"congruent","right","TRUE",NA,NA,NA,NA,NA,NA
"485","flanker_test","37","image-keyboard-response","187","2388685","0.0-6.0-2.0-0.3","1","2020-1-6 23:25:26","LION",NA,NA,NA,NA,NA,"incongruent","left","TRUE",NA,NA,NA,NA,NA,NA
"18299","sort_trial",NA,"free-sort","188","2407445","0.0-6.0-3.0","1","2020-1-6 23:25:26","LION",NA,NA,NA,NA,NA,NA,NA,NA,"[{""cat"":9,""src"":16,""x"":3,""y"":315},{""cat"":9,""src"":4,""x"":16,""y"":373},{""cat"":9,""src"":1,""x"":40,""y"":256},{""cat"":11,""src"":15,""x"":74,""y"":181},{""cat"":11,""src"":17,""x"":3,""y"":431},{""cat"":11,""src"":1,""x"":49,""y"":133},{""cat"":24,""src"":6,""x"":60,""y"":23},{""cat"":24,""src"":13,""x"":14,""y"":74},{""cat"":24,""src"":15,""x"":26,""y"":507}]","[{""cat"":""9"",""src"":""1"",""x"":0,""y"":0},{""cat"":""9"",""src"":""16"",""x"":0,""y"":0},{""cat"":""11"",""src"":""17"",""x"":0,""y"":0},{""cat"":""24"",""src"":""15"",""x"":0,""y"":0},{""cat"":""9"",""src"":""4"",""x"":0,""y"":0},{""cat"":""11"",""src"":""1"",""x"":0,""y"":0},{""cat"":""11"",""src"":""15"",""x"":256,""y"":112},{""cat"":""24"",""src"":""13"",""x"":0,""y"":0},{""cat"":""11"",""src"":""15"",""x"":0,""y"":0},{""cat"":""24"",""src"":""6"",""x"":0,""y"":0}]","[{""cat"":9,""src"":1,""loc"":2},{""cat"":9,""src"":16,""loc"":6},{""cat"":11,""src"":17,""loc"":7},{""cat"":24,""src"":15,""loc"":3},{""cat"":9,""src"":4,""loc"":4},{""cat"":11,""src"":1,""loc"":8},{""cat"":24,""src"":13,""loc"":0},{""cat"":11,""src"":15,""loc"":5},{""cat"":24,""src"":6,""loc"":1}]","0","24,24,9,24,9,11,9,11,11,13,6,1,15,4,15,16,17,1,0,1,2,3,4,5,6,7,8,6,8,0,3,4,7,1,2,5",NA
"1145","sort_feedback","32","html-keyboard-response","189","2408591","0.0-6.0-4.0","1","2020-1-6 23:25:26","LION",NA,NA,NA,NA,NA,NA,NA,NA,NA,NA,NA,NA,NA,NA
"24582","setup3",NA,"animation","190","2433174","0.0-6.0-5.0","1","2020-1-6 23:25:26","LION",NA,NA,"[{""cat"":28,""src"":11,""loc"":1},{""cat"":6,""src"":14,""loc"":8},{""cat"":4,""src"":12,""loc"":5},{""cat"":6,""src"":3,""loc"":7},{""cat"":4,""src"":16,""loc"":3},{""cat"":28,""src"":9,""loc"":2},{""cat"":28,""src"":5,""loc"":0},{""cat"":4,""src"":5,""loc"":4},{""cat"":6,""src"":13,""loc"":6}]","3","1101,1106,1102,1286,1144,1843,2006,1997,1997,11000",NA,NA,NA,NA,NA,NA,NA,NA,NA
"15540","flanker_instructions","39","html-keyboard-response","191","2448718","0.0-6.0-6.0","1","2020-1-6 23:25:26","LION",NA,NA,NA,NA,NA,NA,NA,NA,NA,NA,NA,NA,NA,NA
"546","flanker_test","37","image-keyboard-response","192","2450279","0.0-6.0-7.0-0.0","1","2020-1-6 23:25:26","LION",NA,NA,NA,NA,NA,"congruent","left","TRUE",NA,NA,NA,NA,NA,NA
"404","flanker_test","39","image-keyboard-response","193","2451370","0.0-6.0-7.0-0.1","1","2020-1-6 23:25:26","LION",NA,NA,NA,NA,NA,"incongruent","left","FALSE",NA,NA,NA,NA,NA,NA
"438","flanker_test","39","image-keyboard-response","194","2452476","0.0-6.0-7.0-0.2","1","2020-1-6 23:25:26","LION",NA,NA,NA,NA,NA,"congruent","right","TRUE",NA,NA,NA,NA,NA,NA
"585","flanker_test","39","image-keyboard-response","195","2454057","0.0-6.0-7.0-0.3","1","2020-1-6 23:25:26","LION",NA,NA,NA,NA,NA,"incongruent","right","TRUE",NA,NA,NA,NA,NA,NA
"16940","sort_trial",NA,"free-sort","196","2471732","0.0-6.0-8.0","1","2020-1-6 23:25:26","LION",NA,NA,NA,NA,NA,NA,NA,NA,"[{""cat"":28,""src"":11,""x"":19,""y"":492},{""cat"":6,""src"":14,""x"":27,""y"":149},{""cat"":4,""src"":12,""x"":20,""y"":60},{""cat"":6,""src"":3,""x"":40,""y"":11},{""cat"":4,""src"":16,""x"":39,""y"":264},{""cat"":28,""src"":9,""x"":49,""y"":381},{""cat"":28,""src"":5,""x"":21,""y"":429},{""cat"":4,""src"":5,""x"":73,""y"":199},{""cat"":6,""src"":13,""x"":73,""y"":310}]","[{""cat"":""6"",""src"":""13"",""x"":0,""y"":0},{""cat"":""4"",""src"":""16"",""x"":0,""y"":0},{""cat"":""28"",""src"":""5"",""x"":0,""y"":0},{""cat"":""28"",""src"":""11"",""x"":0,""y"":0},{""cat"":""28"",""src"":""9"",""x"":0,""y"":0},{""cat"":""4"",""src"":""5"",""x"":0,""y"":0},{""cat"":""6"",""src"":""14"",""x"":0,""y"":0},{""cat"":""4"",""src"":""12"",""x"":0,""y"":0},{""cat"":""6"",""src"":""3"",""x"":0,""y"":0}]","[{""cat"":6,""src"":13,""loc"":2},{""cat"":4,""src"":16,""loc"":6},{""cat"":28,""src"":5,""loc"":7},{""cat"":28,""src"":11,""loc"":8},{""cat"":28,""src"":9,""loc"":0},{""cat"":4,""src"":5,""loc"":5},{""cat"":6,""src"":14,""loc"":3},{""cat"":4,""src"":12,""loc"":4},{""cat"":6,""src"":3,""loc"":1}]","0","28,6,6,6,4,4,4,28,28,9,3,13,14,12,5,16,5,11,0,1,2,3,4,5,6,7,8,4,8,0,6,7,5,1,2,3",NA
"22440","sort_feedback","32","html-keyboard-response","197","2494173","0.0-6.0-9.0","1","2020-1-6 23:25:26","LION",NA,NA,NA,NA,NA,NA,NA,NA,NA,NA,NA,NA,NA,NA
"26006","setup2",NA,"animation","198","2520180","0.0-6.0-10.0","1","2020-1-6 23:25:26","LION",NA,NA,"[{""cat"":12,""src"":18,""loc"":0},{""cat"":23,""src"":4,""loc"":1},{""cat"":32,""src"":1,""loc"":2},{""cat"":32,""src"":7,""loc"":8},{""cat"":23,""src"":5,""loc"":7},{""cat"":12,""src"":11,""loc"":6},{""cat"":23,""src"":17,""loc"":5},{""cat"":32,""src"":10,""loc"":4},{""cat"":12,""src"":7,""loc"":3}]","2","1102,1102,1103,1695,2011,1988,2015,1984,2015,10991",NA,NA,NA,NA,NA,NA,NA,NA,NA
"33921","flanker_instructions","39","html-keyboard-response","199","2554103","0.0-6.0-11.0","1","2020-1-6 23:25:26","LION",NA,NA,NA,NA,NA,NA,NA,NA,NA,NA,NA,NA,NA,NA
"577","flanker_test","39","image-keyboard-response","200","2555685","0.0-6.0-12.0-0.0","1","2020-1-6 23:25:26","LION",NA,NA,NA,NA,NA,"congruent","right","TRUE",NA,NA,NA,NA,NA,NA
"429","flanker_test","37","image-keyboard-response","201","2557093","0.0-6.0-12.0-0.1","1","2020-1-6 23:25:26","LION",NA,NA,NA,NA,NA,"congruent","left","TRUE",NA,NA,NA,NA,NA,NA
"589","flanker_test","39","image-keyboard-response","202","2558040","0.0-6.0-12.0-0.2","1","2020-1-6 23:25:26","LION",NA,NA,NA,NA,NA,"incongruent","right","TRUE",NA,NA,NA,NA,NA,NA
"547","flanker_test","37","image-keyboard-response","203","2559216","0.0-6.0-12.0-0.3","1","2020-1-6 23:25:26","LION",NA,NA,NA,NA,NA,"incongruent","left","TRUE",NA,NA,NA,NA,NA,NA
"15249","sort_trial",NA,"free-sort","204","2574982","0.0-6.0-13.0","1","2020-1-6 23:25:26","LION",NA,NA,NA,NA,NA,NA,NA,NA,"[{""cat"":12,""src"":18,""x"":72,""y"":374},{""cat"":23,""src"":4,""x"":56,""y"":245},{""cat"":32,""src"":1,""x"":63,""y"":78},{""cat"":32,""src"":7,""x"":69,""y"":437},{""cat"":23,""src"":5,""x"":42,""y"":306},{""cat"":12,""src"":11,""x"":81,""y"":17},{""cat"":23,""src"":17,""x"":53,""y"":188},{""cat"":32,""src"":10,""x"":11,""y"":140},{""cat"":12,""src"":7,""x"":1,""y"":481}]","[{""cat"":""23"",""src"":""4"",""x"":0,""y"":0},{""cat"":""23"",""src"":""5"",""x"":0,""y"":0},{""cat"":""12"",""src"":""18"",""x"":0,""y"":0},{""cat"":""32"",""src"":""7"",""x"":0,""y"":0},{""cat"":""12"",""src"":""7"",""x"":0,""y"":0},{""cat"":""23"",""src"":""17"",""x"":0,""y"":0},{""cat"":""32"",""src"":""10"",""x"":0,""y"":0},{""cat"":""12"",""src"":""11"",""x"":0,""y"":0},{""cat"":""32"",""src"":""1"",""x"":0,""y"":0}]","[{""cat"":23,""src"":4,""loc"":2},{""cat"":23,""src"":5,""loc"":6},{""cat"":12,""src"":18,""loc"":7},{""cat"":32,""src"":7,""loc"":8},{""cat"":12,""src"":7,""loc"":5},{""cat"":23,""src"":17,""loc"":3},{""cat"":32,""src"":10,""loc"":4},{""cat"":12,""src"":11,""loc"":1},{""cat"":32,""src"":1,""loc"":0}]","2","32,12,23,23,32,12,23,12,32,1,11,4,17,10,7,5,18,7,0,1,2,3,4,5,6,7,8,8,7,0,5,6,4,1,2,3",NA
"1977","sort_feedback","32","html-keyboard-response","205","2576960","0.0-6.0-14.0","1","2020-1-6 23:25:26","LION",NA,NA,NA,NA,NA,NA,NA,NA,NA,NA,NA,NA,NA,NA
"26225","setup5",NA,"animation","206","2603186","0.0-6.0-15.0","1","2020-1-6 23:25:26","LION",NA,NA,"[{""cat"":12,""src"":6,""loc"":2},{""cat"":6,""src"":15,""loc"":3},{""cat"":10,""src"":15,""loc"":7},{""cat"":12,""src"":12,""loc"":4},{""cat"":10,""src"":6,""loc"":1},{""cat"":6,""src"":9,""loc"":6},{""cat"":12,""src"":17,""loc"":8},{""cat"":6,""src"":0,""loc"":0},{""cat"":10,""src"":13,""loc"":5}]","5","1114,1102,2010,1989,1999,2007,2002,1996,2005,10001",NA,NA,NA,NA,NA,NA,NA,NA,NA
"1439","flanker_instructions","39","html-keyboard-response","207","2604626","0.0-6.0-16.0","1","2020-1-6 23:25:26","LION",NA,NA,NA,NA,NA,NA,NA,NA,NA,NA,NA,NA,NA,NA
"471","flanker_test","37","image-keyboard-response","208","2606104","0.0-6.0-17.0-0.0","1","2020-1-6 23:25:26","LION",NA,NA,NA,NA,NA,"congruent","left","TRUE",NA,NA,NA,NA,NA,NA
"437","flanker_test","39","image-keyboard-response","209","2607712","0.0-6.0-17.0-0.1","1","2020-1-6 23:25:26","LION",NA,NA,NA,NA,NA,"incongruent","left","FALSE",NA,NA,NA,NA,NA,NA
"678","flanker_test","39","image-keyboard-response","210","2608892","0.0-6.0-17.0-0.2","1","2020-1-6 23:25:26","LION",NA,NA,NA,NA,NA,"incongruent","right","TRUE",NA,NA,NA,NA,NA,NA
"423","flanker_test","39","image-keyboard-response","211","2609808","0.0-6.0-17.0-0.3","1","2020-1-6 23:25:26","LION",NA,NA,NA,NA,NA,"congruent","right","TRUE",NA,NA,NA,NA,NA,NA
"16830","sort_trial",NA,"free-sort","212","2627537","0.0-6.0-18.0","1","2020-1-6 23:25:26","LION",NA,NA,NA,NA,NA,NA,NA,NA,"[{""cat"":12,""src"":6,""x"":68,""y"":71},{""cat"":6,""src"":15,""x"":60,""y"":482},{""cat"":10,""src"":15,""x"":23,""y"":22},{""cat"":12,""src"":12,""x"":43,""y"":423},{""cat"":10,""src"":6,""x"":17,""y"":319},{""cat"":6,""src"":9,""x"":29,""y"":207},{""cat"":12,""src"":17,""x"":56,""y"":362},{""cat"":6,""src"":0,""x"":75,""y"":263},{""cat"":10,""src"":13,""x"":7,""y"":146}]","[{""cat"":""6"",""src"":""0"",""x"":0,""y"":0},{""cat"":""10"",""src"":""6"",""x"":0,""y"":0},{""cat"":""12"",""src"":""12"",""x"":0,""y"":0},{""cat"":""6"",""src"":""15"",""x"":0,""y"":0},{""cat"":""12"",""src"":""6"",""x"":0,""y"":0},{""cat"":""6"",""src"":""9"",""x"":0,""y"":0},{""cat"":""10"",""src"":""13"",""x"":0,""y"":0},{""cat"":""12"",""src"":""17"",""x"":0,""y"":0},{""cat"":""10"",""src"":""15"",""x"":0,""y"":0}]","[{""cat"":6,""src"":0,""loc"":2},{""cat"":10,""src"":6,""loc"":6},{""cat"":12,""src"":12,""loc"":8},{""cat"":6,""src"":15,""loc"":3},{""cat"":12,""src"":6,""loc"":5},{""cat"":6,""src"":9,""loc"":1},{""cat"":10,""src"":13,""loc"":4},{""cat"":12,""src"":17,""loc"":0},{""cat"":10,""src"":15,""loc"":7}]","2","12,6,6,6,10,12,10,10,12,17,9,0,15,13,6,6,15,12,0,1,2,3,4,5,6,7,8,7,5,0,3,6,4,1,8,2",NA
"63324","sort_feedback","32","html-keyboard-response","213","2690862","0.0-6.0-19.0","1","2020-1-6 23:25:26","LION",NA,NA,NA,NA,NA,NA,NA,NA,NA,NA,NA,NA,NA,NA
"19948","setup1",NA,"animation","214","2710812","0.0-6.0-20.0","1","2020-1-6 23:25:26","LION",NA,NA,"[{""cat"":30,""src"":1,""loc"":2},{""cat"":30,""src"":17,""loc"":0},{""cat"":30,""src"":8,""loc"":1},{""cat"":24,""src"":0,""loc"":4},{""cat"":24,""src"":13,""loc"":5},{""cat"":24,""src"":2,""loc"":3},{""cat"":20,""src"":18,""loc"":6},{""cat"":20,""src"":3,""loc"":8},{""cat"":20,""src"":1,""loc"":7}]","1","1106,1102,1104,1104,1103,1102,1102,1103,1104,10018",NA,NA,NA,NA,NA,NA,NA,NA,NA
"6794","flanker_instructions","39","html-keyboard-response","215","2717607","0.0-6.0-21.0","1","2020-1-6 23:25:26","LION",NA,NA,NA,NA,NA,NA,NA,NA,NA,NA,NA,NA,NA,NA
"532","flanker_test","37","image-keyboard-response","216","2719150","0.0-6.0-22.0-0.0","1","2020-1-6 23:25:26","LION",NA,NA,NA,NA,NA,"congruent","left","TRUE",NA,NA,NA,NA,NA,NA
"533","flanker_test","39","image-keyboard-response","217","2720252","0.0-6.0-22.0-0.1","1","2020-1-6 23:25:26","LION",NA,NA,NA,NA,NA,"incongruent","right","TRUE",NA,NA,NA,NA,NA,NA
"449","flanker_test","39","image-keyboard-response","218","2721410","0.0-6.0-22.0-0.2","1","2020-1-6 23:25:26","LION",NA,NA,NA,NA,NA,"congruent","right","TRUE",NA,NA,NA,NA,NA,NA
"594","flanker_test","37","image-keyboard-response","219","2722938","0.0-6.0-22.0-0.3","1","2020-1-6 23:25:26","LION",NA,NA,NA,NA,NA,"incongruent","left","TRUE",NA,NA,NA,NA,NA,NA
"16718","sort_trial",NA,"free-sort","220","2740290","0.0-6.0-23.0","1","2020-1-6 23:25:26","LION",NA,NA,NA,NA,NA,NA,NA,NA,"[{""cat"":30,""src"":1,""x"":14,""y"":307},{""cat"":30,""src"":17,""x"":83,""y"":136},{""cat"":30,""src"":8,""x"":59,""y"":375},{""cat"":24,""src"":0,""x"":41,""y"":507},{""cat"":24,""src"":13,""x"":58,""y"":27},{""cat"":24,""src"":2,""x"":5,""y"":441},{""cat"":20,""src"":18,""x"":67,""y"":84},{""cat"":20,""src"":3,""x"":61,""y"":263},{""cat"":20,""src"":1,""x"":71,""y"":195}]","[{""cat"":""20"",""src"":""1"",""x"":0,""y"":0},{""cat"":""20"",""src"":""3"",""x"":0,""y"":0},{""cat"":""30"",""src"":""8"",""x"":0,""y"":0},{""cat"":""24"",""src"":""0"",""x"":0,""y"":0},{""cat"":""24"",""src"":""2"",""x"":0,""y"":0},{""cat"":""30"",""src"":""1"",""x"":0,""y"":0},{""cat"":""20"",""src"":""18"",""x"":0,""y"":0},{""cat"":""30"",""src"":""17"",""x"":0,""y"":0},{""cat"":""24"",""src"":""13"",""x"":0,""y"":0}]","[{""cat"":20,""src"":1,""loc"":2},{""cat"":20,""src"":3,""loc"":6},{""cat"":30,""src"":8,""loc"":7},{""cat"":24,""src"":0,""loc"":8},{""cat"":24,""src"":2,""loc"":5},{""cat"":30,""src"":1,""loc"":3},{""cat"":20,""src"":18,""loc"":1},{""cat"":30,""src"":17,""loc"":4},{""cat"":24,""src"":13,""loc"":0}]","0","24,20,20,30,30,24,20,30,24,13,18,1,1,17,2,3,8,0,0,1,2,3,4,5,6,7,8,8,6,0,5,7,4,1,2,3",NA
"1365","sort_feedback","32","html-keyboard-response","221","2741656","0.0-6.0-24.0","1","2020-1-6 23:25:26","LION",NA,NA,NA,NA,NA,NA,NA,NA,NA,NA,NA,NA,NA,NA
"24532","setup3",NA,"animation","222","2766189","0.0-6.0-25.0","1","2020-1-6 23:25:26","LION",NA,NA,"[{""cat"":3,""src"":9,""loc"":6},{""cat"":27,""src"":1,""loc"":4},{""cat"":17,""src"":13,""loc"":1},{""cat"":3,""src"":6,""loc"":7},{""cat"":17,""src"":11,""loc"":0},{""cat"":27,""src"":12,""loc"":5},{""cat"":17,""src"":5,""loc"":2},{""cat"":27,""src"":14,""loc"":3},{""cat"":3,""src"":15,""loc"":8}]","3","1107,1101,1102,1114,1160,1933,2013,1987,1999,11015",NA,NA,NA,NA,NA,NA,NA,NA,NA
"17292","flanker_instructions","39","html-keyboard-response","223","2783489","0.0-6.0-26.0","1","2020-1-6 23:25:26","LION",NA,NA,NA,NA,NA,NA,NA,NA,NA,NA,NA,NA,NA,NA
"592","flanker_test","39","image-keyboard-response","224","2785084","0.0-6.0-27.0-0.0","1","2020-1-6 23:25:26","LION",NA,NA,NA,NA,NA,"incongruent","right","TRUE",NA,NA,NA,NA,NA,NA
"512","flanker_test","39","image-keyboard-response","225","2785950","0.0-6.0-27.0-0.1","1","2020-1-6 23:25:26","LION",NA,NA,NA,NA,NA,"congruent","right","TRUE",NA,NA,NA,NA,NA,NA
"496","flanker_test","37","image-keyboard-response","226","2787172","0.0-6.0-27.0-0.2","1","2020-1-6 23:25:26","LION",NA,NA,NA,NA,NA,"congruent","left","TRUE",NA,NA,NA,NA,NA,NA
NA,"flanker_test",NA,"image-keyboard-response","227","2788940","0.0-6.0-27.0-0.3","1","2020-1-6 23:25:26","LION",NA,NA,NA,NA,NA,"incongruent","left","FALSE",NA,NA,NA,NA,NA,NA
"18709","sort_trial",NA,"free-sort","228","2808522","0.0-6.0-28.0","1","2020-1-6 23:25:26","LION",NA,NA,NA,NA,NA,NA,NA,NA,"[{""cat"":3,""src"":9,""x"":25,""y"":362},{""cat"":27,""src"":1,""x"":37,""y"":320},{""cat"":17,""src"":13,""x"":17,""y"":191},{""cat"":3,""src"":6,""x"":83,""y"":261},{""cat"":17,""src"":11,""x"":38,""y"":121},{""cat"":27,""src"":12,""x"":7,""y"":490},{""cat"":17,""src"":5,""x"":2,""y"":428},{""cat"":27,""src"":14,""x"":5,""y"":16},{""cat"":3,""src"":15,""x"":39,""y"":71}]","[{""cat"":""3"",""src"":""6"",""x"":0,""y"":0},{""cat"":""27"",""src"":""1"",""x"":0,""y"":0},{""cat"":""3"",""src"":""9"",""x"":532,""y"":342},{""cat"":""17"",""src"":""5"",""x"":0,""y"":0},{""cat"":""27"",""src"":""12"",""x"":0,""y"":0},{""cat"":""3"",""src"":""9"",""x"":0,""y"":0},{""cat"":""3"",""src"":""15"",""x"":0,""y"":0},{""cat"":""17"",""src"":""11"",""x"":0,""y"":0},{""cat"":""17"",""src"":""13"",""x"":0,""y"":0},{""cat"":""27"",""src"":""14"",""x"":0,""y"":0}]","[{""cat"":3,""src"":6,""loc"":5},{""cat"":27,""src"":1,""loc"":2},{""cat"":17,""src"":5,""loc"":6},{""cat"":27,""src"":12,""loc"":8},{""cat"":3,""src"":9,""loc"":7},{""cat"":3,""src"":15,""loc"":0},{""cat"":17,""src"":11,""loc"":1},{""cat"":17,""src"":13,""loc"":3},{""cat"":27,""src"":14,""loc"":4}]","0","3,17,27,17,27,3,17,3,27,15,11,1,13,14,6,5,9,12,0,1,2,3,4,5,6,7,8,5,6,1,7,8,0,2,4,3",NA
"1792","sort_feedback","32","html-keyboard-response","229","2810315","0.0-6.0-29.0","1","2020-1-6 23:25:26","LION",NA,NA,NA,NA,NA,NA,NA,NA,NA,NA,NA,NA,NA,NA
"22858","setup5",NA,"animation","230","2833174","0.0-6.0-30.0","1","2020-1-6 23:25:26","LION",NA,NA,"[{""cat"":5,""src"":1,""loc"":8},{""cat"":31,""src"":11,""loc"":5},{""cat"":22,""src"":7,""loc"":2},{""cat"":5,""src"":5,""loc"":1},{""cat"":31,""src"":9,""loc"":7},{""cat"":22,""src"":14,""loc"":3},{""cat"":22,""src"":4,""loc"":6},{""cat"":31,""src"":5,""loc"":0},{""cat"":5,""src"":6,""loc"":4}]","5","1103,1101,1102,1553,1999,2000,1786,1101,1103,10010",NA,NA,NA,NA,NA,NA,NA,NA,NA
"15318","flanker_instructions","39","html-keyboard-response","231","2848493","0.0-6.0-31.0","1","2020-1-6 23:25:26","LION",NA,NA,NA,NA,NA,NA,NA,NA,NA,NA,NA,NA,NA,NA
NA,"flanker_test",NA,"image-keyboard-response","232","2850397","0.0-6.0-32.0-0.0","1","2020-1-6 23:25:26","LION",NA,NA,NA,NA,NA,"incongruent","left","FALSE",NA,NA,NA,NA,NA,NA
"472","flanker_test","39","image-keyboard-response","233","2851601","0.0-6.0-32.0-0.1","1","2020-1-6 23:25:26","LION",NA,NA,NA,NA,NA,"congruent","right","TRUE",NA,NA,NA,NA,NA,NA
"556","flanker_test","39","image-keyboard-response","234","2852696","0.0-6.0-32.0-0.2","1","2020-1-6 23:25:26","LION",NA,NA,NA,NA,NA,"incongruent","right","TRUE",NA,NA,NA,NA,NA,NA
"413","flanker_test","37","image-keyboard-response","235","2853742","0.0-6.0-32.0-0.3","1","2020-1-6 23:25:26","LION",NA,NA,NA,NA,NA,"congruent","left","TRUE",NA,NA,NA,NA,NA,NA
"15806","sort_trial",NA,"free-sort","236","2870610","0.0-6.0-33.0","1","2020-1-6 23:25:26","LION",NA,NA,NA,NA,NA,NA,NA,NA,"[{""cat"":5,""src"":1,""x"":22,""y"":378},{""cat"":31,""src"":11,""x"":24,""y"":248},{""cat"":22,""src"":7,""x"":77,""y"":89},{""cat"":5,""src"":5,""x"":38,""y"":443},{""cat"":31,""src"":9,""x"":4,""y"":204},{""cat"":22,""src"":14,""x"":17,""y"":9},{""cat"":22,""src"":4,""x"":9,""y"":146},{""cat"":31,""src"":5,""x"":69,""y"":316},{""cat"":5,""src"":6,""x"":9,""y"":502}]","[{""cat"":""31"",""src"":""11"",""x"":0,""y"":0},{""cat"":""31"",""src"":""9"",""x"":0,""y"":0},{""cat"":""22"",""src"":""7"",""x"":0,""y"":0},{""cat"":""22"",""src"":""4"",""x"":0,""y"":0},{""cat"":""5"",""src"":""1"",""x"":0,""y"":0},{""cat"":""5"",""src"":""5"",""x"":0,""y"":0},{""cat"":""5"",""src"":""6"",""x"":0,""y"":0},{""cat"":""31"",""src"":""5"",""x"":0,""y"":0},{""cat"":""22"",""src"":""14"",""x"":0,""y"":0}]","[{""cat"":31,""src"":11,""loc"":2},{""cat"":31,""src"":9,""loc"":1},{""cat"":22,""src"":7,""loc"":0},{""cat"":22,""src"":4,""loc"":3},{""cat"":5,""src"":1,""loc"":7},{""cat"":5,""src"":5,""loc"":6},{""cat"":5,""src"":6,""loc"":8},{""cat"":31,""src"":5,""loc"":4},{""cat"":22,""src"":14,""loc"":5}]","0","22,31,31,22,31,22,5,5,5,7,9,11,4,5,14,5,1,6,0,1,2,3,4,5,6,7,8,2,1,0,3,7,8,5,4,6",NA
"1668","sort_feedback","32","html-keyboard-response","237","2872279","0.0-6.0-34.0","1","2020-1-6 23:25:26","LION",NA,NA,NA,NA,NA,NA,NA,NA,NA,NA,NA,NA,NA,NA
"25900","setup4",NA,"animation","238","2898180","0.0-6.0-35.0","1","2020-1-6 23:25:26","LION",NA,NA,"[{""cat"":20,""src"":1,""loc"":5},{""cat"":20,""src"":7,""loc"":8},{""cat"":20,""src"":9,""loc"":2},{""cat"":7,""src"":13,""loc"":0},{""cat"":7,""src"":9,""loc"":7},{""cat"":7,""src"":2,""loc"":3},{""cat"":33,""src"":6,""loc"":4},{""cat"":33,""src"":12,""loc"":6},{""cat"":33,""src"":3,""loc"":1}]","4","1102,1102,1692,2123,1876,2000,2001,1999,2004,10001",NA,NA,NA,NA,NA,NA,NA,NA,NA
"2161","flanker_instructions","39","html-keyboard-response","239","2900342","0.0-6.0-36.0","1","2020-1-6 23:25:26","LION",NA,NA,NA,NA,NA,NA,NA,NA,NA,NA,NA,NA,NA,NA
NA,"flanker_test",NA,"image-keyboard-response","240","2902245","0.0-6.0-37.0-0.0","1","2020-1-6 23:25:26","LION",NA,NA,NA,NA,NA,"congruent","right","FALSE",NA,NA,NA,NA,NA,NA
"753","flanker_test","39","image-keyboard-response","241","2903639","0.0-6.0-37.0-0.1","1","2020-1-6 23:25:26","LION",NA,NA,NA,NA,NA,"incongruent","right","TRUE",NA,NA,NA,NA,NA,NA
"590","flanker_test","37","image-keyboard-response","242","2904778","0.0-6.0-37.0-0.2","1","2020-1-6 23:25:26","LION",NA,NA,NA,NA,NA,"incongruent","left","TRUE",NA,NA,NA,NA,NA,NA
"509","flanker_test","37","image-keyboard-response","243","2905805","0.0-6.0-37.0-0.3","1","2020-1-6 23:25:26","LION",NA,NA,NA,NA,NA,"congruent","left","TRUE",NA,NA,NA,NA,NA,NA
"15044","sort_trial",NA,"free-sort","244","2921379","0.0-6.0-38.0","1","2020-1-6 23:25:26","LION",NA,NA,NA,NA,NA,NA,NA,NA,"[{""cat"":20,""src"":1,""x"":4,""y"":495},{""cat"":20,""src"":7,""x"":39,""y"":76},{""cat"":20,""src"":9,""x"":19,""y"":120},{""cat"":7,""src"":13,""x"":58,""y"":420},{""cat"":7,""src"":9,""x"":12,""y"":197},{""cat"":7,""src"":2,""x"":38,""y"":328},{""cat"":33,""src"":6,""x"":31,""y"":248},{""cat"":33,""src"":12,""x"":51,""y"":371},{""cat"":33,""src"":3,""x"":5,""y"":28}]","[{""cat"":""33"",""src"":""6"",""x"":0,""y"":0},{""cat"":""7"",""src"":""9"",""x"":0,""y"":0},{""cat"":""20"",""src"":""7"",""x"":0,""y"":0},{""cat"":""20"",""src"":""9"",""x"":0,""y"":0},{""cat"":""33"",""src"":""12"",""x"":0,""y"":0},{""cat"":""7"",""src"":""13"",""x"":0,""y"":0},{""cat"":""20"",""src"":""1"",""x"":0,""y"":0},{""cat"":""7"",""src"":""2"",""x"":0,""y"":0},{""cat"":""33"",""src"":""3"",""x"":0,""y"":0}]","[{""cat"":33,""src"":6,""loc"":2},{""cat"":7,""src"":9,""loc"":1},{""cat"":20,""src"":7,""loc"":0},{""cat"":20,""src"":9,""loc"":5},{""cat"":33,""src"":12,""loc"":8},{""cat"":7,""src"":13,""loc"":6},{""cat"":20,""src"":1,""loc"":7},{""cat"":7,""src"":2,""loc"":4},{""cat"":33,""src"":3,""loc"":3}]","0","20,7,33,33,7,20,7,20,33,7,9,6,3,2,9,13,1,12,0,1,2,3,4,5,6,7,8,2,1,0,8,7,3,5,6,4",NA
"1683","sort_feedback","32","html-keyboard-response","245","2923064","0.0-6.0-39.0","1","2020-1-6 23:25:26","LION",NA,NA,NA,NA,NA,NA,NA,NA,NA,NA,NA,NA,NA,NA
"21326","setup1",NA,"animation","246","2944390","0.0-6.0-40.0","1","2020-1-6 23:25:26","LION",NA,NA,"[{""cat"":7,""src"":19,""loc"":1},{""cat"":7,""src"":6,""loc"":2},{""cat"":7,""src"":11,""loc"":0},{""cat"":14,""src"":14,""loc"":6},{""cat"":14,""src"":10,""loc"":7},{""cat"":14,""src"":4,""loc"":8},{""cat"":22,""src"":18,""loc"":4},{""cat"":22,""src"":2,""loc"":5},{""cat"":22,""src"":9,""loc"":3}]","1","1102,1102,1911,1701,1101,1102,1102,1102,1102,10001",NA,NA,NA,NA,NA,NA,NA,NA,NA
"1416","flanker_instructions","39","html-keyboard-response","247","2945807","0.0-6.0-41.0","1","2020-1-6 23:25:26","LION",NA,NA,NA,NA,NA,NA,NA,NA,NA,NA,NA,NA,NA,NA
"573","flanker_test","39","image-keyboard-response","248","2947383","0.0-6.0-42.0-0.0","1","2020-1-6 23:25:26","LION",NA,NA,NA,NA,NA,"incongruent","right","TRUE",NA,NA,NA,NA,NA,NA
"458","flanker_test","39","image-keyboard-response","249","2948938","0.0-6.0-42.0-0.1","1","2020-1-6 23:25:26","LION",NA,NA,NA,NA,NA,"congruent","right","TRUE",NA,NA,NA,NA,NA,NA
"622","flanker_test","37","image-keyboard-response","250","2950618","0.0-6.0-42.0-0.2","1","2020-1-6 23:25:26","LION",NA,NA,NA,NA,NA,"incongruent","left","TRUE",NA,NA,NA,NA,NA,NA
"536","flanker_test","37","image-keyboard-response","251","2951755","0.0-6.0-42.0-0.3","1","2020-1-6 23:25:26","LION",NA,NA,NA,NA,NA,"congruent","left","TRUE",NA,NA,NA,NA,NA,NA
"33928","sort_trial",NA,"free-sort","252","2986676","0.0-6.0-43.0","1","2020-1-6 23:25:26","LION",NA,NA,NA,NA,NA,NA,NA,NA,"[{""cat"":7,""src"":19,""x"":19,""y"":359},{""cat"":7,""src"":6,""x"":27,""y"":439},{""cat"":7,""src"":11,""x"":65,""y"":132},{""cat"":14,""src"":14,""x"":20,""y"":20},{""cat"":14,""src"":10,""x"":60,""y"":205},{""cat"":14,""src"":4,""x"":22,""y"":311},{""cat"":22,""src"":18,""x"":76,""y"":60},{""cat"":22,""src"":2,""x"":30,""y"":263},{""cat"":22,""src"":9,""x"":2,""y"":505}]","[{""cat"":""7"",""src"":""11"",""x"":0,""y"":0},{""cat"":""7"",""src"":""19"",""x"":0,""y"":0},{""cat"":""7"",""src"":""6"",""x"":360,""y"":173},{""cat"":""7"",""src"":""6"",""x"":0,""y"":0},{""cat"":""14"",""src"":""10"",""x"":0,""y"":0},{""cat"":""14"",""src"":""14"",""x"":0,""y"":0},{""cat"":""14"",""src"":""4"",""x"":0,""y"":0},{""cat"":""22"",""src"":""9"",""x"":0,""y"":0},{""cat"":""22"",""src"":""18"",""x"":0,""y"":0},{""cat"":""22"",""src"":""2"",""x"":0,""y"":0}]","[{""cat"":7,""src"":11,""loc"":0},{""cat"":7,""src"":19,""loc"":1},{""cat"":7,""src"":6,""loc"":2},{""cat"":14,""src"":10,""loc"":8},{""cat"":14,""src"":14,""loc"":6},{""cat"":14,""src"":4,""loc"":7},{""cat"":22,""src"":9,""loc"":5},{""cat"":22,""src"":18,""loc"":4},{""cat"":22,""src"":2,""loc"":3}]","5","7,7,7,22,22,22,14,14,14,11,19,6,2,18,9,14,4,10,0,1,2,3,4,5,6,7,8,0,1,2,8,7,6,4,5,3",NA
"3194","sort_feedback","32","html-keyboard-response","253","2989871","0.0-6.0-44.0","1","2020-1-6 23:25:26","LION",NA,NA,NA,NA,NA,NA,NA,NA,NA,NA,NA,NA,NA,NA
"27302","setup2",NA,"animation","254","3017174","0.0-6.0-45.0","1","2020-1-6 23:25:26","LION",NA,NA,"[{""cat"":5,""src"":4,""loc"":7},{""cat"":18,""src"":11,""loc"":6},{""cat"":4,""src"":13,""loc"":8},{""cat"":4,""src"":15,""loc"":2},{""cat"":18,""src"":1,""loc"":1},{""cat"":5,""src"":13,""loc"":0},{""cat"":18,""src"":6,""loc"":3},{""cat"":4,""src"":6,""loc"":4},{""cat"":5,""src"":2,""loc"":5}]","2","1101,1101,2101,1999,2001,1999,2000,2001,2000,10999",NA,NA,NA,NA,NA,NA,NA,NA,NA
"18419","flanker_instructions","39","html-keyboard-response","255","3035596","0.0-6.0-46.0","1","2020-1-6 23:25:26","LION",NA,NA,NA,NA,NA,NA,NA,NA,NA,NA,NA,NA,NA,NA
"556","flanker_test","39","image-keyboard-response","256","3037155","0.0-6.0-47.0-0.0","1","2020-1-6 23:25:26","LION",NA,NA,NA,NA,NA,"congruent","right","TRUE",NA,NA,NA,NA,NA,NA
"610","flanker_test","39","image-keyboard-response","257","3038773","0.0-6.0-47.0-0.1","1","2020-1-6 23:25:26","LION",NA,NA,NA,NA,NA,"incongruent","right","TRUE",NA,NA,NA,NA,NA,NA
NA,"flanker_test",NA,"image-keyboard-response","258","3040211","0.0-6.0-47.0-0.2","1","2020-1-6 23:25:26","LION",NA,NA,NA,NA,NA,"incongruent","left","FALSE",NA,NA,NA,NA,NA,NA
"507","flanker_test","37","image-keyboard-response","259","3041442","0.0-6.0-47.0-0.3","1","2020-1-6 23:25:26","LION",NA,NA,NA,NA,NA,"congruent","left","TRUE",NA,NA,NA,NA,NA,NA
"29748","sort_trial",NA,"free-sort","260","3072110","0.0-6.0-48.0","1","2020-1-6 23:25:26","LION",NA,NA,NA,NA,NA,NA,NA,NA,"[{""cat"":5,""src"":4,""x"":4,""y"":73},{""cat"":18,""src"":11,""x"":17,""y"":189},{""cat"":4,""src"":13,""x"":49,""y"":10},{""cat"":4,""src"":15,""x"":1,""y"":426},{""cat"":18,""src"":1,""x"":66,""y"":321},{""cat"":5,""src"":13,""x"":61,""y"":495},{""cat"":18,""src"":6,""x"":82,""y"":365},{""cat"":4,""src"":6,""x"":82,""y"":125},{""cat"":5,""src"":2,""x"":15,""y"":255}]","[{""cat"":""18"",""src"":""11"",""x"":0,""y"":0},{""cat"":""5"",""src"":""2"",""x"":0,""y"":0},{""cat"":""18"",""src"":""6"",""x"":0,""y"":0},{""cat"":""4"",""src"":""6"",""x"":0,""y"":0},{""cat"":""4"",""src"":""15"",""x"":0,""y"":0},{""cat"":""5"",""src"":""13"",""x"":0,""y"":0},{""cat"":""18"",""src"":""1"",""x"":0,""y"":0},{""cat"":""4"",""src"":""13"",""x"":0,""y"":0},{""cat"":""5"",""src"":""4"",""x"":0,""y"":0}]","[{""cat"":18,""src"":11,""loc"":0},{""cat"":5,""src"":2,""loc"":2},{""cat"":18,""src"":6,""loc"":1},{""cat"":4,""src"":6,""loc"":6},{""cat"":4,""src"":15,""loc"":7},{""cat"":5,""src"":13,""loc"":8},{""cat"":18,""src"":1,""loc"":4},{""cat"":4,""src"":13,""loc"":3},{""cat"":5,""src"":4,""loc"":5}]","0","18,18,5,4,18,5,4,4,5,11,6,2,13,1,4,6,15,13,0,1,2,3,4,5,6,7,8,0,2,1,7,6,8,3,4,5",NA
"1347","sort_feedback","32","html-keyboard-response","261","3073458","0.0-6.0-49.0","1","2020-1-6 23:25:26","LION",NA,NA,NA,NA,NA,NA,NA,NA,NA,NA,NA,NA,NA,NA
"1705","demographics",NA,"html-button-response","262","3075164","0.0-7.0-0.0","1","2020-1-6 23:25:26","LION","0",NA,NA,NA,NA,NA,NA,NA,NA,NA,NA,NA,NA,NA
"4705","workerID",NA,"survey-text","263","3079871","0.0-7.0-1.0","1","2020-1-6 23:25:26","LION",NA,NA,NA,NA,NA,NA,NA,NA,NA,NA,NA,NA,NA,"{""Q0"":""A1QEQOI98976S0""}"
"68345","attn_check",NA,"survey-multi-choice","264","3148220","0.0-7.0-2.0","1","2020-1-6 23:25:26","LION",NA,NA,NA,NA,NA,NA,NA,NA,NA,NA,NA,NA,NA,"{""Q0"":""LION""}"
"4936","age",NA,"survey-text","265","3153162","0.0-7.0-3.0","1","2020-1-6 23:25:26","LION",NA,NA,NA,NA,NA,NA,NA,NA,NA,NA,NA,NA,NA,"{""Q0"":""33""}"
"1833","gender",NA,"survey-multi-choice","266","3154997","0.0-7.0-4.0","1","2020-1-6 23:25:26","LION",NA,NA,NA,NA,NA,NA,NA,NA,NA,NA,NA,NA,NA,"{""Q0"":""Male""}"
"2367","ethnic",NA,"survey-multi-choice","267","3157370","0.0-7.0-5.0","1","2020-1-6 23:25:26","LION",NA,NA,NA,NA,NA,NA,NA,NA,NA,NA,NA,NA,NA,"{""Q0"":""Not Hispanic or Latino""}"
"2165","race",NA,"survey-multi-select","268","3159542","0.0-7.0-6.0","1","2020-1-6 23:25:26","LION",NA,NA,NA,NA,NA,NA,NA,NA,NA,NA,NA,NA,NA,"{""Q0"":[""Black or African American""]}"
"2335","english",NA,"survey-multi-choice","269","3161882","0.0-7.0-7.0","1","2020-1-6 23:25:26","LION",NA,NA,NA,NA,NA,NA,NA,NA,NA,NA,NA,NA,NA,"{""Q0"":""Yes""}"
"4371","understand",NA,"survey-multi-choice","270","3166257","0.0-7.0-8.0","1","2020-1-6 23:25:26","LION",NA,NA,NA,NA,NA,NA,NA,NA,NA,NA,NA,NA,NA,"{""Q0"":""No""}"
"4067","strategies",NA,"survey-text","271","3170328","0.0-7.0-9.0","1","2020-1-6 23:25:26","LION",NA,NA,NA,NA,NA,NA,NA,NA,NA,NA,NA,NA,NA,"{""Q0"":""""}"
"1268","comments",NA,"survey-text","272","3171597","0.0-7.0-10.0","1","2020-1-6 23:25:26","LION",NA,NA,NA,NA,NA,NA,NA,NA,NA,NA,NA,NA,NA,"{""Q0"":""""}"
"1205","study_end",NA,"html-button-response","273","3172804","0.0-8.0","1","2020-1-6 23:25:26","LION","0",NA,NA,NA,NA,NA,NA,NA,NA,NA,NA,NA,NA,NA
