"rt","stimulus","key_press","trial_type","trial_index","time_elapsed","internal_node_id","session","startTime","attn_word","button_pressed","view_history","animation_sequence","condition","time_sequence","stim_type","direction","correct","init_locations","moves","final_locations","sort_correct","finalLocations","responses"
"1511","welcome","70","html-keyboard-response","0","1522","0.0-0.0","2","2020-1-7 7:19:46","ZEBRA",NA,NA,NA,NA,NA,NA,NA,NA,NA,NA,NA,NA,NA,NA
"2732","consent",NA,"html-button-response","1","4257","0.0-1.0","2","2020-1-7 7:19:46","ZEBRA","0",NA,NA,NA,NA,NA,NA,NA,NA,NA,NA,NA,NA,NA
"21350","instructions",NA,"instructions","2","25609","0.0-2.0","2","2020-1-7 7:19:46","ZEBRA",NA,"[{""page_index"":0,""viewing_time"":2725},{""page_index"":1,""viewing_time"":1536},{""page_index"":2,""viewing_time"":8232},{""page_index"":3,""viewing_time"":1624},{""page_index"":4,""viewing_time"":912},{""page_index"":5,""viewing_time"":6320}]",NA,NA,NA,NA,NA,NA,NA,NA,NA,NA,NA,NA
"1421","finalInstructions",NA,"html-button-response","3","27033","0.0-3.0-0.0","2","2020-1-7 7:19:46","ZEBRA","0",NA,NA,NA,NA,NA,NA,NA,NA,NA,NA,NA,NA,NA
"19930","setup5",NA,"animation","4","46967","0.0-3.0-1.0","2","2020-1-7 7:19:46","ZEBRA",NA,NA,"[{""cat"":18,""src"":15,""loc"":3},{""cat"":22,""src"":7,""loc"":2},{""cat"":14,""src"":15,""loc"":7},{""cat"":22,""src"":2,""loc"":6},{""cat"":14,""src"":16,""loc"":5},{""cat"":18,""src"":5,""loc"":1},{""cat"":18,""src"":19,""loc"":8},{""cat"":14,""src"":13,""loc"":0},{""cat"":22,""src"":5,""loc"":4}]","5","1106,1103,1101,1101,1102,1103,1104,1103,1105,10001",NA,NA,NA,NA,NA,NA,NA,NA,NA
"1909","flanker_instructions","68","html-keyboard-response","5","48882","0.0-3.0-2.0","2","2020-1-7 7:19:46","ZEBRA",NA,NA,NA,NA,NA,NA,NA,NA,NA,NA,NA,NA,NA,NA
NA,"flanker_test",NA,"image-keyboard-response","6","50788","0.0-3.0-3.0-0.0","2","2020-1-7 7:19:46","ZEBRA",NA,NA,NA,NA,NA,"incongruent","left","FALSE",NA,NA,NA,NA,NA,NA
NA,"flanker_test",NA,"image-keyboard-response","7","52238","0.0-3.0-3.0-0.1","2","2020-1-7 7:19:46","ZEBRA",NA,NA,NA,NA,NA,"incongruent","right","FALSE",NA,NA,NA,NA,NA,NA
NA,"flanker_test",NA,"image-keyboard-response","8","54091","0.0-3.0-3.0-0.2","2","2020-1-7 7:19:46","ZEBRA",NA,NA,NA,NA,NA,"congruent","left","FALSE",NA,NA,NA,NA,NA,NA
NA,"flanker_test",NA,"image-keyboard-response","9","55750","0.0-3.0-3.0-0.3","2","2020-1-7 7:19:46","ZEBRA",NA,NA,NA,NA,NA,"congruent","right","FALSE",NA,NA,NA,NA,NA,NA
"29979","sort_trial",NA,"free-sort","10","86729","0.0-3.0-4.0","2","2020-1-7 7:19:46","ZEBRA",NA,NA,NA,NA,NA,NA,NA,NA,"[{""cat"":18,""src"":15,""x"":27,""y"":20},{""cat"":22,""src"":7,""x"":68,""y"":188},{""cat"":14,""src"":15,""x"":6,""y"":305},{""cat"":22,""src"":2,""x"":43,""y"":130},{""cat"":14,""src"":16,""x"":68,""y"":268},{""cat"":18,""src"":5,""x"":57,""y"":502},{""cat"":18,""src"":19,""x"":70,""y"":371},{""cat"":14,""src"":13,""x"":46,""y"":65},{""cat"":22,""src"":5,""x"":16,""y"":445}]","[{""cat"":""18"",""src"":""5"",""x"":0,""y"":0},{""cat"":""22"",""src"":""7"",""x"":0,""y"":0},{""cat"":""22"",""src"":""2"",""x"":0,""y"":0},{""cat"":""18"",""src"":""19"",""x"":502,""y"":342},{""cat"":""18"",""src"":""19"",""x"":0,""y"":0},{""cat"":""14"",""src"":""15"",""x"":0,""y"":0},{""cat"":""14"",""src"":""16"",""x"":0,""y"":0},{""cat"":""18"",""src"":""15"",""x"":0,""y"":0},{""cat"":""14"",""src"":""13"",""x"":0,""y"":0},{""cat"":""22"",""src"":""5"",""x"":0,""y"":0}]","[{""cat"":18,""src"":5,""loc"":1},{""cat"":22,""src"":7,""loc"":2},{""cat"":22,""src"":2,""loc"":6},{""cat"":18,""src"":19,""loc"":8},{""cat"":14,""src"":15,""loc"":7},{""cat"":14,""src"":16,""loc"":5},{""cat"":18,""src"":15,""loc"":3},{""cat"":14,""src"":13,""loc"":0},{""cat"":22,""src"":5,""loc"":4}]","9","14,18,22,18,22,14,22,14,18,13,5,7,15,5,16,2,15,19,0,1,2,3,4,5,6,7,8,7,0,1,6,8,5,2,4,3",NA
"2391","sort_feedback","82","html-keyboard-response","11","89131","0.0-3.0-5.0","2","2020-1-7 7:19:46","ZEBRA",NA,NA,NA,NA,NA,NA,NA,NA,NA,NA,NA,NA,NA,NA
"19934","setup4",NA,"animation","12","109070","0.0-3.0-6.0","2","2020-1-7 7:19:46","ZEBRA",NA,NA,"[{""cat"":30,""src"":19,""loc"":5},{""cat"":30,""src"":2,""loc"":7},{""cat"":30,""src"":18,""loc"":2},{""cat"":14,""src"":14,""loc"":3},{""cat"":14,""src"":15,""loc"":0},{""cat"":14,""src"":19,""loc"":8},{""cat"":3,""src"":7,""loc"":6},{""cat"":3,""src"":4,""loc"":1},{""cat"":3,""src"":10,""loc"":4}]","4","1107,1102,1102,1103,1101,1106,1104,1105,1101,10003",NA,NA,NA,NA,NA,NA,NA,NA,NA
"1553","flanker_instructions","75","html-keyboard-response","13","110624","0.0-3.0-7.0","2","2020-1-7 7:19:46","ZEBRA",NA,NA,NA,NA,NA,NA,NA,NA,NA,NA,NA,NA,NA,NA
NA,"flanker_test",NA,"image-keyboard-response","14","112529","0.0-3.0-8.0-0.0","2","2020-1-7 7:19:46","ZEBRA",NA,NA,NA,NA,NA,"congruent","right","FALSE",NA,NA,NA,NA,NA,NA
NA,"flanker_test",NA,"image-keyboard-response","15","114602","0.0-3.0-8.0-0.1","2","2020-1-7 7:19:46","ZEBRA",NA,NA,NA,NA,NA,"incongruent","left","FALSE",NA,NA,NA,NA,NA,NA
NA,"flanker_test",NA,"image-keyboard-response","16","116580","0.0-3.0-8.0-0.2","2","2020-1-7 7:19:46","ZEBRA",NA,NA,NA,NA,NA,"congruent","left","FALSE",NA,NA,NA,NA,NA,NA
NA,"flanker_test",NA,"image-keyboard-response","17","118288","0.0-3.0-8.0-0.3","2","2020-1-7 7:19:46","ZEBRA",NA,NA,NA,NA,NA,"incongruent","right","FALSE",NA,NA,NA,NA,NA,NA
"15912","sort_trial",NA,"free-sort","18","134888","0.0-3.0-9.0","2","2020-1-7 7:19:46","ZEBRA",NA,NA,NA,NA,NA,NA,NA,NA,"[{""cat"":30,""src"":19,""x"":80,""y"":502},{""cat"":30,""src"":2,""x"":11,""y"":315},{""cat"":30,""src"":18,""x"":54,""y"":361},{""cat"":14,""src"":14,""x"":83,""y"":441},{""cat"":14,""src"":15,""x"":65,""y"":240},{""cat"":14,""src"":19,""x"":46,""y"":9},{""cat"":3,""src"":7,""x"":12,""y"":180},{""cat"":3,""src"":4,""x"":12,""y"":144},{""cat"":3,""src"":10,""x"":73,""y"":71}]","[{""cat"":""3"",""src"":""4"",""x"":0,""y"":0},{""cat"":""14"",""src"":""15"",""x"":0,""y"":0},{""cat"":""30"",""src"":""18"",""x"":0,""y"":0},{""cat"":""3"",""src"":""7"",""x"":0,""y"":0},{""cat"":""30"",""src"":""2"",""x"":0,""y"":0},{""cat"":""14"",""src"":""19"",""x"":0,""y"":0},{""cat"":""30"",""src"":""19"",""x"":0,""y"":0},{""cat"":""14"",""src"":""14"",""x"":0,""y"":0},{""cat"":""3"",""src"":""10"",""x"":0,""y"":0}]","[{""cat"":3,""src"":4,""loc"":1},{""cat"":14,""src"":15,""loc"":0},{""cat"":30,""src"":18,""loc"":2},{""cat"":3,""src"":7,""loc"":6},{""cat"":30,""src"":2,""loc"":7},{""cat"":14,""src"":19,""loc"":8},{""cat"":30,""src"":19,""loc"":5},{""cat"":14,""src"":14,""loc"":3},{""cat"":3,""src"":10,""loc"":4}]","9","14,3,30,14,3,30,3,30,14,15,4,18,14,10,19,7,2,19,0,1,2,3,4,5,6,7,8,1,0,2,7,8,6,3,4,5",NA
"1405","sort_feedback","75","html-keyboard-response","19","136295","0.0-3.0-10.0","2","2020-1-7 7:19:46","ZEBRA",NA,NA,NA,NA,NA,NA,NA,NA,NA,NA,NA,NA,NA,NA
"19916","setup1",NA,"animation","20","156212","0.0-3.0-11.0","2","2020-1-7 7:19:46","ZEBRA",NA,NA,"[{""cat"":3,""src"":15,""loc"":2},{""cat"":3,""src"":4,""loc"":0},{""cat"":3,""src"":7,""loc"":1},{""cat"":19,""src"":12,""loc"":5},{""cat"":19,""src"":19,""loc"":3},{""cat"":19,""src"":13,""loc"":4},{""cat"":5,""src"":5,""loc"":8},{""cat"":5,""src"":6,""loc"":7},{""cat"":5,""src"":19,""loc"":6}]","1","1103,1102,1101,1101,1101,1102,1101,1101,1103,10000",NA,NA,NA,NA,NA,NA,NA,NA,NA
"619","flanker_instructions","75","html-keyboard-response","21","156832","0.0-3.0-12.0","2","2020-1-7 7:19:46","ZEBRA",NA,NA,NA,NA,NA,NA,NA,NA,NA,NA,NA,NA,NA,NA
NA,"flanker_test",NA,"image-keyboard-response","22","158735","0.0-3.0-13.0-0.0","2","2020-1-7 7:19:46","ZEBRA",NA,NA,NA,NA,NA,"congruent","left","FALSE",NA,NA,NA,NA,NA,NA
NA,"flanker_test",NA,"image-keyboard-response","23","160123","0.0-3.0-13.0-0.1","2","2020-1-7 7:19:46","ZEBRA",NA,NA,NA,NA,NA,"incongruent","right","FALSE",NA,NA,NA,NA,NA,NA
NA,"flanker_test",NA,"image-keyboard-response","24","162074","0.0-3.0-13.0-0.2","2","2020-1-7 7:19:46","ZEBRA",NA,NA,NA,NA,NA,"incongruent","left","FALSE",NA,NA,NA,NA,NA,NA
NA,"flanker_test",NA,"image-keyboard-response","25","164108","0.0-3.0-13.0-0.3","2","2020-1-7 7:19:46","ZEBRA",NA,NA,NA,NA,NA,"congruent","right","FALSE",NA,NA,NA,NA,NA,NA
"18392","sort_trial",NA,"free-sort","26","183055","0.0-3.0-14.0","2","2020-1-7 7:19:46","ZEBRA",NA,NA,NA,NA,NA,NA,NA,NA,"[{""cat"":3,""src"":15,""x"":69,""y"":420},{""cat"":3,""src"":4,""x"":7,""y"":121},{""cat"":3,""src"":7,""x"":56,""y"":320},{""cat"":19,""src"":12,""x"":60,""y"":11},{""cat"":19,""src"":19,""x"":81,""y"":199},{""cat"":19,""src"":13,""x"":82,""y"":245},{""cat"":5,""src"":5,""x"":69,""y"":368},{""cat"":5,""src"":6,""x"":59,""y"":64},{""cat"":5,""src"":19,""x"":75,""y"":494}]","[{""cat"":""3"",""src"":""7"",""x"":0,""y"":0},{""cat"":""3"",""src"":""4"",""x"":0,""y"":0},{""cat"":""3"",""src"":""15"",""x"":0,""y"":0},{""cat"":""5"",""src"":""6"",""x"":0,""y"":0},{""cat"":""5"",""src"":""5"",""x"":0,""y"":0},{""cat"":""19"",""src"":""12"",""x"":0,""y"":0},{""cat"":""19"",""src"":""19"",""x"":0,""y"":0},{""cat"":""19"",""src"":""13"",""x"":0,""y"":0},{""cat"":""5"",""src"":""19"",""x"":0,""y"":0}]","[{""cat"":3,""src"":7,""loc"":1},{""cat"":3,""src"":4,""loc"":0},{""cat"":3,""src"":15,""loc"":2},{""cat"":5,""src"":6,""loc"":7},{""cat"":5,""src"":5,""loc"":8},{""cat"":19,""src"":12,""loc"":5},{""cat"":19,""src"":19,""loc"":3},{""cat"":19,""src"":13,""loc"":4},{""cat"":5,""src"":19,""loc"":6}]","9","3,3,3,19,19,19,5,5,5,4,7,15,19,13,12,19,6,5,0,1,2,3,4,5,6,7,8,1,0,2,6,7,5,8,3,4",NA
"2093","sort_feedback","74","html-keyboard-response","27","185151","0.0-3.0-15.0","2","2020-1-7 7:19:46","ZEBRA",NA,NA,NA,NA,NA,NA,NA,NA,NA,NA,NA,NA,NA,NA
"19920","setup2",NA,"animation","28","205072","0.0-3.0-16.0","2","2020-1-7 7:19:46","ZEBRA",NA,NA,"[{""cat"":6,""src"":3,""loc"":7},{""cat"":12,""src"":9,""loc"":6},{""cat"":17,""src"":17,""loc"":8},{""cat"":12,""src"":15,""loc"":4},{""cat"":17,""src"":9,""loc"":3},{""cat"":6,""src"":2,""loc"":5},{""cat"":17,""src"":10,""loc"":2},{""cat"":12,""src"":13,""loc"":0},{""cat"":6,""src"":9,""loc"":1}]","2","1102,1102,1102,1102,1103,1104,1101,1102,1102,10000",NA,NA,NA,NA,NA,NA,NA,NA,NA
"463","flanker_instructions","75","html-keyboard-response","29","205536","0.0-3.0-17.0","2","2020-1-7 7:19:46","ZEBRA",NA,NA,NA,NA,NA,NA,NA,NA,NA,NA,NA,NA,NA,NA
NA,"flanker_test",NA,"image-keyboard-response","30","207439","0.0-3.0-18.0-0.0","2","2020-1-7 7:19:46","ZEBRA",NA,NA,NA,NA,NA,"incongruent","left","FALSE",NA,NA,NA,NA,NA,NA
NA,"flanker_test",NA,"image-keyboard-response","31","208915","0.0-3.0-18.0-0.1","2","2020-1-7 7:19:46","ZEBRA",NA,NA,NA,NA,NA,"congruent","right","FALSE",NA,NA,NA,NA,NA,NA
NA,"flanker_test",NA,"image-keyboard-response","32","210335","0.0-3.0-18.0-0.2","2","2020-1-7 7:19:46","ZEBRA",NA,NA,NA,NA,NA,"congruent","left","FALSE",NA,NA,NA,NA,NA,NA
NA,"flanker_test",NA,"image-keyboard-response","33","212114","0.0-3.0-18.0-0.3","2","2020-1-7 7:19:46","ZEBRA",NA,NA,NA,NA,NA,"incongruent","right","FALSE",NA,NA,NA,NA,NA,NA
"20551","sort_trial",NA,"free-sort","34","233767","0.0-3.0-19.0","2","2020-1-7 7:19:46","ZEBRA",NA,NA,NA,NA,NA,NA,NA,NA,"[{""cat"":6,""src"":3,""x"":60,""y"":85},{""cat"":12,""src"":9,""x"":43,""y"":129},{""cat"":17,""src"":17,""x"":41,""y"":484},{""cat"":12,""src"":15,""x"":24,""y"":183},{""cat"":17,""src"":9,""x"":76,""y"":257},{""cat"":6,""src"":2,""x"":5,""y"":315},{""cat"":17,""src"":10,""x"":76,""y"":23},{""cat"":12,""src"":13,""x"":83,""y"":432},{""cat"":6,""src"":9,""x"":46,""y"":360}]","[{""cat"":""17"",""src"":""10"",""x"":0,""y"":0},{""cat"":""12"",""src"":""9"",""x"":0,""y"":0},{""cat"":""17"",""src"":""17"",""x"":0,""y"":0},{""cat"":""6"",""src"":""3"",""x"":0,""y"":0},{""cat"":""6"",""src"":""2"",""x"":0,""y"":0},{""cat"":""17"",""src"":""9"",""x"":0,""y"":0},{""cat"":""12"",""src"":""15"",""x"":0,""y"":0},{""cat"":""12"",""src"":""13"",""x"":0,""y"":0},{""cat"":""6"",""src"":""9"",""x"":0,""y"":0}]","[{""cat"":17,""src"":10,""loc"":2},{""cat"":12,""src"":9,""loc"":6},{""cat"":17,""src"":17,""loc"":8},{""cat"":6,""src"":3,""loc"":7},{""cat"":6,""src"":2,""loc"":5},{""cat"":17,""src"":9,""loc"":3},{""cat"":12,""src"":15,""loc"":0},{""cat"":12,""src"":13,""loc"":4},{""cat"":6,""src"":9,""loc"":1}]","7","12,6,17,17,12,6,12,6,17,15,9,10,9,13,2,9,3,17,0,1,2,3,4,5,6,7,8,6,8,0,5,7,4,1,3,2",NA
"1170","sort_feedback","75","html-keyboard-response","35","234938","0.0-3.0-20.0","2","2020-1-7 7:19:46","ZEBRA",NA,NA,NA,NA,NA,NA,NA,NA,NA,NA,NA,NA,NA,NA
"19918","setup3",NA,"animation","36","254857","0.0-3.0-21.0","2","2020-1-7 7:19:46","ZEBRA",NA,NA,"[{""cat"":14,""src"":2,""loc"":8},{""cat"":31,""src"":18,""loc"":0},{""cat"":10,""src"":2,""loc"":4},{""cat"":14,""src"":7,""loc"":6},{""cat"":10,""src"":1,""loc"":3},{""cat"":31,""src"":2,""loc"":1},{""cat"":10,""src"":16,""loc"":5},{""cat"":14,""src"":14,""loc"":7},{""cat"":31,""src"":5,""loc"":2}]","3","1103,1101,1102,1101,1102,1101,1102,1103,1101,10002",NA,NA,NA,NA,NA,NA,NA,NA,NA
"699","flanker_instructions","68","html-keyboard-response","37","255558","0.0-3.0-22.0","2","2020-1-7 7:19:46","ZEBRA",NA,NA,NA,NA,NA,NA,NA,NA,NA,NA,NA,NA,NA,NA
NA,"flanker_test",NA,"image-keyboard-response","38","257462","0.0-3.0-23.0-0.0","2","2020-1-7 7:19:46","ZEBRA",NA,NA,NA,NA,NA,"congruent","right","FALSE",NA,NA,NA,NA,NA,NA
NA,"flanker_test",NA,"image-keyboard-response","39","259141","0.0-3.0-23.0-0.1","2","2020-1-7 7:19:46","ZEBRA",NA,NA,NA,NA,NA,"incongruent","left","FALSE",NA,NA,NA,NA,NA,NA
NA,"flanker_test",NA,"image-keyboard-response","40","260905","0.0-3.0-23.0-0.2","2","2020-1-7 7:19:46","ZEBRA",NA,NA,NA,NA,NA,"incongruent","right","FALSE",NA,NA,NA,NA,NA,NA
NA,"flanker_test",NA,"image-keyboard-response","41","262117","0.0-3.0-23.0-0.3","2","2020-1-7 7:19:46","ZEBRA",NA,NA,NA,NA,NA,"congruent","left","FALSE",NA,NA,NA,NA,NA,NA
"31794","sort_trial",NA,"free-sort","42","295056","0.0-3.0-24.0","2","2020-1-7 7:19:46","ZEBRA",NA,NA,NA,NA,NA,NA,NA,NA,"[{""cat"":14,""src"":2,""x"":11,""y"":431},{""cat"":31,""src"":18,""x"":80,""y"":133},{""cat"":10,""src"":2,""x"":50,""y"":314},{""cat"":14,""src"":7,""x"":7,""y"":250},{""cat"":10,""src"":1,""x"":28,""y"":490},{""cat"":31,""src"":2,""x"":12,""y"":14},{""cat"":10,""src"":16,""x"":21,""y"":187},{""cat"":14,""src"":14,""x"":45,""y"":388},{""cat"":31,""src"":5,""x"":46,""y"":84}]","[{""cat"":""31"",""src"":""2"",""x"":0,""y"":0},{""cat"":""31"",""src"":""18"",""x"":0,""y"":0},{""cat"":""14"",""src"":""7"",""x"":0,""y"":0},{""cat"":""14"",""src"":""2"",""x"":0,""y"":0},{""cat"":""10"",""src"":""16"",""x"":0,""y"":0},{""cat"":""10"",""src"":""2"",""x"":0,""y"":0},{""cat"":""10"",""src"":""1"",""x"":729,""y"":218},{""cat"":""10"",""src"":""1"",""x"":0,""y"":0},{""cat"":""14"",""src"":""14"",""x"":341,""y"":384},{""cat"":""31"",""src"":""5"",""x"":0,""y"":0},{""cat"":""14"",""src"":""14"",""x"":0,""y"":0}]","[{""cat"":31,""src"":2,""loc"":1},{""cat"":31,""src"":18,""loc"":0},{""cat"":14,""src"":7,""loc"":6},{""cat"":14,""src"":2,""loc"":8},{""cat"":10,""src"":16,""loc"":5},{""cat"":10,""src"":2,""loc"":4},{""cat"":10,""src"":1,""loc"":3},{""cat"":31,""src"":5,""loc"":2},{""cat"":14,""src"":14,""loc"":7}]","9","31,31,31,10,10,10,14,14,14,18,2,5,1,2,16,7,14,2,0,1,2,3,4,5,6,7,8,1,0,7,6,5,4,2,8,3",NA
"1710","sort_feedback","74","html-keyboard-response","43","296768","0.0-3.0-25.0","2","2020-1-7 7:19:46","ZEBRA",NA,NA,NA,NA,NA,NA,NA,NA,NA,NA,NA,NA,NA,NA
"19916","setup5",NA,"animation","44","316687","0.0-3.0-26.0","2","2020-1-7 7:19:46","ZEBRA",NA,NA,"[{""cat"":9,""src"":11,""loc"":5},{""cat"":0,""src"":2,""loc"":2},{""cat"":20,""src"":15,""loc"":8},{""cat"":0,""src"":8,""loc"":3},{""cat"":20,""src"":11,""loc"":1},{""cat"":9,""src"":16,""loc"":6},{""cat"":9,""src"":13,""loc"":0},{""cat"":0,""src"":18,""loc"":7},{""cat"":20,""src"":19,""loc"":4}]","5","1103,1101,1101,1102,1101,1102,1101,1102,1102,10001",NA,NA,NA,NA,NA,NA,NA,NA,NA
"458","flanker_instructions","68","html-keyboard-response","45","317146","0.0-3.0-27.0","2","2020-1-7 7:19:46","ZEBRA",NA,NA,NA,NA,NA,NA,NA,NA,NA,NA,NA,NA,NA,NA
NA,"flanker_test",NA,"image-keyboard-response","46","319049","0.0-3.0-28.0-0.0","2","2020-1-7 7:19:46","ZEBRA",NA,NA,NA,NA,NA,"congruent","right","FALSE",NA,NA,NA,NA,NA,NA
NA,"flanker_test",NA,"image-keyboard-response","47","321044","0.0-3.0-28.0-0.1","2","2020-1-7 7:19:46","ZEBRA",NA,NA,NA,NA,NA,"incongruent","left","FALSE",NA,NA,NA,NA,NA,NA
NA,"flanker_test",NA,"image-keyboard-response","48","322529","0.0-3.0-28.0-0.2","2","2020-1-7 7:19:46","ZEBRA",NA,NA,NA,NA,NA,"incongruent","right","FALSE",NA,NA,NA,NA,NA,NA
NA,"flanker_test",NA,"image-keyboard-response","49","324380","0.0-3.0-28.0-0.3","2","2020-1-7 7:19:46","ZEBRA",NA,NA,NA,NA,NA,"congruent","left","FALSE",NA,NA,NA,NA,NA,NA
"27821","sort_trial",NA,"free-sort","50","353000","0.0-3.0-29.0","2","2020-1-7 7:19:46","ZEBRA",NA,NA,NA,NA,NA,NA,NA,NA,"[{""cat"":9,""src"":11,""x"":82,""y"":359},{""cat"":0,""src"":2,""x"":27,""y"":191},{""cat"":20,""src"":15,""x"":20,""y"":83},{""cat"":0,""src"":8,""x"":51,""y"":501},{""cat"":20,""src"":11,""x"":67,""y"":301},{""cat"":9,""src"":16,""x"":11,""y"":421},{""cat"":9,""src"":13,""x"":38,""y"":250},{""cat"":0,""src"":18,""x"":48,""y"":6},{""cat"":20,""src"":19,""x"":0,""y"":135}]","[{""cat"":""9"",""src"":""13"",""x"":0,""y"":0},{""cat"":""20"",""src"":""11"",""x"":400,""y"":83},{""cat"":""0"",""src"":""2"",""x"":0,""y"":0},{""cat"":""20"",""src"":""11"",""x"":0,""y"":0},{""cat"":""9"",""src"":""16"",""x"":0,""y"":0},{""cat"":""20"",""src"":""15"",""x"":0,""y"":0},{""cat"":""9"",""src"":""11"",""x"":0,""y"":0},{""cat"":""0"",""src"":""18"",""x"":0,""y"":0},{""cat"":""20"",""src"":""19"",""x"":0,""y"":0},{""cat"":""0"",""src"":""8"",""x"":0,""y"":0}]","[{""cat"":9,""src"":13,""loc"":0},{""cat"":0,""src"":2,""loc"":2},{""cat"":20,""src"":11,""loc"":1},{""cat"":9,""src"":16,""loc"":6},{""cat"":20,""src"":15,""loc"":8},{""cat"":9,""src"":11,""loc"":5},{""cat"":0,""src"":18,""loc"":7},{""cat"":20,""src"":19,""loc"":4},{""cat"":0,""src"":8,""loc"":3}]","9","9,20,0,0,20,9,9,0,20,13,11,2,8,19,11,16,18,15,0,1,2,3,4,5,6,7,8,0,2,1,8,7,5,3,6,4",NA
"739","sort_feedback","69","html-keyboard-response","51","353741","0.0-3.0-30.0","2","2020-1-7 7:19:46","ZEBRA",NA,NA,NA,NA,NA,NA,NA,NA,NA,NA,NA,NA,NA,NA
"19921","setup4",NA,"animation","52","373665","0.0-3.0-31.0","2","2020-1-7 7:19:46","ZEBRA",NA,NA,"[{""cat"":29,""src"":0,""loc"":5},{""cat"":29,""src"":11,""loc"":6},{""cat"":29,""src"":17,""loc"":2},{""cat"":2,""src"":2,""loc"":0},{""cat"":2,""src"":8,""loc"":4},{""cat"":2,""src"":9,""loc"":8},{""cat"":11,""src"":11,""loc"":3},{""cat"":11,""src"":7,""loc"":1},{""cat"":11,""src"":2,""loc"":7}]","4","1104,1101,1102,1102,1102,1102,1102,1102,1102,10002",NA,NA,NA,NA,NA,NA,NA,NA,NA
"1323","flanker_instructions","83","html-keyboard-response","53","374992","0.0-3.0-32.0","2","2020-1-7 7:19:46","ZEBRA",NA,NA,NA,NA,NA,NA,NA,NA,NA,NA,NA,NA,NA,NA
NA,"flanker_test",NA,"image-keyboard-response","54","376898","0.0-3.0-33.0-0.0","2","2020-1-7 7:19:46","ZEBRA",NA,NA,NA,NA,NA,"incongruent","left","FALSE",NA,NA,NA,NA,NA,NA
NA,"flanker_test",NA,"image-keyboard-response","55","378203","0.0-3.0-33.0-0.1","2","2020-1-7 7:19:46","ZEBRA",NA,NA,NA,NA,NA,"incongruent","right","FALSE",NA,NA,NA,NA,NA,NA
NA,"flanker_test",NA,"image-keyboard-response","56","379915","0.0-3.0-33.0-0.2","2","2020-1-7 7:19:46","ZEBRA",NA,NA,NA,NA,NA,"congruent","right","FALSE",NA,NA,NA,NA,NA,NA
NA,"flanker_test",NA,"image-keyboard-response","57","381722","0.0-3.0-33.0-0.3","2","2020-1-7 7:19:46","ZEBRA",NA,NA,NA,NA,NA,"congruent","left","FALSE",NA,NA,NA,NA,NA,NA
"20422","sort_trial",NA,"free-sort","58","403008","0.0-3.0-34.0","2","2020-1-7 7:19:46","ZEBRA",NA,NA,NA,NA,NA,NA,NA,NA,"[{""cat"":29,""src"":0,""x"":41,""y"":128},{""cat"":29,""src"":11,""x"":52,""y"":365},{""cat"":29,""src"":17,""x"":28,""y"":9},{""cat"":2,""src"":2,""x"":1,""y"":419},{""cat"":2,""src"":8,""x"":65,""y"":488},{""cat"":2,""src"":9,""x"":11,""y"":191},{""cat"":11,""src"":11,""x"":38,""y"":265},{""cat"":11,""src"":7,""x"":81,""y"":300},{""cat"":11,""src"":2,""x"":49,""y"":66}]","[{""cat"":""11"",""src"":""7"",""x"":0,""y"":0},{""cat"":""2"",""src"":""2"",""x"":0,""y"":0},{""cat"":""29"",""src"":""17"",""x"":0,""y"":0},{""cat"":""29"",""src"":""11"",""x"":0,""y"":0},{""cat"":""11"",""src"":""2"",""x"":0,""y"":0},{""cat"":""2"",""src"":""9"",""x"":0,""y"":0},{""cat"":""29"",""src"":""0"",""x"":0,""y"":0},{""cat"":""11"",""src"":""11"",""x"":0,""y"":0},{""cat"":""2"",""src"":""8"",""x"":0,""y"":0}]","[{""cat"":11,""src"":7,""loc"":1},{""cat"":2,""src"":2,""loc"":0},{""cat"":29,""src"":17,""loc"":2},{""cat"":29,""src"":11,""loc"":6},{""cat"":11,""src"":2,""loc"":7},{""cat"":2,""src"":9,""loc"":8},{""cat"":29,""src"":0,""loc"":5},{""cat"":11,""src"":11,""loc"":4},{""cat"":2,""src"":8,""loc"":3}]","7","2,11,29,2,11,29,29,11,2,2,7,17,8,11,0,11,2,9,0,1,2,3,4,5,6,7,8,1,0,2,8,7,6,3,4,5",NA
"3371","sort_feedback","68","html-keyboard-response","59","406381","0.0-3.0-35.0","2","2020-1-7 7:19:46","ZEBRA",NA,NA,NA,NA,NA,NA,NA,NA,NA,NA,NA,NA,NA,NA
"19923","setup2",NA,"animation","60","426304","0.0-3.0-36.0","2","2020-1-7 7:19:46","ZEBRA",NA,NA,"[{""cat"":3,""src"":17,""loc"":3},{""cat"":26,""src"":11,""loc"":4},{""cat"":11,""src"":17,""loc"":5},{""cat"":3,""src"":16,""loc"":6},{""cat"":26,""src"":4,""loc"":8},{""cat"":11,""src"":9,""loc"":7},{""cat"":11,""src"":0,""loc"":0},{""cat"":26,""src"":16,""loc"":2},{""cat"":3,""src"":10,""loc"":1}]","2","1103,1103,1102,1104,1102,1102,1102,1101,1103,10001",NA,NA,NA,NA,NA,NA,NA,NA,NA
"1131","flanker_instructions","68","html-keyboard-response","61","427437","0.0-3.0-37.0","2","2020-1-7 7:19:46","ZEBRA",NA,NA,NA,NA,NA,NA,NA,NA,NA,NA,NA,NA,NA,NA
NA,"flanker_test",NA,"image-keyboard-response","62","429340","0.0-3.0-38.0-0.0","2","2020-1-7 7:19:46","ZEBRA",NA,NA,NA,NA,NA,"congruent","right","FALSE",NA,NA,NA,NA,NA,NA
NA,"flanker_test",NA,"image-keyboard-response","63","430988","0.0-3.0-38.0-0.1","2","2020-1-7 7:19:46","ZEBRA",NA,NA,NA,NA,NA,"incongruent","left","FALSE",NA,NA,NA,NA,NA,NA
NA,"flanker_test",NA,"image-keyboard-response","64","432788","0.0-3.0-38.0-0.2","2","2020-1-7 7:19:46","ZEBRA",NA,NA,NA,NA,NA,"congruent","left","FALSE",NA,NA,NA,NA,NA,NA
NA,"flanker_test",NA,"image-keyboard-response","65","434663","0.0-3.0-38.0-0.3","2","2020-1-7 7:19:46","ZEBRA",NA,NA,NA,NA,NA,"incongruent","right","FALSE",NA,NA,NA,NA,NA,NA
"23190","sort_trial",NA,"free-sort","66","458224","0.0-3.0-39.0","2","2020-1-7 7:19:46","ZEBRA",NA,NA,NA,NA,NA,NA,NA,NA,"[{""cat"":3,""src"":17,""x"":47,""y"":68},{""cat"":26,""src"":11,""x"":60,""y"":310},{""cat"":11,""src"":17,""x"":43,""y"":498},{""cat"":3,""src"":16,""x"":1,""y"":204},{""cat"":26,""src"":4,""x"":57,""y"":368},{""cat"":11,""src"":9,""x"":48,""y"":131},{""cat"":11,""src"":0,""x"":61,""y"":23},{""cat"":26,""src"":16,""x"":7,""y"":252},{""cat"":3,""src"":10,""x"":74,""y"":419}]","[{""cat"":""11"",""src"":""0"",""x"":0,""y"":0},{""cat"":""26"",""src"":""16"",""x"":0,""y"":0},{""cat"":""3"",""src"":""16"",""x"":0,""y"":0},{""cat"":""11"",""src"":""9"",""x"":0,""y"":0},{""cat"":""26"",""src"":""4"",""x"":0,""y"":0},{""cat"":""11"",""src"":""17"",""x"":0,""y"":0},{""cat"":""3"",""src"":""17"",""x"":0,""y"":0},{""cat"":""26"",""src"":""11"",""x"":0,""y"":0},{""cat"":""3"",""src"":""10"",""x"":0,""y"":0}]","[{""cat"":11,""src"":0,""loc"":0},{""cat"":26,""src"":16,""loc"":2},{""cat"":3,""src"":16,""loc"":6},{""cat"":11,""src"":9,""loc"":7},{""cat"":26,""src"":4,""loc"":8},{""cat"":11,""src"":17,""loc"":5},{""cat"":3,""src"":17,""loc"":3},{""cat"":26,""src"":11,""loc"":1},{""cat"":3,""src"":10,""loc"":4}]","7","11,26,26,3,3,11,3,11,26,0,11,16,17,10,17,16,9,4,0,1,2,3,4,5,6,7,8,0,7,1,6,8,5,2,3,4",NA
"471","sort_feedback","83","html-keyboard-response","67","458696","0.0-3.0-40.0","2","2020-1-7 7:19:46","ZEBRA",NA,NA,NA,NA,NA,NA,NA,NA,NA,NA,NA,NA,NA,NA
"19919","setup3",NA,"animation","68","478617","0.0-3.0-41.0","2","2020-1-7 7:19:46","ZEBRA",NA,NA,"[{""cat"":14,""src"":8,""loc"":1},{""cat"":26,""src"":14,""loc"":8},{""cat"":22,""src"":19,""loc"":3},{""cat"":14,""src"":10,""loc"":2},{""cat"":22,""src"":8,""loc"":4},{""cat"":26,""src"":13,""loc"":7},{""cat"":14,""src"":0,""loc"":0},{""cat"":26,""src"":0,""loc"":6},{""cat"":22,""src"":15,""loc"":5}]","3","1103,1101,1102,1102,1102,1103,1102,1101,1101,10001",NA,NA,NA,NA,NA,NA,NA,NA,NA
"409","flanker_instructions","68","html-keyboard-response","69","479028","0.0-3.0-42.0","2","2020-1-7 7:19:46","ZEBRA",NA,NA,NA,NA,NA,NA,NA,NA,NA,NA,NA,NA,NA,NA
NA,"flanker_test",NA,"image-keyboard-response","70","481887","0.0-3.0-43.0-0.0","2","2020-1-7 7:19:46","ZEBRA",NA,NA,NA,NA,NA,"incongruent","right","FALSE",NA,NA,NA,NA,NA,NA
NA,"flanker_test",NA,"image-keyboard-response","71","483887","0.0-3.0-43.0-0.1","2","2020-1-7 7:19:46","ZEBRA",NA,NA,NA,NA,NA,"congruent","right","FALSE",NA,NA,NA,NA,NA,NA
NA,"flanker_test",NA,"image-keyboard-response","72","485602","0.0-3.0-43.0-0.2","2","2020-1-7 7:19:46","ZEBRA",NA,NA,NA,NA,NA,"incongruent","left","FALSE",NA,NA,NA,NA,NA,NA
NA,"flanker_test",NA,"image-keyboard-response","73","487546","0.0-3.0-43.0-0.3","2","2020-1-7 7:19:46","ZEBRA",NA,NA,NA,NA,NA,"congruent","left","FALSE",NA,NA,NA,NA,NA,NA
"31193","sort_trial",NA,"free-sort","74","519566","0.0-3.0-44.0","2","2020-1-7 7:19:46","ZEBRA",NA,NA,NA,NA,NA,NA,NA,NA,"[{""cat"":14,""src"":8,""x"":9,""y"":184},{""cat"":26,""src"":14,""x"":46,""y"":76},{""cat"":22,""src"":19,""x"":30,""y"":144},{""cat"":14,""src"":10,""x"":67,""y"":421},{""cat"":22,""src"":8,""x"":12,""y"":318},{""cat"":26,""src"":13,""x"":69,""y"":23},{""cat"":14,""src"":0,""x"":61,""y"":495},{""cat"":26,""src"":0,""x"":77,""y"":266},{""cat"":22,""src"":15,""x"":3,""y"":361}]","[{""cat"":""14"",""src"":""8"",""x"":0,""y"":0},{""cat"":""14"",""src"":""0"",""x"":0,""y"":0},{""cat"":""14"",""src"":""10"",""x"":0,""y"":0},{""cat"":""26"",""src"":""13"",""x"":0,""y"":0},{""cat"":""26"",""src"":""14"",""x"":0,""y"":0},{""cat"":""22"",""src"":""19"",""x"":0,""y"":0},{""cat"":""22"",""src"":""8"",""x"":0,""y"":0},{""cat"":""26"",""src"":""0"",""x"":0,""y"":0},{""cat"":""22"",""src"":""15"",""x"":0,""y"":0}]","[{""cat"":14,""src"":8,""loc"":1},{""cat"":14,""src"":0,""loc"":0},{""cat"":14,""src"":10,""loc"":2},{""cat"":26,""src"":13,""loc"":7},{""cat"":26,""src"":14,""loc"":8},{""cat"":22,""src"":19,""loc"":3},{""cat"":22,""src"":8,""loc"":4},{""cat"":26,""src"":0,""loc"":6},{""cat"":22,""src"":15,""loc"":5}]","9","14,14,14,22,22,22,26,26,26,0,8,10,19,8,15,0,13,14,0,1,2,3,4,5,6,7,8,1,0,2,5,6,8,7,3,4",NA
"5742","sort_feedback","68","html-keyboard-response","75","525312","0.0-3.0-45.0","2","2020-1-7 7:19:46","ZEBRA",NA,NA,NA,NA,NA,NA,NA,NA,NA,NA,NA,NA,NA,NA
"19915","setup1",NA,"animation","76","545228","0.0-3.0-46.0","2","2020-1-7 7:19:46","ZEBRA",NA,NA,"[{""cat"":29,""src"":12,""loc"":5},{""cat"":29,""src"":4,""loc"":4},{""cat"":29,""src"":9,""loc"":3},{""cat"":19,""src"":7,""loc"":1},{""cat"":19,""src"":12,""loc"":2},{""cat"":19,""src"":6,""loc"":0},{""cat"":21,""src"":0,""loc"":8},{""cat"":21,""src"":10,""loc"":7},{""cat"":21,""src"":11,""loc"":6}]","1","1102,1101,1101,1102,1102,1101,1102,1102,1101,10001",NA,NA,NA,NA,NA,NA,NA,NA,NA
"1073","flanker_instructions","72","html-keyboard-response","77","546302","0.0-3.0-47.0","2","2020-1-7 7:19:46","ZEBRA",NA,NA,NA,NA,NA,NA,NA,NA,NA,NA,NA,NA,NA,NA
NA,"flanker_test",NA,"image-keyboard-response","78","548207","0.0-3.0-48.0-0.0","2","2020-1-7 7:19:46","ZEBRA",NA,NA,NA,NA,NA,"congruent","left","FALSE",NA,NA,NA,NA,NA,NA
NA,"flanker_test",NA,"image-keyboard-response","79","549564","0.0-3.0-48.0-0.1","2","2020-1-7 7:19:46","ZEBRA",NA,NA,NA,NA,NA,"congruent","right","FALSE",NA,NA,NA,NA,NA,NA
NA,"flanker_test",NA,"image-keyboard-response","80","551327","0.0-3.0-48.0-0.2","2","2020-1-7 7:19:46","ZEBRA",NA,NA,NA,NA,NA,"incongruent","right","FALSE",NA,NA,NA,NA,NA,NA
NA,"flanker_test",NA,"image-keyboard-response","81","553049","0.0-3.0-48.0-0.3","2","2020-1-7 7:19:46","ZEBRA",NA,NA,NA,NA,NA,"incongruent","left","FALSE",NA,NA,NA,NA,NA,NA
"19950","sort_trial",NA,"free-sort","82","573360","0.0-3.0-49.0","2","2020-1-7 7:19:46","ZEBRA",NA,NA,NA,NA,NA,NA,NA,NA,"[{""cat"":29,""src"":12,""x"":66,""y"":249},{""cat"":29,""src"":4,""x"":69,""y"":499},{""cat"":29,""src"":9,""x"":71,""y"":76},{""cat"":19,""src"":7,""x"":9,""y"":124},{""cat"":19,""src"":12,""x"":69,""y"":27},{""cat"":19,""src"":6,""x"":80,""y"":188},{""cat"":21,""src"":0,""x"":29,""y"":429},{""cat"":21,""src"":10,""x"":30,""y"":329},{""cat"":21,""src"":11,""x"":75,""y"":364}]","[{""cat"":""19"",""src"":""12"",""x"":0,""y"":0},{""cat"":""19"",""src"":""6"",""x"":0,""y"":0},{""cat"":""19"",""src"":""7"",""x"":0,""y"":0},{""cat"":""29"",""src"":""12"",""x"":0,""y"":0},{""cat"":""29"",""src"":""9"",""x"":0,""y"":0},{""cat"":""29"",""src"":""4"",""x"":0,""y"":0},{""cat"":""21"",""src"":""10"",""x"":0,""y"":0},{""cat"":""21"",""src"":""11"",""x"":0,""y"":0},{""cat"":""21"",""src"":""0"",""x"":0,""y"":0}]","[{""cat"":19,""src"":12,""loc"":2},{""cat"":19,""src"":6,""loc"":0},{""cat"":19,""src"":7,""loc"":1},{""cat"":29,""src"":12,""loc"":5},{""cat"":29,""src"":9,""loc"":3},{""cat"":29,""src"":4,""loc"":4},{""cat"":21,""src"":10,""loc"":6},{""cat"":21,""src"":11,""loc"":7},{""cat"":21,""src"":0,""loc"":8}]","7","19,19,19,29,29,29,21,21,21,6,7,12,9,4,12,10,11,0,0,1,2,3,4,5,6,7,8,1,2,0,4,5,3,6,7,8",NA
"11795","sort_feedback","68","html-keyboard-response","83","585157","0.0-3.0-50.0","2","2020-1-7 7:19:46","ZEBRA",NA,NA,NA,NA,NA,NA,NA,NA,NA,NA,NA,NA,NA,NA
"20242","setup4",NA,"animation","84","605400","0.0-3.0-51.0","2","2020-1-7 7:19:46","ZEBRA",NA,NA,"[{""cat"":5,""src"":6,""loc"":6},{""cat"":5,""src"":14,""loc"":0},{""cat"":5,""src"":5,""loc"":4},{""cat"":13,""src"":18,""loc"":2},{""cat"":13,""src"":12,""loc"":5},{""cat"":13,""src"":3,""loc"":8},{""cat"":12,""src"":19,""loc"":1},{""cat"":12,""src"":0,""loc"":3},{""cat"":12,""src"":7,""loc"":7}]","4","1103,1102,1101,1425,1102,1102,1101,1101,1102,10003",NA,NA,NA,NA,NA,NA,NA,NA,NA
"425","flanker_instructions","68","html-keyboard-response","85","605827","0.0-3.0-52.0","2","2020-1-7 7:19:46","ZEBRA",NA,NA,NA,NA,NA,NA,NA,NA,NA,NA,NA,NA,NA,NA
NA,"flanker_test",NA,"image-keyboard-response","86","607731","0.0-3.0-53.0-0.0","2","2020-1-7 7:19:46","ZEBRA",NA,NA,NA,NA,NA,"congruent","left","FALSE",NA,NA,NA,NA,NA,NA
NA,"flanker_test",NA,"image-keyboard-response","87","609442","0.0-3.0-53.0-0.1","2","2020-1-7 7:19:46","ZEBRA",NA,NA,NA,NA,NA,"incongruent","left","FALSE",NA,NA,NA,NA,NA,NA
NA,"flanker_test",NA,"image-keyboard-response","88","611315","0.0-3.0-53.0-0.2","2","2020-1-7 7:19:46","ZEBRA",NA,NA,NA,NA,NA,"incongruent","right","FALSE",NA,NA,NA,NA,NA,NA
NA,"flanker_test",NA,"image-keyboard-response","89","613221","0.0-3.0-53.0-0.3","2","2020-1-7 7:19:46","ZEBRA",NA,NA,NA,NA,NA,"congruent","right","FALSE",NA,NA,NA,NA,NA,NA
"18935","sort_trial",NA,"free-sort","90","633215","0.0-3.0-54.0","2","2020-1-7 7:19:46","ZEBRA",NA,NA,NA,NA,NA,NA,NA,NA,"[{""cat"":5,""src"":6,""x"":50,""y"":444},{""cat"":5,""src"":14,""x"":64,""y"":19},{""cat"":5,""src"":5,""x"":75,""y"":197},{""cat"":13,""src"":18,""x"":47,""y"":317},{""cat"":13,""src"":12,""x"":67,""y"":244},{""cat"":13,""src"":3,""x"":7,""y"":147},{""cat"":12,""src"":19,""x"":64,""y"":483},{""cat"":12,""src"":0,""x"":58,""y"":67},{""cat"":12,""src"":7,""x"":78,""y"":364}]","[{""cat"":""5"",""src"":""14"",""x"":0,""y"":0},{""cat"":""12"",""src"":""19"",""x"":0,""y"":0},{""cat"":""13"",""src"":""18"",""x"":383,""y"":172},{""cat"":""13"",""src"":""18"",""x"":0,""y"":0},{""cat"":""5"",""src"":""6"",""x"":0,""y"":0},{""cat"":""13"",""src"":""3"",""x"":0,""y"":0},{""cat"":""13"",""src"":""12"",""x"":0,""y"":0},{""cat"":""5"",""src"":""5"",""x"":0,""y"":0},{""cat"":""12"",""src"":""0"",""x"":0,""y"":0},{""cat"":""12"",""src"":""7"",""x"":0,""y"":0}]","[{""cat"":5,""src"":14,""loc"":0},{""cat"":12,""src"":19,""loc"":1},{""cat"":13,""src"":18,""loc"":2},{""cat"":5,""src"":6,""loc"":6},{""cat"":13,""src"":3,""loc"":8},{""cat"":13,""src"":12,""loc"":5},{""cat"":5,""src"":5,""loc"":7},{""cat"":12,""src"":0,""loc"":4},{""cat"":12,""src"":7,""loc"":3}]","6","5,12,13,12,12,13,5,5,13,14,19,18,7,0,12,6,5,3,0,1,2,3,4,5,6,7,8,0,1,2,8,7,5,3,6,4",NA
"1868","sort_feedback","72","html-keyboard-response","91","635085","0.0-3.0-55.0","2","2020-1-7 7:19:46","ZEBRA",NA,NA,NA,NA,NA,NA,NA,NA,NA,NA,NA,NA,NA,NA
"19919","setup2",NA,"animation","92","655005","0.0-3.0-56.0","2","2020-1-7 7:19:46","ZEBRA",NA,NA,"[{""cat"":25,""src"":9,""loc"":3},{""cat"":12,""src"":18,""loc"":5},{""cat"":11,""src"":8,""loc"":4},{""cat"":25,""src"":1,""loc"":7},{""cat"":11,""src"":10,""loc"":8},{""cat"":12,""src"":11,""loc"":6},{""cat"":25,""src"":2,""loc"":1},{""cat"":11,""src"":3,""loc"":0},{""cat"":12,""src"":6,""loc"":2}]","2","1104,1102,1101,1103,1101,1101,1102,1102,1102,10001",NA,NA,NA,NA,NA,NA,NA,NA,NA
"505","flanker_instructions","72","html-keyboard-response","93","655512","0.0-3.0-57.0","2","2020-1-7 7:19:46","ZEBRA",NA,NA,NA,NA,NA,NA,NA,NA,NA,NA,NA,NA,NA,NA
NA,"flanker_test",NA,"image-keyboard-response","94","657415","0.0-3.0-58.0-0.0","2","2020-1-7 7:19:46","ZEBRA",NA,NA,NA,NA,NA,"incongruent","left","FALSE",NA,NA,NA,NA,NA,NA
NA,"flanker_test",NA,"image-keyboard-response","95","659517","0.0-3.0-58.0-0.1","2","2020-1-7 7:19:46","ZEBRA",NA,NA,NA,NA,NA,"congruent","left","FALSE",NA,NA,NA,NA,NA,NA
NA,"flanker_test",NA,"image-keyboard-response","96","661503","0.0-3.0-58.0-0.2","2","2020-1-7 7:19:46","ZEBRA",NA,NA,NA,NA,NA,"incongruent","right","FALSE",NA,NA,NA,NA,NA,NA
NA,"flanker_test",NA,"image-keyboard-response","97","662764","0.0-3.0-58.0-0.3","2","2020-1-7 7:19:46","ZEBRA",NA,NA,NA,NA,NA,"congruent","right","FALSE",NA,NA,NA,NA,NA,NA
"19410","sort_trial",NA,"free-sort","98","682623","0.0-3.0-59.0","2","2020-1-7 7:19:46","ZEBRA",NA,NA,NA,NA,NA,NA,NA,NA,"[{""cat"":25,""src"":9,""x"":45,""y"":121},{""cat"":12,""src"":18,""x"":32,""y"":78},{""cat"":11,""src"":8,""x"":81,""y"":434},{""cat"":25,""src"":1,""x"":29,""y"":322},{""cat"":11,""src"":10,""x"":14,""y"":265},{""cat"":12,""src"":11,""x"":68,""y"":185},{""cat"":25,""src"":2,""x"":77,""y"":498},{""cat"":11,""src"":3,""x"":81,""y"":364},{""cat"":12,""src"":6,""x"":5,""y"":26}]","[{""cat"":""25"",""src"":""2"",""x"":0,""y"":0},{""cat"":""12"",""src"":""11"",""x"":0,""y"":0},{""cat"":""25"",""src"":""1"",""x"":0,""y"":0},{""cat"":""11"",""src"":""10"",""x"":0,""y"":0},{""cat"":""12"",""src"":""18"",""x"":0,""y"":0},{""cat"":""11"",""src"":""8"",""x"":0,""y"":0},{""cat"":""25"",""src"":""9"",""x"":0,""y"":0},{""cat"":""11"",""src"":""3"",""x"":413,""y"":169},{""cat"":""12"",""src"":""6"",""x"":0,""y"":0},{""cat"":""11"",""src"":""3"",""x"":359,""y"":167},{""cat"":""11"",""src"":""3"",""x"":0,""y"":0}]","[{""cat"":25,""src"":2,""loc"":1},{""cat"":12,""src"":11,""loc"":6},{""cat"":25,""src"":1,""loc"":7},{""cat"":11,""src"":10,""loc"":8},{""cat"":12,""src"":18,""loc"":5},{""cat"":11,""src"":8,""loc"":4},{""cat"":25,""src"":9,""loc"":3},{""cat"":12,""src"":6,""loc"":0},{""cat"":11,""src"":3,""loc"":2}]","7","12,25,11,25,11,12,12,25,11,6,2,3,9,8,18,11,1,10,0,1,2,3,4,5,6,7,8,7,0,8,6,5,4,1,2,3",NA
"1137","sort_feedback","84","html-keyboard-response","99","683762","0.0-3.0-60.0","2","2020-1-7 7:19:46","ZEBRA",NA,NA,NA,NA,NA,NA,NA,NA,NA,NA,NA,NA,NA,NA
"19917","setup3",NA,"animation","100","703680","0.0-3.0-61.0","2","2020-1-7 7:19:46","ZEBRA",NA,NA,"[{""cat"":10,""src"":8,""loc"":2},{""cat"":18,""src"":17,""loc"":8},{""cat"":30,""src"":11,""loc"":5},{""cat"":18,""src"":10,""loc"":6},{""cat"":30,""src"":19,""loc"":3},{""cat"":10,""src"":17,""loc"":1},{""cat"":30,""src"":17,""loc"":4},{""cat"":10,""src"":10,""loc"":0},{""cat"":18,""src"":7,""loc"":7}]","3","1102,1102,1101,1102,1102,1102,1101,1102,1102,10001",NA,NA,NA,NA,NA,NA,NA,NA,NA
"524","flanker_instructions","70","html-keyboard-response","101","704207","0.0-3.0-62.0","2","2020-1-7 7:19:46","ZEBRA",NA,NA,NA,NA,NA,NA,NA,NA,NA,NA,NA,NA,NA,NA
NA,"flanker_test",NA,"image-keyboard-response","102","706111","0.0-3.0-63.0-0.0","2","2020-1-7 7:19:46","ZEBRA",NA,NA,NA,NA,NA,"incongruent","right","FALSE",NA,NA,NA,NA,NA,NA
NA,"flanker_test",NA,"image-keyboard-response","103","708086","0.0-3.0-63.0-0.1","2","2020-1-7 7:19:46","ZEBRA",NA,NA,NA,NA,NA,"congruent","left","FALSE",NA,NA,NA,NA,NA,NA
NA,"flanker_test",NA,"image-keyboard-response","104","709985","0.0-3.0-63.0-0.2","2","2020-1-7 7:19:46","ZEBRA",NA,NA,NA,NA,NA,"congruent","right","FALSE",NA,NA,NA,NA,NA,NA
NA,"flanker_test",NA,"image-keyboard-response","105","711370","0.0-3.0-63.0-0.3","2","2020-1-7 7:19:46","ZEBRA",NA,NA,NA,NA,NA,"incongruent","left","FALSE",NA,NA,NA,NA,NA,NA
"40179","sort_trial",NA,"free-sort","106","752374","0.0-3.0-64.0","2","2020-1-7 7:19:46","ZEBRA",NA,NA,NA,NA,NA,NA,NA,NA,"[{""cat"":10,""src"":8,""x"":3,""y"":506},{""cat"":18,""src"":17,""x"":26,""y"":146},{""cat"":30,""src"":11,""x"":37,""y"":196},{""cat"":18,""src"":10,""x"":72,""y"":419},{""cat"":30,""src"":19,""x"":19,""y"":359},{""cat"":10,""src"":17,""x"":17,""y"":264},{""cat"":30,""src"":17,""x"":26,""y"":311},{""cat"":10,""src"":10,""x"":72,""y"":88},{""cat"":18,""src"":7,""x"":8,""y"":7}]","[{""cat"":""10"",""src"":""17"",""x"":0,""y"":0},{""cat"":""30"",""src"":""19"",""x"":0,""y"":0},{""cat"":""30"",""src"":""11"",""x"":689,""y"":156},{""cat"":""30"",""src"":""11"",""x"":0,""y"":0},{""cat"":""10"",""src"":""8"",""x"":0,""y"":0},{""cat"":""18"",""src"":""10"",""x"":0,""y"":0},{""cat"":""18"",""src"":""17"",""x"":0,""y"":0},{""cat"":""30"",""src"":""17"",""x"":0,""y"":0},{""cat"":""10"",""src"":""10"",""x"":0,""y"":0},{""cat"":""18"",""src"":""7"",""x"":0,""y"":0}]","[{""cat"":10,""src"":17,""loc"":1},{""cat"":30,""src"":19,""loc"":3},{""cat"":30,""src"":11,""loc"":5},{""cat"":10,""src"":8,""loc"":2},{""cat"":18,""src"":10,""loc"":6},{""cat"":18,""src"":17,""loc"":8},{""cat"":30,""src"":17,""loc"":7},{""cat"":10,""src"":10,""loc"":0},{""cat"":18,""src"":7,""loc"":4}]","7","10,10,10,30,18,30,18,30,18,10,17,8,19,7,11,10,17,17,0,1,2,3,4,5,6,7,8,7,0,3,1,8,2,4,6,5",NA
"1297","sort_feedback","82","html-keyboard-response","107","753674","0.0-3.0-65.0","2","2020-1-7 7:19:46","ZEBRA",NA,NA,NA,NA,NA,NA,NA,NA,NA,NA,NA,NA,NA,NA
"19920","setup5",NA,"animation","108","773595","0.0-3.0-66.0","2","2020-1-7 7:19:46","ZEBRA",NA,NA,"[{""cat"":24,""src"":9,""loc"":7},{""cat"":11,""src"":15,""loc"":1},{""cat"":6,""src"":1,""loc"":5},{""cat"":11,""src"":5,""loc"":3},{""cat"":6,""src"":9,""loc"":8},{""cat"":24,""src"":8,""loc"":2},{""cat"":11,""src"":6,""loc"":6},{""cat"":24,""src"":14,""loc"":4},{""cat"":6,""src"":8,""loc"":0}]","5","1105,1101,1102,1101,1101,1101,1102,1103,1102,10001",NA,NA,NA,NA,NA,NA,NA,NA,NA
"608","flanker_instructions","70","html-keyboard-response","109","774205","0.0-3.0-67.0","2","2020-1-7 7:19:46","ZEBRA",NA,NA,NA,NA,NA,NA,NA,NA,NA,NA,NA,NA,NA,NA
NA,"flanker_test",NA,"image-keyboard-response","110","776109","0.0-3.0-68.0-0.0","2","2020-1-7 7:19:46","ZEBRA",NA,NA,NA,NA,NA,"incongruent","right","FALSE",NA,NA,NA,NA,NA,NA
NA,"flanker_test",NA,"image-keyboard-response","111","777748","0.0-3.0-68.0-0.1","2","2020-1-7 7:19:46","ZEBRA",NA,NA,NA,NA,NA,"congruent","right","FALSE",NA,NA,NA,NA,NA,NA
NA,"flanker_test",NA,"image-keyboard-response","112","779075","0.0-3.0-68.0-0.2","2","2020-1-7 7:19:46","ZEBRA",NA,NA,NA,NA,NA,"congruent","left","FALSE",NA,NA,NA,NA,NA,NA
NA,"flanker_test",NA,"image-keyboard-response","113","780660","0.0-3.0-68.0-0.3","2","2020-1-7 7:19:46","ZEBRA",NA,NA,NA,NA,NA,"incongruent","left","FALSE",NA,NA,NA,NA,NA,NA
"34859","sort_trial",NA,"free-sort","114","815878","0.0-3.0-69.0","2","2020-1-7 7:19:46","ZEBRA",NA,NA,NA,NA,NA,NA,NA,NA,"[{""cat"":24,""src"":9,""x"":0,""y"":419},{""cat"":11,""src"":15,""x"":78,""y"":386},{""cat"":6,""src"":1,""x"":5,""y"":85},{""cat"":11,""src"":5,""x"":23,""y"":201},{""cat"":6,""src"":9,""x"":52,""y"":5},{""cat"":24,""src"":8,""x"":2,""y"":268},{""cat"":11,""src"":6,""x"":16,""y"":320},{""cat"":24,""src"":14,""x"":28,""y"":133},{""cat"":6,""src"":8,""x"":39,""y"":508}]","[{""cat"":""6"",""src"":""9"",""x"":0,""y"":0},{""cat"":""11"",""src"":""5"",""x"":0,""y"":0},{""cat"":""6"",""src"":""1"",""x"":0,""y"":0},{""cat"":""11"",""src"":""15"",""x"":0,""y"":0},{""cat"":""24"",""src"":""8"",""x"":364,""y"":211},{""cat"":""24"",""src"":""9"",""x"":0,""y"":0},{""cat"":""24"",""src"":""8"",""x"":0,""y"":0},{""cat"":""11"",""src"":""6"",""x"":0,""y"":0},{""cat"":""6"",""src"":""8"",""x"":0,""y"":0},{""cat"":""24"",""src"":""14"",""x"":0,""y"":0}]","[{""cat"":6,""src"":9,""loc"":8},{""cat"":11,""src"":5,""loc"":3},{""cat"":6,""src"":1,""loc"":5},{""cat"":11,""src"":15,""loc"":1},{""cat"":24,""src"":9,""loc"":7},{""cat"":24,""src"":8,""loc"":2},{""cat"":11,""src"":6,""loc"":6},{""cat"":6,""src"":8,""loc"":0},{""cat"":24,""src"":14,""loc"":4}]","9","6,11,24,11,24,6,11,24,6,8,15,8,5,14,1,6,9,9,0,1,2,3,4,5,6,7,8,7,3,5,1,8,2,6,4,0",NA
"462","sort_feedback","69","html-keyboard-response","115","816342","0.0-3.0-70.0","2","2020-1-7 7:19:46","ZEBRA",NA,NA,NA,NA,NA,NA,NA,NA,NA,NA,NA,NA,NA,NA
"19918","setup1",NA,"animation","116","836261","0.0-3.0-71.0","2","2020-1-7 7:19:46","ZEBRA",NA,NA,"[{""cat"":9,""src"":9,""loc"":3},{""cat"":9,""src"":15,""loc"":4},{""cat"":9,""src"":5,""loc"":5},{""cat"":30,""src"":18,""loc"":8},{""cat"":30,""src"":9,""loc"":6},{""cat"":30,""src"":13,""loc"":7},{""cat"":29,""src"":13,""loc"":2},{""cat"":29,""src"":9,""loc"":0},{""cat"":29,""src"":3,""loc"":1}]","1","1102,1102,1101,1102,1101,1102,1102,1101,1104,10001",NA,NA,NA,NA,NA,NA,NA,NA,NA
"557","flanker_instructions","70","html-keyboard-response","117","836823","0.0-3.0-72.0","2","2020-1-7 7:19:46","ZEBRA",NA,NA,NA,NA,NA,NA,NA,NA,NA,NA,NA,NA,NA,NA
NA,"flanker_test",NA,"image-keyboard-response","118","838727","0.0-3.0-73.0-0.0","2","2020-1-7 7:19:46","ZEBRA",NA,NA,NA,NA,NA,"incongruent","left","FALSE",NA,NA,NA,NA,NA,NA
NA,"flanker_test",NA,"image-keyboard-response","119","840286","0.0-3.0-73.0-0.1","2","2020-1-7 7:19:46","ZEBRA",NA,NA,NA,NA,NA,"congruent","right","FALSE",NA,NA,NA,NA,NA,NA
NA,"flanker_test",NA,"image-keyboard-response","120","841679","0.0-3.0-73.0-0.2","2","2020-1-7 7:19:46","ZEBRA",NA,NA,NA,NA,NA,"incongruent","right","FALSE",NA,NA,NA,NA,NA,NA
NA,"flanker_test",NA,"image-keyboard-response","121","843297","0.0-3.0-73.0-0.3","2","2020-1-7 7:19:46","ZEBRA",NA,NA,NA,NA,NA,"congruent","left","FALSE",NA,NA,NA,NA,NA,NA
"30179","sort_trial",NA,"free-sort","122","874654","0.0-3.0-74.0","2","2020-1-7 7:19:46","ZEBRA",NA,NA,NA,NA,NA,NA,NA,NA,"[{""cat"":9,""src"":9,""x"":3,""y"":300},{""cat"":9,""src"":15,""x"":49,""y"":242},{""cat"":9,""src"":5,""x"":58,""y"":383},{""cat"":30,""src"":18,""x"":3,""y"":181},{""cat"":30,""src"":9,""x"":6,""y"":146},{""cat"":30,""src"":13,""x"":6,""y"":24},{""cat"":29,""src"":13,""x"":41,""y"":424},{""cat"":29,""src"":9,""x"":19,""y"":507},{""cat"":29,""src"":3,""x"":21,""y"":86}]","[{""cat"":""9"",""src"":""5"",""x"":0,""y"":0},{""cat"":""9"",""src"":""15"",""x"":0,""y"":0},{""cat"":""9"",""src"":""9"",""x"":0,""y"":0},{""cat"":""30"",""src"":""9"",""x"":0,""y"":0},{""cat"":""30"",""src"":""18"",""x"":0,""y"":0},{""cat"":""30"",""src"":""13"",""x"":0,""y"":0},{""cat"":""29"",""src"":""13"",""x"":0,""y"":0},{""cat"":""29"",""src"":""9"",""x"":0,""y"":0},{""cat"":""29"",""src"":""3"",""x"":0,""y"":0}]","[{""cat"":9,""src"":5,""loc"":5},{""cat"":9,""src"":15,""loc"":4},{""cat"":9,""src"":9,""loc"":3},{""cat"":30,""src"":9,""loc"":6},{""cat"":30,""src"":18,""loc"":8},{""cat"":30,""src"":13,""loc"":7},{""cat"":29,""src"":13,""loc"":0},{""cat"":29,""src"":9,""loc"":2},{""cat"":29,""src"":3,""loc"":1}]","7","29,29,29,9,9,9,30,30,30,13,3,9,9,15,5,9,13,18,0,1,2,3,4,5,6,7,8,6,8,7,2,1,0,3,5,4",NA
"1145","sort_feedback","69","html-keyboard-response","123","875801","0.0-3.0-75.0","2","2020-1-7 7:19:46","ZEBRA",NA,NA,NA,NA,NA,NA,NA,NA,NA,NA,NA,NA,NA,NA
"19928","setup4",NA,"animation","124","895730","0.0-3.0-76.0","2","2020-1-7 7:19:46","ZEBRA",NA,NA,"[{""cat"":7,""src"":11,""loc"":4},{""cat"":7,""src"":9,""loc"":2},{""cat"":7,""src"":14,""loc"":7},{""cat"":20,""src"":11,""loc"":1},{""cat"":20,""src"":0,""loc"":3},{""cat"":20,""src"":6,""loc"":8},{""cat"":12,""src"":10,""loc"":0},{""cat"":12,""src"":5,""loc"":6},{""cat"":12,""src"":2,""loc"":5}]","4","1102,1101,1101,1103,1103,1103,1105,1102,1105,10003",NA,NA,NA,NA,NA,NA,NA,NA,NA
"1405","flanker_instructions","82","html-keyboard-response","125","897138","0.0-3.0-77.0","2","2020-1-7 7:19:46","ZEBRA",NA,NA,NA,NA,NA,NA,NA,NA,NA,NA,NA,NA,NA,NA
NA,"flanker_test",NA,"image-keyboard-response","126","899046","0.0-3.0-78.0-0.0","2","2020-1-7 7:19:46","ZEBRA",NA,NA,NA,NA,NA,"incongruent","left","FALSE",NA,NA,NA,NA,NA,NA
NA,"flanker_test",NA,"image-keyboard-response","127","900438","0.0-3.0-78.0-0.1","2","2020-1-7 7:19:46","ZEBRA",NA,NA,NA,NA,NA,"congruent","right","FALSE",NA,NA,NA,NA,NA,NA
NA,"flanker_test",NA,"image-keyboard-response","128","901749","0.0-3.0-78.0-0.2","2","2020-1-7 7:19:46","ZEBRA",NA,NA,NA,NA,NA,"incongruent","right","FALSE",NA,NA,NA,NA,NA,NA
NA,"flanker_test",NA,"image-keyboard-response","129","903125","0.0-3.0-78.0-0.3","2","2020-1-7 7:19:46","ZEBRA",NA,NA,NA,NA,NA,"congruent","left","FALSE",NA,NA,NA,NA,NA,NA
"25143","sort_trial",NA,"free-sort","130","928973","0.0-3.0-79.0","2","2020-1-7 7:19:46","ZEBRA",NA,NA,NA,NA,NA,NA,NA,NA,"[{""cat"":7,""src"":11,""x"":17,""y"":261},{""cat"":7,""src"":9,""x"":78,""y"":439},{""cat"":7,""src"":14,""x"":5,""y"":188},{""cat"":20,""src"":11,""x"":0,""y"":386},{""cat"":20,""src"":0,""x"":65,""y"":130},{""cat"":20,""src"":6,""x"":6,""y"":488},{""cat"":12,""src"":10,""x"":70,""y"":324},{""cat"":12,""src"":5,""x"":9,""y"":17},{""cat"":12,""src"":2,""x"":21,""y"":76}]","[{""cat"":""7"",""src"":""14"",""x"":0,""y"":0},{""cat"":""20"",""src"":""6"",""x"":0,""y"":0},{""cat"":""12"",""src"":""5"",""x"":0,""y"":0},{""cat"":""20"",""src"":""11"",""x"":0,""y"":0},{""cat"":""7"",""src"":""11"",""x"":0,""y"":0},{""cat"":""12"",""src"":""2"",""x"":0,""y"":0},{""cat"":""20"",""src"":""0"",""x"":0,""y"":0},{""cat"":""12"",""src"":""10"",""x"":0,""y"":0},{""cat"":""7"",""src"":""9"",""x"":0,""y"":0}]","[{""cat"":7,""src"":14,""loc"":7},{""cat"":20,""src"":6,""loc"":8},{""cat"":12,""src"":5,""loc"":6},{""cat"":20,""src"":11,""loc"":1},{""cat"":7,""src"":11,""loc"":4},{""cat"":12,""src"":2,""loc"":5},{""cat"":20,""src"":0,""loc"":3},{""cat"":12,""src"":10,""loc"":0},{""cat"":7,""src"":9,""loc"":2}]","9","12,20,7,20,7,12,12,7,20,10,11,9,0,11,2,5,14,6,0,1,2,3,4,5,6,7,8,7,3,8,6,4,5,2,0,1",NA
"1200","sort_feedback","81","html-keyboard-response","131","930174","0.0-3.0-80.0","2","2020-1-7 7:19:46","ZEBRA",NA,NA,NA,NA,NA,NA,NA,NA,NA,NA,NA,NA,NA,NA
"19943","setup3",NA,"animation","132","950120","0.0-3.0-81.0","2","2020-1-7 7:19:46","ZEBRA",NA,NA,"[{""cat"":8,""src"":19,""loc"":6},{""cat"":4,""src"":3,""loc"":1},{""cat"":23,""src"":16,""loc"":3},{""cat"":23,""src"":0,""loc"":4},{""cat"":4,""src"":4,""loc"":0},{""cat"":8,""src"":7,""loc"":7},{""cat"":4,""src"":11,""loc"":2},{""cat"":8,""src"":6,""loc"":8},{""cat"":23,""src"":9,""loc"":5}]","3","1106,1103,1103,1103,1104,1102,1106,1104,1108,10004",NA,NA,NA,NA,NA,NA,NA,NA,NA
"744","flanker_instructions","87","html-keyboard-response","133","950867","0.0-3.0-82.0","2","2020-1-7 7:19:46","ZEBRA",NA,NA,NA,NA,NA,NA,NA,NA,NA,NA,NA,NA,NA,NA
NA,"flanker_test",NA,"image-keyboard-response","134","952775","0.0-3.0-83.0-0.0","2","2020-1-7 7:19:46","ZEBRA",NA,NA,NA,NA,NA,"congruent","right","FALSE",NA,NA,NA,NA,NA,NA
NA,"flanker_test",NA,"image-keyboard-response","135","954070","0.0-3.0-83.0-0.1","2","2020-1-7 7:19:46","ZEBRA",NA,NA,NA,NA,NA,"congruent","left","FALSE",NA,NA,NA,NA,NA,NA
NA,"flanker_test",NA,"image-keyboard-response","136","955843","0.0-3.0-83.0-0.2","2","2020-1-7 7:19:46","ZEBRA",NA,NA,NA,NA,NA,"incongruent","left","FALSE",NA,NA,NA,NA,NA,NA
NA,"flanker_test",NA,"image-keyboard-response","137","957862","0.0-3.0-83.0-0.3","2","2020-1-7 7:19:46","ZEBRA",NA,NA,NA,NA,NA,"incongruent","right","FALSE",NA,NA,NA,NA,NA,NA
"22743","sort_trial",NA,"free-sort","138","981333","0.0-3.0-84.0","2","2020-1-7 7:19:46","ZEBRA",NA,NA,NA,NA,NA,NA,NA,NA,"[{""cat"":8,""src"":19,""x"":48,""y"":387},{""cat"":4,""src"":3,""x"":58,""y"":437},{""cat"":23,""src"":16,""x"":76,""y"":137},{""cat"":23,""src"":0,""x"":37,""y"":16},{""cat"":4,""src"":4,""x"":27,""y"":267},{""cat"":8,""src"":7,""x"":20,""y"":302},{""cat"":4,""src"":11,""x"":10,""y"":499},{""cat"":8,""src"":6,""x"":16,""y"":195},{""cat"":23,""src"":9,""x"":59,""y"":82}]","[{""cat"":""4"",""src"":""3"",""x"":0,""y"":0},{""cat"":""8"",""src"":""7"",""x"":0,""y"":0},{""cat"":""8"",""src"":""19"",""x"":0,""y"":0},{""cat"":""8"",""src"":""6"",""x"":0,""y"":0},{""cat"":""4"",""src"":""4"",""x"":0,""y"":0},{""cat"":""4"",""src"":""11"",""x"":359,""y"":208},{""cat"":""4"",""src"":""11"",""x"":0,""y"":0},{""cat"":""23"",""src"":""9"",""x"":0,""y"":0},{""cat"":""23"",""src"":""0"",""x"":0,""y"":0},{""cat"":""23"",""src"":""16"",""x"":0,""y"":0}]","[{""cat"":4,""src"":3,""loc"":1},{""cat"":8,""src"":7,""loc"":7},{""cat"":8,""src"":19,""loc"":6},{""cat"":8,""src"":6,""loc"":8},{""cat"":4,""src"":4,""loc"":0},{""cat"":4,""src"":11,""loc"":2},{""cat"":23,""src"":9,""loc"":5},{""cat"":23,""src"":0,""loc"":3},{""cat"":23,""src"":16,""loc"":4}]","7","4,4,4,23,23,23,8,8,8,4,3,11,0,16,9,19,7,6,0,1,2,3,4,5,6,7,8,4,0,5,7,8,6,2,1,3",NA
"697","sort_feedback","87","html-keyboard-response","139","982032","0.0-3.0-85.0","2","2020-1-7 7:19:46","ZEBRA",NA,NA,NA,NA,NA,NA,NA,NA,NA,NA,NA,NA,NA,NA
"19955","setup5",NA,"animation","140","1001989","0.0-3.0-86.0","2","2020-1-7 7:19:46","ZEBRA",NA,NA,"[{""cat"":27,""src"":6,""loc"":8},{""cat"":24,""src"":3,""loc"":2},{""cat"":11,""src"":19,""loc"":4},{""cat"":11,""src"":2,""loc"":7},{""cat"":24,""src"":18,""loc"":3},{""cat"":27,""src"":19,""loc"":0},{""cat"":24,""src"":6,""loc"":6},{""cat"":27,""src"":13,""loc"":5},{""cat"":11,""src"":17,""loc"":1}]","5","1114,1106,1103,1104,1108,1103,1103,1107,1104,10003",NA,NA,NA,NA,NA,NA,NA,NA,NA
"1055","flanker_instructions","68","html-keyboard-response","141","1003048","0.0-3.0-87.0","2","2020-1-7 7:19:46","ZEBRA",NA,NA,NA,NA,NA,NA,NA,NA,NA,NA,NA,NA,NA,NA
NA,"flanker_test",NA,"image-keyboard-response","142","1004956","0.0-3.0-88.0-0.0","2","2020-1-7 7:19:46","ZEBRA",NA,NA,NA,NA,NA,"congruent","right","FALSE",NA,NA,NA,NA,NA,NA
NA,"flanker_test",NA,"image-keyboard-response","143","1006435","0.0-3.0-88.0-0.1","2","2020-1-7 7:19:46","ZEBRA",NA,NA,NA,NA,NA,"congruent","left","FALSE",NA,NA,NA,NA,NA,NA
NA,"flanker_test",NA,"image-keyboard-response","144","1008462","0.0-3.0-88.0-0.2","2","2020-1-7 7:19:46","ZEBRA",NA,NA,NA,NA,NA,"incongruent","left","FALSE",NA,NA,NA,NA,NA,NA
NA,"flanker_test",NA,"image-keyboard-response","145","1009855","0.0-3.0-88.0-0.3","2","2020-1-7 7:19:46","ZEBRA",NA,NA,NA,NA,NA,"incongruent","right","FALSE",NA,NA,NA,NA,NA,NA
"18833","sort_trial",NA,"free-sort","146","1029285","0.0-3.0-89.0","2","2020-1-7 7:19:46","ZEBRA",NA,NA,NA,NA,NA,NA,NA,NA,"[{""cat"":27,""src"":6,""x"":64,""y"":8},{""cat"":24,""src"":3,""x"":5,""y"":447},{""cat"":11,""src"":19,""x"":42,""y"":370},{""cat"":11,""src"":2,""x"":57,""y"":201},{""cat"":24,""src"":18,""x"":52,""y"":258},{""cat"":27,""src"":19,""x"":32,""y"":483},{""cat"":24,""src"":6,""x"":59,""y"":306},{""cat"":27,""src"":13,""x"":21,""y"":77},{""cat"":11,""src"":17,""x"":13,""y"":125}]","[{""cat"":""27"",""src"":""19"",""x"":0,""y"":0},{""cat"":""24"",""src"":""3"",""x"":0,""y"":0},{""cat"":""24"",""src"":""6"",""x"":0,""y"":0},{""cat"":""11"",""src"":""2"",""x"":0,""y"":0},{""cat"":""27"",""src"":""6"",""x"":0,""y"":0},{""cat"":""24"",""src"":""18"",""x"":0,""y"":0},{""cat"":""11"",""src"":""19"",""x"":0,""y"":0},{""cat"":""27"",""src"":""13"",""x"":0,""y"":0},{""cat"":""11"",""src"":""17"",""x"":0,""y"":0}]","[{""cat"":27,""src"":19,""loc"":0},{""cat"":24,""src"":3,""loc"":2},{""cat"":24,""src"":6,""loc"":6},{""cat"":11,""src"":2,""loc"":7},{""cat"":27,""src"":6,""loc"":8},{""cat"":24,""src"":18,""loc"":3},{""cat"":11,""src"":19,""loc"":4},{""cat"":27,""src"":13,""loc"":5},{""cat"":11,""src"":17,""loc"":1}]","9","27,11,24,24,11,27,24,11,27,19,17,3,18,19,13,6,2,6,0,1,2,3,4,5,6,7,8,0,8,1,5,6,7,2,3,4",NA
"1090","sort_feedback","87","html-keyboard-response","147","1030378","0.0-3.0-90.0","2","2020-1-7 7:19:46","ZEBRA",NA,NA,NA,NA,NA,NA,NA,NA,NA,NA,NA,NA,NA,NA
"21596","setup1",NA,"animation","148","1051975","0.0-3.0-91.0","2","2020-1-7 7:19:46","ZEBRA",NA,NA,"[{""cat"":10,""src"":4,""loc"":2},{""cat"":10,""src"":18,""loc"":0},{""cat"":10,""src"":17,""loc"":1},{""cat"":14,""src"":2,""loc"":6},{""cat"":14,""src"":17,""loc"":7},{""cat"":14,""src"":9,""loc"":8},{""cat"":20,""src"":1,""loc"":4},{""cat"":20,""src"":4,""loc"":5},{""cat"":20,""src"":9,""loc"":3}]","1","1525,1993,1452,1104,1103,1105,1103,1104,1104,10003",NA,NA,NA,NA,NA,NA,NA,NA,NA
"671","flanker_instructions","87","html-keyboard-response","149","1052651","0.0-3.0-92.0","2","2020-1-7 7:19:46","ZEBRA",NA,NA,NA,NA,NA,NA,NA,NA,NA,NA,NA,NA,NA,NA
NA,"flanker_test",NA,"image-keyboard-response","150","1054556","0.0-3.0-93.0-0.0","2","2020-1-7 7:19:46","ZEBRA",NA,NA,NA,NA,NA,"incongruent","right","FALSE",NA,NA,NA,NA,NA,NA
NA,"flanker_test",NA,"image-keyboard-response","151","1055975","0.0-3.0-93.0-0.1","2","2020-1-7 7:19:46","ZEBRA",NA,NA,NA,NA,NA,"congruent","right","FALSE",NA,NA,NA,NA,NA,NA
NA,"flanker_test",NA,"image-keyboard-response","152","1057495","0.0-3.0-93.0-0.2","2","2020-1-7 7:19:46","ZEBRA",NA,NA,NA,NA,NA,"incongruent","left","FALSE",NA,NA,NA,NA,NA,NA
NA,"flanker_test",NA,"image-keyboard-response","153","1058773","0.0-3.0-93.0-0.3","2","2020-1-7 7:19:46","ZEBRA",NA,NA,NA,NA,NA,"congruent","left","FALSE",NA,NA,NA,NA,NA,NA
"21964","sort_trial",NA,"free-sort","154","1081437","0.0-3.0-94.0","2","2020-1-7 7:19:46","ZEBRA",NA,NA,NA,NA,NA,NA,NA,NA,"[{""cat"":10,""src"":4,""x"":62,""y"":29},{""cat"":10,""src"":18,""x"":22,""y"":143},{""cat"":10,""src"":17,""x"":76,""y"":243},{""cat"":14,""src"":2,""x"":82,""y"":362},{""cat"":14,""src"":17,""x"":55,""y"":186},{""cat"":14,""src"":9,""x"":78,""y"":435},{""cat"":20,""src"":1,""x"":48,""y"":506},{""cat"":20,""src"":4,""x"":25,""y"":75},{""cat"":20,""src"":9,""x"":13,""y"":318}]","[{""cat"":""10"",""src"":""4"",""x"":0,""y"":0},{""cat"":""10"",""src"":""18"",""x"":0,""y"":0},{""cat"":""10"",""src"":""17"",""x"":0,""y"":0},{""cat"":""14"",""src"":""2"",""x"":0,""y"":0},{""cat"":""14"",""src"":""17"",""x"":0,""y"":0},{""cat"":""14"",""src"":""9"",""x"":0,""y"":0},{""cat"":""20"",""src"":""9"",""x"":0,""y"":0},{""cat"":""20"",""src"":""1"",""x"":0,""y"":0},{""cat"":""20"",""src"":""4"",""x"":0,""y"":0}]","[{""cat"":10,""src"":4,""loc"":2},{""cat"":10,""src"":18,""loc"":0},{""cat"":10,""src"":17,""loc"":1},{""cat"":14,""src"":2,""loc"":6},{""cat"":14,""src"":17,""loc"":7},{""cat"":14,""src"":9,""loc"":8},{""cat"":20,""src"":9,""loc"":3},{""cat"":20,""src"":1,""loc"":5},{""cat"":20,""src"":4,""loc"":4}]","7","10,10,10,20,20,20,14,14,14,18,17,4,9,4,1,2,17,9,0,1,2,3,4,5,6,7,8,1,2,0,6,8,7,3,4,5",NA
"888","sort_feedback","87","html-keyboard-response","155","1082328","0.0-3.0-95.0","2","2020-1-7 7:19:46","ZEBRA",NA,NA,NA,NA,NA,NA,NA,NA,NA,NA,NA,NA,NA,NA
"19949","setup2",NA,"animation","156","1102279","0.0-3.0-96.0","2","2020-1-7 7:19:46","ZEBRA",NA,NA,"[{""cat"":21,""src"":13,""loc"":4},{""cat"":2,""src"":2,""loc"":3},{""cat"":9,""src"":6,""loc"":5},{""cat"":2,""src"":3,""loc"":6},{""cat"":21,""src"":19,""loc"":8},{""cat"":9,""src"":19,""loc"":7},{""cat"":9,""src"":16,""loc"":2},{""cat"":2,""src"":1,""loc"":0},{""cat"":21,""src"":1,""loc"":1}]","2","1111,1105,1104,1104,1105,1105,1105,1105,1104,10001",NA,NA,NA,NA,NA,NA,NA,NA,NA
"591","flanker_instructions","83","html-keyboard-response","157","1102873","0.0-3.0-97.0","2","2020-1-7 7:19:46","ZEBRA",NA,NA,NA,NA,NA,NA,NA,NA,NA,NA,NA,NA,NA,NA
NA,"flanker_test",NA,"image-keyboard-response","158","1104779","0.0-3.0-98.0-0.0","2","2020-1-7 7:19:46","ZEBRA",NA,NA,NA,NA,NA,"incongruent","left","FALSE",NA,NA,NA,NA,NA,NA
NA,"flanker_test",NA,"image-keyboard-response","159","1106530","0.0-3.0-98.0-0.1","2","2020-1-7 7:19:46","ZEBRA",NA,NA,NA,NA,NA,"incongruent","right","FALSE",NA,NA,NA,NA,NA,NA
NA,"flanker_test",NA,"image-keyboard-response","160","1108561","0.0-3.0-98.0-0.2","2","2020-1-7 7:19:46","ZEBRA",NA,NA,NA,NA,NA,"congruent","right","FALSE",NA,NA,NA,NA,NA,NA
NA,"flanker_test",NA,"image-keyboard-response","161","1109891","0.0-3.0-98.0-0.3","2","2020-1-7 7:19:46","ZEBRA",NA,NA,NA,NA,NA,"congruent","left","FALSE",NA,NA,NA,NA,NA,NA
"24825","sort_trial",NA,"free-sort","162","1135084","0.0-3.0-99.0","2","2020-1-7 7:19:46","ZEBRA",NA,NA,NA,NA,NA,NA,NA,NA,"[{""cat"":21,""src"":13,""x"":79,""y"":309},{""cat"":2,""src"":2,""x"":13,""y"":199},{""cat"":9,""src"":6,""x"":66,""y"":1},{""cat"":2,""src"":3,""x"":6,""y"":502},{""cat"":21,""src"":19,""x"":32,""y"":380},{""cat"":9,""src"":19,""x"":70,""y"":86},{""cat"":9,""src"":16,""x"":36,""y"":441},{""cat"":2,""src"":1,""x"":20,""y"":252},{""cat"":21,""src"":1,""x"":8,""y"":139}]","[{""cat"":""9"",""src"":""19"",""x"":0,""y"":0},{""cat"":""2"",""src"":""3"",""x"":0,""y"":0},{""cat"":""21"",""src"":""19"",""x"":0,""y"":0},{""cat"":""9"",""src"":""16"",""x"":0,""y"":0},{""cat"":""2"",""src"":""1"",""x"":0,""y"":0},{""cat"":""9"",""src"":""6"",""x"":0,""y"":0},{""cat"":""21"",""src"":""13"",""x"":0,""y"":0},{""cat"":""2"",""src"":""2"",""x"":0,""y"":0},{""cat"":""21"",""src"":""1"",""x"":0,""y"":0}]","[{""cat"":9,""src"":19,""loc"":7},{""cat"":2,""src"":3,""loc"":6},{""cat"":21,""src"":19,""loc"":8},{""cat"":9,""src"":16,""loc"":2},{""cat"":2,""src"":1,""loc"":0},{""cat"":9,""src"":6,""loc"":5},{""cat"":21,""src"":13,""loc"":4},{""cat"":2,""src"":2,""loc"":3},{""cat"":21,""src"":1,""loc"":1}]","9","2,21,9,2,21,9,2,9,21,1,1,16,2,13,6,3,19,19,0,1,2,3,4,5,6,7,8,4,8,3,7,6,5,1,0,2",NA
"1068","sort_feedback","68","html-keyboard-response","163","1136156","0.0-3.0-100.0","2","2020-1-7 7:19:46","ZEBRA",NA,NA,NA,NA,NA,NA,NA,NA,NA,NA,NA,NA,NA,NA
NA,"breakStart",NA,"html-keyboard-response","164","1166161","0.0-4.0-0.0","2","2020-1-7 7:19:46","ZEBRA",NA,NA,NA,NA,NA,NA,NA,NA,NA,NA,NA,NA,NA,NA
"1359","breakEnd",NA,"html-button-response","165","1167524","0.0-4.0-1.0","2","2020-1-7 7:19:46","ZEBRA","0",NA,NA,NA,NA,NA,NA,NA,NA,NA,NA,NA,NA,NA
"19935","setup3",NA,"animation","166","1187460","0.0-5.0-0.0","2","2020-1-7 7:19:46","ZEBRA",NA,NA,"[{""cat"":20,""src"":3,""loc"":6},{""cat"":14,""src"":19,""loc"":4},{""cat"":21,""src"":1,""loc"":0},{""cat"":20,""src"":7,""loc"":7},{""cat"":14,""src"":6,""loc"":5},{""cat"":21,""src"":6,""loc"":1},{""cat"":14,""src"":11,""loc"":3},{""cat"":20,""src"":8,""loc"":8},{""cat"":21,""src"":11,""loc"":2}]","3","1103,1105,1104,1102,1104,1106,1103,1103,1102,10002",NA,NA,NA,NA,NA,NA,NA,NA,NA
"681","flanker_instructions","68","html-keyboard-response","167","1188145","0.0-5.0-1.0","2","2020-1-7 7:19:46","ZEBRA",NA,NA,NA,NA,NA,NA,NA,NA,NA,NA,NA,NA,NA,NA
NA,"flanker_test",NA,"image-keyboard-response","168","1190053","0.0-5.0-2.0-0.0","2","2020-1-7 7:19:46","ZEBRA",NA,NA,NA,NA,NA,"incongruent","right","FALSE",NA,NA,NA,NA,NA,NA
NA,"flanker_test",NA,"image-keyboard-response","169","1191637","0.0-5.0-2.0-0.1","2","2020-1-7 7:19:46","ZEBRA",NA,NA,NA,NA,NA,"congruent","left","FALSE",NA,NA,NA,NA,NA,NA
NA,"flanker_test",NA,"image-keyboard-response","170","1193383","0.0-5.0-2.0-0.2","2","2020-1-7 7:19:46","ZEBRA",NA,NA,NA,NA,NA,"congruent","right","FALSE",NA,NA,NA,NA,NA,NA
NA,"flanker_test",NA,"image-keyboard-response","171","1194765","0.0-5.0-2.0-0.3","2","2020-1-7 7:19:46","ZEBRA",NA,NA,NA,NA,NA,"incongruent","left","FALSE",NA,NA,NA,NA,NA,NA
"18322","sort_trial",NA,"free-sort","172","1213805","0.0-5.0-3.0","2","2020-1-7 7:19:46","ZEBRA",NA,NA,NA,NA,NA,NA,NA,NA,"[{""cat"":20,""src"":3,""x"":68,""y"":311},{""cat"":14,""src"":19,""x"":79,""y"":124},{""cat"":21,""src"":1,""x"":56,""y"":209},{""cat"":20,""src"":7,""x"":38,""y"":242},{""cat"":14,""src"":6,""x"":13,""y"":63},{""cat"":21,""src"":6,""x"":65,""y"":486},{""cat"":14,""src"":11,""x"":77,""y"":16},{""cat"":20,""src"":8,""x"":49,""y"":389},{""cat"":21,""src"":11,""x"":52,""y"":443}]","[{""cat"":""21"",""src"":""1"",""x"":0,""y"":0},{""cat"":""21"",""src"":""6"",""x"":0,""y"":0},{""cat"":""20"",""src"":""3"",""x"":0,""y"":0},{""cat"":""20"",""src"":""7"",""x"":0,""y"":0},{""cat"":""20"",""src"":""8"",""x"":0,""y"":0},{""cat"":""14"",""src"":""11"",""x"":0,""y"":0},{""cat"":""14"",""src"":""6"",""x"":0,""y"":0},{""cat"":""14"",""src"":""19"",""x"":0,""y"":0},{""cat"":""21"",""src"":""11"",""x"":0,""y"":0}]","[{""cat"":21,""src"":1,""loc"":0},{""cat"":21,""src"":6,""loc"":1},{""cat"":20,""src"":3,""loc"":6},{""cat"":20,""src"":7,""loc"":7},{""cat"":20,""src"":8,""loc"":8},{""cat"":14,""src"":11,""loc"":3},{""cat"":14,""src"":6,""loc"":5},{""cat"":14,""src"":19,""loc"":4},{""cat"":21,""src"":11,""loc"":2}]","9","21,21,21,14,14,14,20,20,20,1,6,11,11,19,6,3,7,8,0,1,2,3,4,5,6,7,8,0,1,8,5,7,6,2,3,4",NA
"353","sort_feedback","69","html-keyboard-response","173","1214160","0.0-5.0-4.0","2","2020-1-7 7:19:46","ZEBRA",NA,NA,NA,NA,NA,NA,NA,NA,NA,NA,NA,NA,NA,NA
"19957","setup2",NA,"animation","174","1234118","0.0-5.0-5.0","2","2020-1-7 7:19:46","ZEBRA",NA,NA,"[{""cat"":18,""src"":6,""loc"":3},{""cat"":30,""src"":9,""loc"":5},{""cat"":16,""src"":1,""loc"":4},{""cat"":18,""src"":9,""loc"":2},{""cat"":16,""src"":11,""loc"":0},{""cat"":30,""src"":19,""loc"":1},{""cat"":30,""src"":8,""loc"":7},{""cat"":16,""src"":17,""loc"":6},{""cat"":18,""src"":19,""loc"":8}]","2","1106,1103,1105,1102,1105,1105,1105,1102,1103,10021",NA,NA,NA,NA,NA,NA,NA,NA,NA
"3300","flanker_instructions","69","html-keyboard-response","175","1237422","0.0-5.0-6.0","2","2020-1-7 7:19:46","ZEBRA",NA,NA,NA,NA,NA,NA,NA,NA,NA,NA,NA,NA,NA,NA
NA,"flanker_test",NA,"image-keyboard-response","176","1239329","0.0-5.0-7.0-0.0","2","2020-1-7 7:19:46","ZEBRA",NA,NA,NA,NA,NA,"congruent","right","FALSE",NA,NA,NA,NA,NA,NA
NA,"flanker_test",NA,"image-keyboard-response","177","1240886","0.0-5.0-7.0-0.1","2","2020-1-7 7:19:46","ZEBRA",NA,NA,NA,NA,NA,"congruent","left","FALSE",NA,NA,NA,NA,NA,NA
NA,"flanker_test",NA,"image-keyboard-response","178","1242436","0.0-5.0-7.0-0.2","2","2020-1-7 7:19:46","ZEBRA",NA,NA,NA,NA,NA,"incongruent","right","FALSE",NA,NA,NA,NA,NA,NA
NA,"flanker_test",NA,"image-keyboard-response","179","1244480","0.0-5.0-7.0-0.3","2","2020-1-7 7:19:46","ZEBRA",NA,NA,NA,NA,NA,"incongruent","left","FALSE",NA,NA,NA,NA,NA,NA
"26920","sort_trial",NA,"free-sort","180","1272059","0.0-5.0-8.0","2","2020-1-7 7:19:46","ZEBRA",NA,NA,NA,NA,NA,NA,NA,NA,"[{""cat"":18,""src"":6,""x"":64,""y"":29},{""cat"":30,""src"":9,""x"":80,""y"":364},{""cat"":16,""src"":1,""x"":9,""y"":245},{""cat"":18,""src"":9,""x"":3,""y"":180},{""cat"":16,""src"":11,""x"":10,""y"":125},{""cat"":30,""src"":19,""x"":34,""y"":60},{""cat"":30,""src"":8,""x"":33,""y"":323},{""cat"":16,""src"":17,""x"":52,""y"":499},{""cat"":18,""src"":19,""x"":29,""y"":424}]","[{""cat"":""30"",""src"":""9"",""x"":0,""y"":0},{""cat"":""18"",""src"":""6"",""x"":0,""y"":0},{""cat"":""16"",""src"":""1"",""x"":0,""y"":0},{""cat"":""18"",""src"":""9"",""x"":0,""y"":0},{""cat"":""30"",""src"":""19"",""x"":0,""y"":0},{""cat"":""16"",""src"":""11"",""x"":0,""y"":0},{""cat"":""30"",""src"":""8"",""x"":0,""y"":0},{""cat"":""18"",""src"":""19"",""x"":0,""y"":0},{""cat"":""16"",""src"":""17"",""x"":0,""y"":0}]","[{""cat"":30,""src"":9,""loc"":5},{""cat"":18,""src"":6,""loc"":3},{""cat"":16,""src"":1,""loc"":4},{""cat"":18,""src"":9,""loc"":2},{""cat"":30,""src"":19,""loc"":1},{""cat"":16,""src"":11,""loc"":0},{""cat"":30,""src"":8,""loc"":7},{""cat"":18,""src"":19,""loc"":6},{""cat"":16,""src"":17,""loc"":8}]","7","16,30,18,18,16,30,18,30,16,11,19,9,6,1,9,19,8,17,0,1,2,3,4,5,6,7,8,5,4,3,1,2,0,7,6,8",NA
"2467","sort_feedback","69","html-keyboard-response","181","1274528","0.0-5.0-9.0","2","2020-1-7 7:19:46","ZEBRA",NA,NA,NA,NA,NA,NA,NA,NA,NA,NA,NA,NA,NA,NA
"19951","setup5",NA,"animation","182","1294481","0.0-5.0-10.0","2","2020-1-7 7:19:46","ZEBRA",NA,NA,"[{""cat"":8,""src"":8,""loc"":2},{""cat"":12,""src"":15,""loc"":3},{""cat"":2,""src"":2,""loc"":8},{""cat"":12,""src"":13,""loc"":7},{""cat"":2,""src"":0,""loc"":0},{""cat"":8,""src"":15,""loc"":5},{""cat"":12,""src"":11,""loc"":1},{""cat"":2,""src"":12,""loc"":4},{""cat"":8,""src"":11,""loc"":6}]","5","1106,1104,1103,1107,1106,1105,1106,1104,1105,10004",NA,NA,NA,NA,NA,NA,NA,NA,NA
"172","flanker_instructions","68","html-keyboard-response","183","1294658","0.0-5.0-11.0","2","2020-1-7 7:19:46","ZEBRA",NA,NA,NA,NA,NA,NA,NA,NA,NA,NA,NA,NA,NA,NA
NA,"flanker_test",NA,"image-keyboard-response","184","1296565","0.0-5.0-12.0-0.0","2","2020-1-7 7:19:46","ZEBRA",NA,NA,NA,NA,NA,"incongruent","left","FALSE",NA,NA,NA,NA,NA,NA
NA,"flanker_test",NA,"image-keyboard-response","185","1298560","0.0-5.0-12.0-0.1","2","2020-1-7 7:19:46","ZEBRA",NA,NA,NA,NA,NA,"incongruent","right","FALSE",NA,NA,NA,NA,NA,NA
NA,"flanker_test",NA,"image-keyboard-response","186","1300478","0.0-5.0-12.0-0.2","2","2020-1-7 7:19:46","ZEBRA",NA,NA,NA,NA,NA,"congruent","right","FALSE",NA,NA,NA,NA,NA,NA
NA,"flanker_test",NA,"image-keyboard-response","187","1302536","0.0-5.0-12.0-0.3","2","2020-1-7 7:19:46","ZEBRA",NA,NA,NA,NA,NA,"congruent","left","FALSE",NA,NA,NA,NA,NA,NA
"22758","sort_trial",NA,"free-sort","188","1325860","0.0-5.0-13.0","2","2020-1-7 7:19:46","ZEBRA",NA,NA,NA,NA,NA,NA,NA,NA,"[{""cat"":8,""src"":8,""x"":66,""y"":124},{""cat"":12,""src"":15,""x"":18,""y"":320},{""cat"":2,""src"":2,""x"":56,""y"":80},{""cat"":12,""src"":13,""x"":54,""y"":179},{""cat"":2,""src"":0,""x"":68,""y"":372},{""cat"":8,""src"":15,""x"":36,""y"":9},{""cat"":12,""src"":11,""x"":30,""y"":443},{""cat"":2,""src"":12,""x"":70,""y"":494},{""cat"":8,""src"":11,""x"":51,""y"":244}]","[{""cat"":""2"",""src"":""0"",""x"":0,""y"":0},{""cat"":""8"",""src"":""8"",""x"":0,""y"":0},{""cat"":""12"",""src"":""13"",""x"":0,""y"":0},{""cat"":""2"",""src"":""2"",""x"":0,""y"":0},{""cat"":""8"",""src"":""15"",""x"":0,""y"":0},{""cat"":""12"",""src"":""15"",""x"":0,""y"":0},{""cat"":""8"",""src"":""11"",""x"":0,""y"":0},{""cat"":""12"",""src"":""11"",""x"":0,""y"":0},{""cat"":""2"",""src"":""12"",""x"":0,""y"":0}]","[{""cat"":2,""src"":0,""loc"":0},{""cat"":8,""src"":8,""loc"":2},{""cat"":12,""src"":13,""loc"":7},{""cat"":2,""src"":2,""loc"":6},{""cat"":8,""src"":15,""loc"":5},{""cat"":12,""src"":15,""loc"":3},{""cat"":8,""src"":11,""loc"":4},{""cat"":12,""src"":11,""loc"":1},{""cat"":2,""src"":12,""loc"":8}]","6","2,12,8,12,8,8,2,12,2,0,11,8,15,11,15,2,13,12,0,1,2,3,4,5,6,7,8,0,7,1,5,6,4,3,2,8",NA
"1333","sort_feedback","69","html-keyboard-response","189","1327195","0.0-5.0-14.0","2","2020-1-7 7:19:46","ZEBRA",NA,NA,NA,NA,NA,NA,NA,NA,NA,NA,NA,NA,NA,NA
"19957","setup4",NA,"animation","190","1347154","0.0-5.0-15.0","2","2020-1-7 7:19:46","ZEBRA",NA,NA,"[{""cat"":27,""src"":7,""loc"":4},{""cat"":27,""src"":15,""loc"":7},{""cat"":27,""src"":3,""loc"":1},{""cat"":32,""src"":14,""loc"":3},{""cat"":32,""src"":19,""loc"":2},{""cat"":32,""src"":3,""loc"":6},{""cat"":23,""src"":11,""loc"":0},{""cat"":23,""src"":2,""loc"":8},{""cat"":23,""src"":15,""loc"":5}]","4","1105,1106,1119,1103,1103,1102,1106,1106,1105,10001",NA,NA,NA,NA,NA,NA,NA,NA,NA
"414","flanker_instructions","70","html-keyboard-response","191","1347574","0.0-5.0-16.0","2","2020-1-7 7:19:46","ZEBRA",NA,NA,NA,NA,NA,NA,NA,NA,NA,NA,NA,NA,NA,NA
NA,"flanker_test",NA,"image-keyboard-response","192","1349483","0.0-5.0-17.0-0.0","2","2020-1-7 7:19:46","ZEBRA",NA,NA,NA,NA,NA,"congruent","left","FALSE",NA,NA,NA,NA,NA,NA
NA,"flanker_test",NA,"image-keyboard-response","193","1351245","0.0-5.0-17.0-0.1","2","2020-1-7 7:19:46","ZEBRA",NA,NA,NA,NA,NA,"congruent","right","FALSE",NA,NA,NA,NA,NA,NA
NA,"flanker_test",NA,"image-keyboard-response","194","1353230","0.0-5.0-17.0-0.2","2","2020-1-7 7:19:46","ZEBRA",NA,NA,NA,NA,NA,"incongruent","left","FALSE",NA,NA,NA,NA,NA,NA
NA,"flanker_test",NA,"image-keyboard-response","195","1354445","0.0-5.0-17.0-0.3","2","2020-1-7 7:19:46","ZEBRA",NA,NA,NA,NA,NA,"incongruent","right","FALSE",NA,NA,NA,NA,NA,NA
"19806","sort_trial",NA,"free-sort","196","1374892","0.0-5.0-18.0","2","2020-1-7 7:19:46","ZEBRA",NA,NA,NA,NA,NA,NA,NA,NA,"[{""cat"":27,""src"":7,""x"":55,""y"":68},{""cat"":27,""src"":15,""x"":19,""y"":259},{""cat"":27,""src"":3,""x"":12,""y"":436},{""cat"":32,""src"":14,""x"":12,""y"":494},{""cat"":32,""src"":19,""x"":7,""y"":20},{""cat"":32,""src"":3,""x"":75,""y"":300},{""cat"":23,""src"":11,""x"":41,""y"":129},{""cat"":23,""src"":2,""x"":57,""y"":192},{""cat"":23,""src"":15,""x"":44,""y"":363}]","[{""cat"":""23"",""src"":""11"",""x"":0,""y"":0},{""cat"":""32"",""src"":""19"",""x"":0,""y"":0},{""cat"":""27"",""src"":""3"",""x"":0,""y"":0},{""cat"":""27"",""src"":""15"",""x"":0,""y"":0},{""cat"":""32"",""src"":""3"",""x"":0,""y"":0},{""cat"":""32"",""src"":""14"",""x"":0,""y"":0},{""cat"":""27"",""src"":""7"",""x"":0,""y"":0},{""cat"":""23"",""src"":""2"",""x"":0,""y"":0},{""cat"":""23"",""src"":""15"",""x"":0,""y"":0}]","[{""cat"":23,""src"":11,""loc"":0},{""cat"":32,""src"":19,""loc"":2},{""cat"":27,""src"":3,""loc"":1},{""cat"":27,""src"":15,""loc"":7},{""cat"":32,""src"":3,""loc"":6},{""cat"":32,""src"":14,""loc"":3},{""cat"":27,""src"":7,""loc"":4},{""cat"":23,""src"":2,""loc"":5},{""cat"":23,""src"":15,""loc"":8}]","7","23,27,32,32,27,23,32,27,23,11,3,19,14,7,2,3,15,15,0,1,2,3,4,5,6,7,8,0,2,1,5,6,7,4,3,8",NA
"1082","sort_feedback","69","html-keyboard-response","197","1375976","0.0-5.0-19.0","2","2020-1-7 7:19:46","ZEBRA",NA,NA,NA,NA,NA,NA,NA,NA,NA,NA,NA,NA,NA,NA
"19946","setup1",NA,"animation","198","1395924","0.0-5.0-20.0","2","2020-1-7 7:19:46","ZEBRA",NA,NA,"[{""cat"":14,""src"":14,""loc"":8},{""cat"":14,""src"":18,""loc"":7},{""cat"":14,""src"":3,""loc"":6},{""cat"":18,""src"":4,""loc"":2},{""cat"":18,""src"":12,""loc"":0},{""cat"":18,""src"":11,""loc"":1},{""cat"":10,""src"":3,""loc"":4},{""cat"":10,""src"":5,""loc"":5},{""cat"":10,""src"":17,""loc"":3}]","1","1107,1107,1105,1103,1104,1104,1104,1104,1104,10004",NA,NA,NA,NA,NA,NA,NA,NA,NA
"4346","flanker_instructions","70","html-keyboard-response","199","1400274","0.0-5.0-21.0","2","2020-1-7 7:19:46","ZEBRA",NA,NA,NA,NA,NA,NA,NA,NA,NA,NA,NA,NA,NA,NA
NA,"flanker_test",NA,"image-keyboard-response","200","1402181","0.0-5.0-22.0-0.0","2","2020-1-7 7:19:46","ZEBRA",NA,NA,NA,NA,NA,"congruent","right","FALSE",NA,NA,NA,NA,NA,NA
NA,"flanker_test",NA,"image-keyboard-response","201","1404164","0.0-5.0-22.0-0.1","2","2020-1-7 7:19:46","ZEBRA",NA,NA,NA,NA,NA,"incongruent","right","FALSE",NA,NA,NA,NA,NA,NA
NA,"flanker_test",NA,"image-keyboard-response","202","1406072","0.0-5.0-22.0-0.2","2","2020-1-7 7:19:46","ZEBRA",NA,NA,NA,NA,NA,"congruent","left","FALSE",NA,NA,NA,NA,NA,NA
NA,"flanker_test",NA,"image-keyboard-response","203","1407790","0.0-5.0-22.0-0.3","2","2020-1-7 7:19:46","ZEBRA",NA,NA,NA,NA,NA,"incongruent","left","FALSE",NA,NA,NA,NA,NA,NA
"17274","sort_trial",NA,"free-sort","204","1425441","0.0-5.0-23.0","2","2020-1-7 7:19:46","ZEBRA",NA,NA,NA,NA,NA,NA,NA,NA,"[{""cat"":14,""src"":14,""x"":15,""y"":373},{""cat"":14,""src"":18,""x"":28,""y"":17},{""cat"":14,""src"":3,""x"":15,""y"":489},{""cat"":18,""src"":4,""x"":28,""y"":192},{""cat"":18,""src"":12,""x"":4,""y"":140},{""cat"":18,""src"":11,""x"":46,""y"":425},{""cat"":10,""src"":3,""x"":58,""y"":85},{""cat"":10,""src"":5,""x"":43,""y"":240},{""cat"":10,""src"":17,""x"":31,""y"":317}]","[{""cat"":""18"",""src"":""11"",""x"":0,""y"":0},{""cat"":""18"",""src"":""12"",""x"":0,""y"":0},{""cat"":""18"",""src"":""4"",""x"":0,""y"":0},{""cat"":""14"",""src"":""3"",""x"":0,""y"":0},{""cat"":""14"",""src"":""18"",""x"":0,""y"":0},{""cat"":""14"",""src"":""14"",""x"":0,""y"":0},{""cat"":""10"",""src"":""5"",""x"":0,""y"":0},{""cat"":""10"",""src"":""3"",""x"":0,""y"":0},{""cat"":""10"",""src"":""17"",""x"":0,""y"":0}]","[{""cat"":18,""src"":11,""loc"":1},{""cat"":18,""src"":12,""loc"":0},{""cat"":18,""src"":4,""loc"":2},{""cat"":14,""src"":3,""loc"":6},{""cat"":14,""src"":18,""loc"":7},{""cat"":14,""src"":14,""loc"":8},{""cat"":10,""src"":5,""loc"":5},{""cat"":10,""src"":3,""loc"":4},{""cat"":10,""src"":17,""loc"":3}]","9","18,18,18,10,10,10,14,14,14,12,11,4,17,3,5,3,18,14,0,1,2,3,4,5,6,7,8,1,0,2,8,7,6,3,4,5",NA
"436","sort_feedback","69","html-keyboard-response","205","1425879","0.0-5.0-24.0","2","2020-1-7 7:19:46","ZEBRA",NA,NA,NA,NA,NA,NA,NA,NA,NA,NA,NA,NA,NA,NA
"19953","setup3",NA,"animation","206","1445834","0.0-5.0-25.0","2","2020-1-7 7:19:46","ZEBRA",NA,NA,"[{""cat"":25,""src"":15,""loc"":8},{""cat"":5,""src"":14,""loc"":5},{""cat"":1,""src"":15,""loc"":0},{""cat"":5,""src"":7,""loc"":3},{""cat"":25,""src"":13,""loc"":6},{""cat"":1,""src"":0,""loc"":2},{""cat"":25,""src"":11,""loc"":7},{""cat"":5,""src"":15,""loc"":4},{""cat"":1,""src"":8,""loc"":1}]","3","1104,1113,1103,1103,1106,1105,1105,1107,1103,10003",NA,NA,NA,NA,NA,NA,NA,NA,NA
"1869","flanker_instructions","68","html-keyboard-response","207","1447709","0.0-5.0-26.0","2","2020-1-7 7:19:46","ZEBRA",NA,NA,NA,NA,NA,NA,NA,NA,NA,NA,NA,NA,NA,NA
NA,"flanker_test",NA,"image-keyboard-response","208","1449617","0.0-5.0-27.0-0.0","2","2020-1-7 7:19:46","ZEBRA",NA,NA,NA,NA,NA,"congruent","right","FALSE",NA,NA,NA,NA,NA,NA
NA,"flanker_test",NA,"image-keyboard-response","209","1451240","0.0-5.0-27.0-0.1","2","2020-1-7 7:19:46","ZEBRA",NA,NA,NA,NA,NA,"incongruent","right","FALSE",NA,NA,NA,NA,NA,NA
NA,"flanker_test",NA,"image-keyboard-response","210","1453012","0.0-5.0-27.0-0.2","2","2020-1-7 7:19:46","ZEBRA",NA,NA,NA,NA,NA,"congruent","left","FALSE",NA,NA,NA,NA,NA,NA
NA,"flanker_test",NA,"image-keyboard-response","211","1454655","0.0-5.0-27.0-0.3","2","2020-1-7 7:19:46","ZEBRA",NA,NA,NA,NA,NA,"incongruent","left","FALSE",NA,NA,NA,NA,NA,NA
"25714","sort_trial",NA,"free-sort","212","1480856","0.0-5.0-28.0","2","2020-1-7 7:19:46","ZEBRA",NA,NA,NA,NA,NA,NA,NA,NA,"[{""cat"":25,""src"":15,""x"":60,""y"":429},{""cat"":5,""src"":14,""x"":22,""y"":25},{""cat"":1,""src"":15,""x"":59,""y"":505},{""cat"":5,""src"":7,""x"":43,""y"":264},{""cat"":25,""src"":13,""x"":5,""y"":137},{""cat"":1,""src"":0,""x"":7,""y"":385},{""cat"":25,""src"":11,""x"":1,""y"":306},{""cat"":5,""src"":15,""x"":78,""y"":68},{""cat"":1,""src"":8,""x"":18,""y"":190}]","[{""cat"":""1"",""src"":""15"",""x"":0,""y"":0},{""cat"":""1"",""src"":""0"",""x"":0,""y"":0},{""cat"":""25"",""src"":""13"",""x"":0,""y"":0},{""cat"":""25"",""src"":""11"",""x"":0,""y"":0},{""cat"":""25"",""src"":""15"",""x"":0,""y"":0},{""cat"":""5"",""src"":""14"",""x"":0,""y"":0},{""cat"":""5"",""src"":""15"",""x"":0,""y"":0},{""cat"":""5"",""src"":""7"",""x"":0,""y"":0},{""cat"":""1"",""src"":""8"",""x"":0,""y"":0}]","[{""cat"":1,""src"":15,""loc"":0},{""cat"":1,""src"":0,""loc"":2},{""cat"":25,""src"":13,""loc"":6},{""cat"":25,""src"":11,""loc"":7},{""cat"":25,""src"":15,""loc"":8},{""cat"":5,""src"":14,""loc"":5},{""cat"":5,""src"":15,""loc"":4},{""cat"":5,""src"":7,""loc"":3},{""cat"":1,""src"":8,""loc"":1}]","9","1,1,1,5,5,5,25,25,25,15,8,0,7,15,14,13,11,15,0,1,2,3,4,5,6,7,8,0,8,1,7,6,5,2,3,4",NA
"1154","sort_feedback","70","html-keyboard-response","213","1482012","0.0-5.0-29.0","2","2020-1-7 7:19:46","ZEBRA",NA,NA,NA,NA,NA,NA,NA,NA,NA,NA,NA,NA,NA,NA
"19941","setup1",NA,"animation","214","1501954","0.0-5.0-30.0","2","2020-1-7 7:19:46","ZEBRA",NA,NA,"[{""cat"":18,""src"":5,""loc"":5},{""cat"":18,""src"":19,""loc"":3},{""cat"":18,""src"":4,""loc"":4},{""cat"":29,""src"":6,""loc"":8},{""cat"":29,""src"":14,""loc"":7},{""cat"":29,""src"":19,""loc"":6},{""cat"":21,""src"":19,""loc"":1},{""cat"":21,""src"":14,""loc"":0},{""cat"":21,""src"":9,""loc"":2}]","1","1107,1104,1103,1104,1103,1104,1104,1104,1104,10004",NA,NA,NA,NA,NA,NA,NA,NA,NA
"1201","flanker_instructions","69","html-keyboard-response","215","1503159","0.0-5.0-31.0","2","2020-1-7 7:19:46","ZEBRA",NA,NA,NA,NA,NA,NA,NA,NA,NA,NA,NA,NA,NA,NA
NA,"flanker_test",NA,"image-keyboard-response","216","1505065","0.0-5.0-32.0-0.0","2","2020-1-7 7:19:46","ZEBRA",NA,NA,NA,NA,NA,"congruent","right","FALSE",NA,NA,NA,NA,NA,NA
NA,"flanker_test",NA,"image-keyboard-response","217","1506465","0.0-5.0-32.0-0.1","2","2020-1-7 7:19:46","ZEBRA",NA,NA,NA,NA,NA,"congruent","left","FALSE",NA,NA,NA,NA,NA,NA
NA,"flanker_test",NA,"image-keyboard-response","218","1508543","0.0-5.0-32.0-0.2","2","2020-1-7 7:19:46","ZEBRA",NA,NA,NA,NA,NA,"incongruent","right","FALSE",NA,NA,NA,NA,NA,NA
NA,"flanker_test",NA,"image-keyboard-response","219","1510500","0.0-5.0-32.0-0.3","2","2020-1-7 7:19:46","ZEBRA",NA,NA,NA,NA,NA,"incongruent","left","FALSE",NA,NA,NA,NA,NA,NA
"23284","sort_trial",NA,"free-sort","220","1534967","0.0-5.0-33.0","2","2020-1-7 7:19:46","ZEBRA",NA,NA,NA,NA,NA,NA,NA,NA,"[{""cat"":18,""src"":5,""x"":79,""y"":16},{""cat"":18,""src"":19,""x"":37,""y"":85},{""cat"":18,""src"":4,""x"":81,""y"":362},{""cat"":29,""src"":6,""x"":9,""y"":484},{""cat"":29,""src"":14,""x"":46,""y"":207},{""cat"":29,""src"":19,""x"":37,""y"":250},{""cat"":21,""src"":19,""x"":79,""y"":422},{""cat"":21,""src"":14,""x"":57,""y"":142},{""cat"":21,""src"":9,""x"":26,""y"":301}]","[{""cat"":""21"",""src"":""14"",""x"":0,""y"":0},{""cat"":""29"",""src"":""19"",""x"":0,""y"":0},{""cat"":""29"",""src"":""14"",""x"":0,""y"":0},{""cat"":""18"",""src"":""19"",""x"":0,""y"":0},{""cat"":""18"",""src"":""5"",""x"":0,""y"":0},{""cat"":""18"",""src"":""4"",""x"":0,""y"":0},{""cat"":""29"",""src"":""6"",""x"":0,""y"":0},{""cat"":""21"",""src"":""9"",""x"":0,""y"":0},{""cat"":""21"",""src"":""19"",""x"":0,""y"":0}]","[{""cat"":21,""src"":14,""loc"":0},{""cat"":29,""src"":19,""loc"":6},{""cat"":29,""src"":14,""loc"":7},{""cat"":18,""src"":19,""loc"":3},{""cat"":18,""src"":5,""loc"":5},{""cat"":18,""src"":4,""loc"":4},{""cat"":29,""src"":6,""loc"":8},{""cat"":21,""src"":9,""loc"":2},{""cat"":21,""src"":19,""loc"":1}]","9","21,21,21,18,18,18,29,29,29,14,19,9,19,4,5,19,14,6,0,1,2,3,4,5,6,7,8,0,8,7,3,5,4,1,2,6",NA
"611","sort_feedback","51","html-keyboard-response","221","1535579","0.0-5.0-34.0","2","2020-1-7 7:19:46","ZEBRA",NA,NA,NA,NA,NA,NA,NA,NA,NA,NA,NA,NA,NA,NA
"19966","setup5",NA,"animation","222","1555546","0.0-5.0-35.0","2","2020-1-7 7:19:46","ZEBRA",NA,NA,"[{""cat"":20,""src"":6,""loc"":2},{""cat"":6,""src"":17,""loc"":8},{""cat"":24,""src"":8,""loc"":5},{""cat"":6,""src"":6,""loc"":0},{""cat"":20,""src"":7,""loc"":4},{""cat"":24,""src"":4,""loc"":7},{""cat"":24,""src"":14,""loc"":1},{""cat"":20,""src"":13,""loc"":6},{""cat"":6,""src"":13,""loc"":3}]","5","1109,1103,1122,1105,1104,1104,1104,1106,1105,10004",NA,NA,NA,NA,NA,NA,NA,NA,NA
"480","flanker_instructions","68","html-keyboard-response","223","1556029","0.0-5.0-36.0","2","2020-1-7 7:19:46","ZEBRA",NA,NA,NA,NA,NA,NA,NA,NA,NA,NA,NA,NA,NA,NA
NA,"flanker_test",NA,"image-keyboard-response","224","1557938","0.0-5.0-37.0-0.0","2","2020-1-7 7:19:46","ZEBRA",NA,NA,NA,NA,NA,"congruent","left","FALSE",NA,NA,NA,NA,NA,NA
NA,"flanker_test",NA,"image-keyboard-response","225","1559789","0.0-5.0-37.0-0.1","2","2020-1-7 7:19:46","ZEBRA",NA,NA,NA,NA,NA,"congruent","right","FALSE",NA,NA,NA,NA,NA,NA
NA,"flanker_test",NA,"image-keyboard-response","226","1561891","0.0-5.0-37.0-0.2","2","2020-1-7 7:19:46","ZEBRA",NA,NA,NA,NA,NA,"incongruent","left","FALSE",NA,NA,NA,NA,NA,NA
NA,"flanker_test",NA,"image-keyboard-response","227","1563810","0.0-5.0-37.0-0.3","2","2020-1-7 7:19:46","ZEBRA",NA,NA,NA,NA,NA,"incongruent","right","FALSE",NA,NA,NA,NA,NA,NA
"23585","sort_trial",NA,"free-sort","228","1588561","0.0-5.0-38.0","2","2020-1-7 7:19:46","ZEBRA",NA,NA,NA,NA,NA,NA,NA,NA,"[{""cat"":20,""src"":6,""x"":56,""y"":492},{""cat"":6,""src"":17,""x"":11,""y"":87},{""cat"":24,""src"":8,""x"":41,""y"":303},{""cat"":6,""src"":6,""x"":20,""y"":425},{""cat"":20,""src"":7,""x"":79,""y"":207},{""cat"":24,""src"":4,""x"":79,""y"":251},{""cat"":24,""src"":14,""x"":82,""y"":382},{""cat"":20,""src"":13,""x"":46,""y"":26},{""cat"":6,""src"":13,""x"":40,""y"":138}]","[{""cat"":""24"",""src"":""14"",""x"":0,""y"":0},{""cat"":""20"",""src"":""6"",""x"":371,""y"":172},{""cat"":""20"",""src"":""6"",""x"":0,""y"":0},{""cat"":""6"",""src"":""6"",""x"":0,""y"":0},{""cat"":""20"",""src"":""13"",""x"":0,""y"":0},{""cat"":""6"",""src"":""17"",""x"":60,""y"":78},{""cat"":""6"",""src"":""17"",""x"":527,""y"":330},{""cat"":""20"",""src"":""7"",""x"":0,""y"":0},{""cat"":""24"",""src"":""8"",""x"":0,""y"":0},{""cat"":""6"",""src"":""13"",""x"":0,""y"":0},{""cat"":""6"",""src"":""17"",""x"":0,""y"":0},{""cat"":""24"",""src"":""4"",""x"":0,""y"":0}]","[{""cat"":24,""src"":14,""loc"":1},{""cat"":20,""src"":6,""loc"":2},{""cat"":6,""src"":6,""loc"":0},{""cat"":20,""src"":13,""loc"":6},{""cat"":20,""src"":7,""loc"":7},{""cat"":24,""src"":8,""loc"":5},{""cat"":6,""src"":13,""loc"":3},{""cat"":6,""src"":17,""loc"":8},{""cat"":24,""src"":4,""loc"":4}]","7","6,24,20,6,24,24,20,20,6,6,14,6,13,4,8,13,7,17,0,1,2,3,4,5,6,7,8,2,0,1,6,8,5,3,4,7",NA
"615","sort_feedback","69","html-keyboard-response","229","1589178","0.0-5.0-39.0","2","2020-1-7 7:19:46","ZEBRA",NA,NA,NA,NA,NA,NA,NA,NA,NA,NA,NA,NA,NA,NA
"19943","setup4",NA,"animation","230","1609122","0.0-5.0-40.0","2","2020-1-7 7:19:46","ZEBRA",NA,NA,"[{""cat"":8,""src"":7,""loc"":7},{""cat"":8,""src"":13,""loc"":5},{""cat"":8,""src"":6,""loc"":1},{""cat"":23,""src"":18,""loc"":8},{""cat"":23,""src"":4,""loc"":0},{""cat"":23,""src"":2,""loc"":4},{""cat"":26,""src"":12,""loc"":3},{""cat"":26,""src"":0,""loc"":2},{""cat"":26,""src"":10,""loc"":6}]","4","1104,1104,1104,1104,1103,1107,1105,1105,1104,10003",NA,NA,NA,NA,NA,NA,NA,NA,NA
"699","flanker_instructions","75","html-keyboard-response","231","1609825","0.0-5.0-41.0","2","2020-1-7 7:19:46","ZEBRA",NA,NA,NA,NA,NA,NA,NA,NA,NA,NA,NA,NA,NA,NA
NA,"flanker_test",NA,"image-keyboard-response","232","1611734","0.0-5.0-42.0-0.0","2","2020-1-7 7:19:46","ZEBRA",NA,NA,NA,NA,NA,"congruent","left","FALSE",NA,NA,NA,NA,NA,NA
NA,"flanker_test",NA,"image-keyboard-response","233","1613569","0.0-5.0-42.0-0.1","2","2020-1-7 7:19:46","ZEBRA",NA,NA,NA,NA,NA,"congruent","right","FALSE",NA,NA,NA,NA,NA,NA
NA,"flanker_test",NA,"image-keyboard-response","234","1615029","0.0-5.0-42.0-0.2","2","2020-1-7 7:19:46","ZEBRA",NA,NA,NA,NA,NA,"incongruent","left","FALSE",NA,NA,NA,NA,NA,NA
NA,"flanker_test",NA,"image-keyboard-response","235","1617104","0.0-5.0-42.0-0.3","2","2020-1-7 7:19:46","ZEBRA",NA,NA,NA,NA,NA,"incongruent","right","FALSE",NA,NA,NA,NA,NA,NA
"20153","sort_trial",NA,"free-sort","236","1637672","0.0-5.0-43.0","2","2020-1-7 7:19:46","ZEBRA",NA,NA,NA,NA,NA,NA,NA,NA,"[{""cat"":8,""src"":7,""x"":69,""y"":480},{""cat"":8,""src"":13,""x"":29,""y"":121},{""cat"":8,""src"":6,""x"":38,""y"":445},{""cat"":23,""src"":18,""x"":31,""y"":80},{""cat"":23,""src"":4,""x"":2,""y"":182},{""cat"":23,""src"":2,""x"":28,""y"":260},{""cat"":26,""src"":12,""x"":26,""y"":23},{""cat"":26,""src"":0,""x"":14,""y"":373},{""cat"":26,""src"":10,""x"":35,""y"":320}]","[{""cat"":""23"",""src"":""4"",""x"":0,""y"":0},{""cat"":""8"",""src"":""6"",""x"":0,""y"":0},{""cat"":""26"",""src"":""0"",""x"":0,""y"":0},{""cat"":""8"",""src"":""7"",""x"":0,""y"":0},{""cat"":""23"",""src"":""18"",""x"":0,""y"":0},{""cat"":""8"",""src"":""13"",""x"":0,""y"":0},{""cat"":""23"",""src"":""2"",""x"":0,""y"":0},{""cat"":""26"",""src"":""12"",""x"":0,""y"":0},{""cat"":""26"",""src"":""10"",""x"":0,""y"":0}]","[{""cat"":23,""src"":4,""loc"":0},{""cat"":8,""src"":6,""loc"":1},{""cat"":26,""src"":0,""loc"":2},{""cat"":8,""src"":7,""loc"":7},{""cat"":23,""src"":18,""loc"":8},{""cat"":8,""src"":13,""loc"":5},{""cat"":23,""src"":2,""loc"":4},{""cat"":26,""src"":12,""loc"":6},{""cat"":26,""src"":10,""loc"":3}]","7","23,8,26,26,23,8,26,8,23,4,6,0,10,2,13,12,7,18,0,1,2,3,4,5,6,7,8,0,1,2,8,6,5,7,3,4",NA
"652","sort_feedback","69","html-keyboard-response","237","1638326","0.0-5.0-44.0","2","2020-1-7 7:19:46","ZEBRA",NA,NA,NA,NA,NA,NA,NA,NA,NA,NA,NA,NA,NA,NA
"19941","setup2",NA,"animation","238","1658268","0.0-5.0-45.0","2","2020-1-7 7:19:46","ZEBRA",NA,NA,"[{""cat"":10,""src"":7,""loc"":7},{""cat"":32,""src"":4,""loc"":8},{""cat"":5,""src"":1,""loc"":6},{""cat"":10,""src"":5,""loc"":4},{""cat"":5,""src"":16,""loc"":5},{""cat"":32,""src"":16,""loc"":3},{""cat"":32,""src"":7,""loc"":1},{""cat"":10,""src"":14,""loc"":2},{""cat"":5,""src"":14,""loc"":0}]","2","1104,1104,1104,1104,1104,1104,1103,1104,1104,10006",NA,NA,NA,NA,NA,NA,NA,NA,NA
"1208","flanker_instructions","68","html-keyboard-response","239","1659479","0.0-5.0-46.0","2","2020-1-7 7:19:46","ZEBRA",NA,NA,NA,NA,NA,NA,NA,NA,NA,NA,NA,NA,NA,NA
NA,"flanker_test",NA,"image-keyboard-response","240","1661396","0.0-5.0-47.0-0.0","2","2020-1-7 7:19:46","ZEBRA",NA,NA,NA,NA,NA,"incongruent","right","FALSE",NA,NA,NA,NA,NA,NA
NA,"flanker_test",NA,"image-keyboard-response","241","1662855","0.0-5.0-47.0-0.1","2","2020-1-7 7:19:46","ZEBRA",NA,NA,NA,NA,NA,"incongruent","left","FALSE",NA,NA,NA,NA,NA,NA
NA,"flanker_test",NA,"image-keyboard-response","242","1664954","0.0-5.0-47.0-0.2","2","2020-1-7 7:19:46","ZEBRA",NA,NA,NA,NA,NA,"congruent","right","FALSE",NA,NA,NA,NA,NA,NA
NA,"flanker_test",NA,"image-keyboard-response","243","1666618","0.0-5.0-47.0-0.3","2","2020-1-7 7:19:46","ZEBRA",NA,NA,NA,NA,NA,"congruent","left","FALSE",NA,NA,NA,NA,NA,NA
"15269","sort_trial",NA,"free-sort","244","1682753","0.0-5.0-48.0","2","2020-1-7 7:19:46","ZEBRA",NA,NA,NA,NA,NA,NA,NA,NA,"[{""cat"":10,""src"":7,""x"":37,""y"":501},{""cat"":32,""src"":4,""x"":19,""y"":138},{""cat"":5,""src"":1,""x"":71,""y"":366},{""cat"":10,""src"":5,""x"":57,""y"":327},{""cat"":5,""src"":16,""x"":11,""y"":189},{""cat"":32,""src"":16,""x"":82,""y"":89},{""cat"":32,""src"":7,""x"":73,""y"":447},{""cat"":10,""src"":14,""x"":27,""y"":18},{""cat"":5,""src"":14,""x"":69,""y"":248}]","[{""cat"":""32"",""src"":""7"",""x"":0,""y"":0},{""cat"":""5"",""src"":""1"",""x"":0,""y"":0},{""cat"":""10"",""src"":""7"",""x"":0,""y"":0},{""cat"":""32"",""src"":""4"",""x"":0,""y"":0},{""cat"":""5"",""src"":""16"",""x"":0,""y"":0},{""cat"":""32"",""src"":""16"",""x"":0,""y"":0},{""cat"":""10"",""src"":""5"",""x"":0,""y"":0},{""cat"":""5"",""src"":""14"",""x"":0,""y"":0},{""cat"":""10"",""src"":""14"",""x"":0,""y"":0}]","[{""cat"":32,""src"":7,""loc"":1},{""cat"":5,""src"":1,""loc"":6},{""cat"":10,""src"":7,""loc"":7},{""cat"":32,""src"":4,""loc"":8},{""cat"":5,""src"":16,""loc"":5},{""cat"":32,""src"":16,""loc"":3},{""cat"":10,""src"":5,""loc"":4},{""cat"":5,""src"":14,""loc"":2},{""cat"":10,""src"":14,""loc"":0}]","7","10,32,5,32,10,5,5,10,32,14,7,14,16,5,16,1,7,4,0,1,2,3,4,5,6,7,8,8,0,7,5,6,4,1,2,3",NA
"532","sort_feedback","69","html-keyboard-response","245","1683286","0.0-5.0-49.0","2","2020-1-7 7:19:46","ZEBRA",NA,NA,NA,NA,NA,NA,NA,NA,NA,NA,NA,NA,NA,NA
"1426","demographics",NA,"html-button-response","246","1684713","0.0-6.0-0.0","2","2020-1-7 7:19:46","ZEBRA","0",NA,NA,NA,NA,NA,NA,NA,NA,NA,NA,NA,NA,NA
"6607","workerID",NA,"survey-text","247","1691321","0.0-6.0-1.0","2","2020-1-7 7:19:46","ZEBRA",NA,NA,NA,NA,NA,NA,NA,NA,NA,NA,NA,NA,NA,"{""Q0"":""A3AGQ2G8QI59EG""}"
"2722","attn_check",NA,"survey-multi-choice","248","1694050","0.0-6.0-2.0","2","2020-1-7 7:19:46","ZEBRA",NA,NA,NA,NA,NA,NA,NA,NA,NA,NA,NA,NA,NA,"{""Q0"":""ZEBRA""}"
"3424","age",NA,"survey-text","249","1697498","0.0-6.0-3.0","2","2020-1-7 7:19:46","ZEBRA",NA,NA,NA,NA,NA,NA,NA,NA,NA,NA,NA,NA,NA,"{""Q0"":""23""}"
"1260","gender",NA,"survey-multi-choice","250","1698761","0.0-6.0-4.0","2","2020-1-7 7:19:46","ZEBRA",NA,NA,NA,NA,NA,NA,NA,NA,NA,NA,NA,NA,NA,"{""Q0"":""Female""}"
"1768","ethnic",NA,"survey-multi-choice","251","1700545","0.0-6.0-5.0","2","2020-1-7 7:19:46","ZEBRA",NA,NA,NA,NA,NA,NA,NA,NA,NA,NA,NA,NA,NA,"{""Q0"":""Hispanic or Latino""}"
"1456","race",NA,"survey-multi-select","252","1702017","0.0-6.0-6.0","2","2020-1-7 7:19:46","ZEBRA",NA,NA,NA,NA,NA,NA,NA,NA,NA,NA,NA,NA,NA,"{""Q0"":[""White""]}"
"1937","english",NA,"survey-multi-choice","253","1703969","0.0-6.0-7.0","2","2020-1-7 7:19:46","ZEBRA",NA,NA,NA,NA,NA,NA,NA,NA,NA,NA,NA,NA,NA,"{""Q0"":""Yes""}"
"2400","understand",NA,"survey-multi-choice","254","1706385","0.0-6.0-8.0","2","2020-1-7 7:19:46","ZEBRA",NA,NA,NA,NA,NA,NA,NA,NA,NA,NA,NA,NA,NA,"{""Q0"":""No""}"
"14520","strategies",NA,"survey-text","255","1720920","0.0-6.0-9.0","2","2020-1-7 7:19:46","ZEBRA",NA,NA,NA,NA,NA,NA,NA,NA,NA,NA,NA,NA,NA,"{""Q0"":""i thought about a story and remembered the words per room""}"
"1511","comments",NA,"survey-text","256","1722432","0.0-6.0-10.0","2","2020-1-7 7:19:46","ZEBRA",NA,NA,NA,NA,NA,NA,NA,NA,NA,NA,NA,NA,NA,"{""Q0"":""na""}"
"1871","study_end",NA,"html-button-response","257","1724304","0.0-7.0","2","2020-1-7 7:19:46","ZEBRA","0",NA,NA,NA,NA,NA,NA,NA,NA,NA,NA,NA,NA,NA
