"rt","stimulus","key_press","trial_type","trial_index","time_elapsed","internal_node_id","session","startTime","attn_word","button_pressed","view_history","animation_sequence","condition","time_sequence","stim_type","direction","correct","init_locations","moves","final_locations","sort_correct","finalLocations","responses"
"3859","welcome","13","html-keyboard-response","0","3864","0.0-0.0","2","2020-1-7 9:52:20","OTTER",NA,NA,NA,NA,NA,NA,NA,NA,NA,NA,NA,NA,NA,NA
"6282","consent",NA,"html-button-response","1","10148","0.0-1.0","2","2020-1-7 9:52:20","OTTER","0",NA,NA,NA,NA,NA,NA,NA,NA,NA,NA,NA,NA,NA
"64442","instructions",NA,"instructions","2","74590","0.0-2.0","2","2020-1-7 9:52:20","OTTER",NA,"[{""page_index"":0,""viewing_time"":6797},{""page_index"":1,""viewing_time"":9452},{""page_index"":2,""viewing_time"":15710},{""page_index"":3,""viewing_time"":12696},{""page_index"":4,""viewing_time"":11193},{""page_index"":5,""viewing_time"":8593}]",NA,NA,NA,NA,NA,NA,NA,NA,NA,NA,NA,NA
"2541","finalInstructions",NA,"html-button-response","3","77132","0.0-3.0-0.0","2","2020-1-7 9:52:20","OTTER","0",NA,NA,NA,NA,NA,NA,NA,NA,NA,NA,NA,NA,NA
"19914","setup5",NA,"animation","4","97047","0.0-3.0-1.0","2","2020-1-7 9:52:20","OTTER",NA,NA,"[{""cat"":33,""src"":13,""loc"":2},{""cat"":7,""src"":18,""loc"":3},{""cat"":13,""src"":17,""loc"":6},{""cat"":7,""src"":15,""loc"":7},{""cat"":13,""src"":2,""loc"":0},{""cat"":33,""src"":16,""loc"":4},{""cat"":7,""src"":12,""loc"":1},{""cat"":33,""src"":19,""loc"":8},{""cat"":13,""src"":19,""loc"":5}]","5","1102,1102,1101,1102,1102,1101,1101,1100,1101,10002",NA,NA,NA,NA,NA,NA,NA,NA,NA
"4440","flanker_instructions","39","html-keyboard-response","5","101488","0.0-3.0-2.0","2","2020-1-7 9:52:20","OTTER",NA,NA,NA,NA,NA,NA,NA,NA,NA,NA,NA,NA,NA,NA
NA,"flanker_test",NA,"image-keyboard-response","6","103391","0.0-3.0-3.0-0.0","2","2020-1-7 9:52:20","OTTER",NA,NA,NA,NA,NA,"congruent","left","FALSE",NA,NA,NA,NA,NA,NA
"173","flanker_test","37","image-keyboard-response","7","103888","0.0-3.0-3.0-0.1","2","2020-1-7 9:52:20","OTTER",NA,NA,NA,NA,NA,"incongruent","left","TRUE",NA,NA,NA,NA,NA,NA
"555","flanker_test","39","image-keyboard-response","8","105136","0.0-3.0-3.0-0.2","2","2020-1-7 9:52:20","OTTER",NA,NA,NA,NA,NA,"incongruent","right","TRUE",NA,NA,NA,NA,NA,NA
"609","flanker_test","39","image-keyboard-response","9","106937","0.0-3.0-3.0-0.3","2","2020-1-7 9:52:20","OTTER",NA,NA,NA,NA,NA,"congruent","right","TRUE",NA,NA,NA,NA,NA,NA
"32551","sort_trial",NA,"free-sort","10","140373","0.0-3.0-4.0","2","2020-1-7 9:52:20","OTTER",NA,NA,NA,NA,NA,NA,NA,NA,"[{""cat"":33,""src"":13,""x"":41,""y"":180},{""cat"":7,""src"":18,""x"":62,""y"":19},{""cat"":13,""src"":17,""x"":73,""y"":326},{""cat"":7,""src"":15,""x"":26,""y"":134},{""cat"":13,""src"":2,""x"":56,""y"":446},{""cat"":33,""src"":16,""x"":6,""y"":491},{""cat"":7,""src"":12,""x"":22,""y"":83},{""cat"":33,""src"":19,""x"":46,""y"":260},{""cat"":13,""src"":19,""x"":52,""y"":361}]","[{""cat"":""7"",""src"":""12"",""x"":0,""y"":0},{""cat"":""33"",""src"":""13"",""x"":0,""y"":0},{""cat"":""13"",""src"":""2"",""x"":0,""y"":0},{""cat"":""7"",""src"":""15"",""x"":0,""y"":0},{""cat"":""33"",""src"":""19"",""x"":0,""y"":0},{""cat"":""13"",""src"":""17"",""x"":0,""y"":0},{""cat"":""33"",""src"":""16"",""x"":0,""y"":0},{""cat"":""7"",""src"":""18"",""x"":0,""y"":0},{""cat"":""13"",""src"":""19"",""x"":0,""y"":0}]","[{""cat"":7,""src"":12,""loc"":1},{""cat"":33,""src"":13,""loc"":2},{""cat"":13,""src"":2,""loc"":0},{""cat"":7,""src"":15,""loc"":7},{""cat"":33,""src"":19,""loc"":6},{""cat"":13,""src"":17,""loc"":8},{""cat"":33,""src"":16,""loc"":3},{""cat"":7,""src"":18,""loc"":4},{""cat"":13,""src"":19,""loc"":5}]","5","13,7,33,33,7,13,33,7,13,2,12,13,16,18,19,19,15,17,0,1,2,3,4,5,6,7,8,2,0,1,6,7,8,4,3,5",NA
"2216","sort_feedback","13","html-keyboard-response","11","142591","0.0-3.0-5.0","2","2020-1-7 9:52:20","OTTER",NA,NA,NA,NA,NA,NA,NA,NA,NA,NA,NA,NA,NA,NA
"19914","setup1",NA,"animation","12","162506","0.0-3.0-6.0","2","2020-1-7 9:52:20","OTTER",NA,NA,"[{""cat"":10,""src"":16,""loc"":7},{""cat"":10,""src"":18,""loc"":8},{""cat"":10,""src"":0,""loc"":6},{""cat"":3,""src"":4,""loc"":0},{""cat"":3,""src"":17,""loc"":2},{""cat"":3,""src"":2,""loc"":1},{""cat"":30,""src"":3,""loc"":5},{""cat"":30,""src"":14,""loc"":3},{""cat"":30,""src"":9,""loc"":4}]","1","1101,1102,1100,1103,1101,1101,1101,1102,1102,10001",NA,NA,NA,NA,NA,NA,NA,NA,NA
"1733","flanker_instructions","39","html-keyboard-response","13","164239","0.0-3.0-7.0","2","2020-1-7 9:52:20","OTTER",NA,NA,NA,NA,NA,NA,NA,NA,NA,NA,NA,NA,NA,NA
"509","flanker_test","39","image-keyboard-response","14","165751","0.0-3.0-8.0-0.0","2","2020-1-7 9:52:20","OTTER",NA,NA,NA,NA,NA,"incongruent","left","FALSE",NA,NA,NA,NA,NA,NA
"428","flanker_test","37","image-keyboard-response","15","167055","0.0-3.0-8.0-0.1","2","2020-1-7 9:52:20","OTTER",NA,NA,NA,NA,NA,"congruent","left","TRUE",NA,NA,NA,NA,NA,NA
"585","flanker_test","39","image-keyboard-response","16","168175","0.0-3.0-8.0-0.2","2","2020-1-7 9:52:20","OTTER",NA,NA,NA,NA,NA,"congruent","right","TRUE",NA,NA,NA,NA,NA,NA
"716","flanker_test","39","image-keyboard-response","17","169710","0.0-3.0-8.0-0.3","2","2020-1-7 9:52:20","OTTER",NA,NA,NA,NA,NA,"incongruent","right","TRUE",NA,NA,NA,NA,NA,NA
"30227","sort_trial",NA,"free-sort","18","200496","0.0-3.0-9.0","2","2020-1-7 9:52:20","OTTER",NA,NA,NA,NA,NA,NA,NA,NA,"[{""cat"":10,""src"":16,""x"":5,""y"":304},{""cat"":10,""src"":18,""x"":48,""y"":243},{""cat"":10,""src"":0,""x"":81,""y"":88},{""cat"":3,""src"":4,""x"":37,""y"":507},{""cat"":3,""src"":17,""x"":7,""y"":143},{""cat"":3,""src"":2,""x"":42,""y"":22},{""cat"":30,""src"":3,""x"":37,""y"":205},{""cat"":30,""src"":14,""x"":14,""y"":361},{""cat"":30,""src"":9,""x"":71,""y"":444}]","[{""cat"":""30"",""src"":""3"",""x"":0,""y"":0},{""cat"":""30"",""src"":""9"",""x"":0,""y"":0},{""cat"":""30"",""src"":""14"",""x"":0,""y"":0},{""cat"":""3"",""src"":""2"",""x"":0,""y"":0},{""cat"":""10"",""src"":""0"",""x"":0,""y"":0},{""cat"":""3"",""src"":""17"",""x"":0,""y"":0},{""cat"":""3"",""src"":""4"",""x"":0,""y"":0},{""cat"":""10"",""src"":""16"",""x"":0,""y"":0},{""cat"":""10"",""src"":""18"",""x"":0,""y"":0}]","[{""cat"":30,""src"":3,""loc"":5},{""cat"":30,""src"":9,""loc"":4},{""cat"":30,""src"":14,""loc"":3},{""cat"":3,""src"":2,""loc"":1},{""cat"":10,""src"":0,""loc"":0},{""cat"":3,""src"":17,""loc"":2},{""cat"":3,""src"":4,""loc"":6},{""cat"":10,""src"":16,""loc"":7},{""cat"":10,""src"":18,""loc"":8}]","7","10,3,3,30,30,30,3,10,10,0,2,17,14,9,3,4,16,18,0,1,2,3,4,5,6,7,8,4,3,5,2,1,0,6,7,8",NA
"2768","sort_feedback","13","html-keyboard-response","19","203265","0.0-3.0-10.0","2","2020-1-7 9:52:20","OTTER",NA,NA,NA,NA,NA,NA,NA,NA,NA,NA,NA,NA,NA,NA
"19913","setup3",NA,"animation","20","223178","0.0-3.0-11.0","2","2020-1-7 9:52:20","OTTER",NA,NA,"[{""cat"":9,""src"":19,""loc"":4},{""cat"":11,""src"":8,""loc"":8},{""cat"":12,""src"":18,""loc"":0},{""cat"":9,""src"":8,""loc"":3},{""cat"":11,""src"":16,""loc"":7},{""cat"":12,""src"":1,""loc"":2},{""cat"":9,""src"":13,""loc"":5},{""cat"":11,""src"":7,""loc"":6},{""cat"":12,""src"":13,""loc"":1}]","3","1102,1102,1101,1101,1101,1102,1100,1101,1102,10001",NA,NA,NA,NA,NA,NA,NA,NA,NA
"3493","flanker_instructions","39","html-keyboard-response","21","226672","0.0-3.0-12.0","2","2020-1-7 9:52:20","OTTER",NA,NA,NA,NA,NA,NA,NA,NA,NA,NA,NA,NA,NA,NA
"430","flanker_test","39","image-keyboard-response","22","228104","0.0-3.0-13.0-0.0","2","2020-1-7 9:52:20","OTTER",NA,NA,NA,NA,NA,"congruent","right","TRUE",NA,NA,NA,NA,NA,NA
NA,"flanker_test",NA,"image-keyboard-response","23","229639","0.0-3.0-13.0-0.1","2","2020-1-7 9:52:20","OTTER",NA,NA,NA,NA,NA,"congruent","left","FALSE",NA,NA,NA,NA,NA,NA
"618","flanker_test","37","image-keyboard-response","24","231408","0.0-3.0-13.0-0.2","2","2020-1-7 9:52:20","OTTER",NA,NA,NA,NA,NA,"incongruent","left","TRUE",NA,NA,NA,NA,NA,NA
"776","flanker_test","39","image-keyboard-response","25","233000","0.0-3.0-13.0-0.3","2","2020-1-7 9:52:20","OTTER",NA,NA,NA,NA,NA,"incongruent","right","TRUE",NA,NA,NA,NA,NA,NA
"40736","sort_trial",NA,"free-sort","26","274118","0.0-3.0-14.0","2","2020-1-7 9:52:20","OTTER",NA,NA,NA,NA,NA,NA,NA,NA,"[{""cat"":9,""src"":19,""x"":8,""y"":145},{""cat"":11,""src"":8,""x"":54,""y"":430},{""cat"":12,""src"":18,""x"":78,""y"":307},{""cat"":9,""src"":8,""x"":37,""y"":388},{""cat"":11,""src"":16,""x"":46,""y"":26},{""cat"":12,""src"":1,""x"":59,""y"":264},{""cat"":9,""src"":13,""x"":64,""y"":502},{""cat"":11,""src"":7,""x"":0,""y"":198},{""cat"":12,""src"":13,""x"":29,""y"":80}]","[{""cat"":""12"",""src"":""18"",""x"":0,""y"":0},{""cat"":""12"",""src"":""13"",""x"":0,""y"":0},{""cat"":""12"",""src"":""1"",""x"":0,""y"":0},{""cat"":""11"",""src"":""7"",""x"":0,""y"":0},{""cat"":""9"",""src"":""8"",""x"":37,""y"":392},{""cat"":""9"",""src"":""8"",""x"":400,""y"":279},{""cat"":""9"",""src"":""8"",""x"":0,""y"":0},{""cat"":""11"",""src"":""8"",""x"":0,""y"":0},{""cat"":""9"",""src"":""13"",""x"":0,""y"":0},{""cat"":""9"",""src"":""19"",""x"":0,""y"":0},{""cat"":""11"",""src"":""16"",""x"":0,""y"":0}]","[{""cat"":12,""src"":18,""loc"":0},{""cat"":12,""src"":13,""loc"":1},{""cat"":12,""src"":1,""loc"":2},{""cat"":11,""src"":7,""loc"":7},{""cat"":9,""src"":8,""loc"":6},{""cat"":11,""src"":8,""loc"":8},{""cat"":9,""src"":13,""loc"":5},{""cat"":9,""src"":19,""loc"":4},{""cat"":11,""src"":16,""loc"":3}]","6","12,12,12,11,9,9,9,11,11,18,13,1,16,19,13,8,7,8,0,1,2,3,4,5,6,7,8,0,1,2,8,7,6,4,3,5",NA
"1777","sort_feedback","13","html-keyboard-response","27","275896","0.0-3.0-15.0","2","2020-1-7 9:52:20","OTTER",NA,NA,NA,NA,NA,NA,NA,NA,NA,NA,NA,NA,NA,NA
"19914","setup2",NA,"animation","28","295811","0.0-3.0-16.0","2","2020-1-7 9:52:20","OTTER",NA,NA,"[{""cat"":18,""src"":8,""loc"":3},{""cat"":17,""src"":8,""loc"":5},{""cat"":20,""src"":1,""loc"":4},{""cat"":20,""src"":0,""loc"":1},{""cat"":17,""src"":3,""loc"":2},{""cat"":18,""src"":15,""loc"":0},{""cat"":18,""src"":6,""loc"":6},{""cat"":17,""src"":4,""loc"":7},{""cat"":20,""src"":8,""loc"":8}]","2","1102,1102,1101,1101,1102,1101,1101,1101,1103,10000",NA,NA,NA,NA,NA,NA,NA,NA,NA
"1924","flanker_instructions","39","html-keyboard-response","29","297736","0.0-3.0-17.0","2","2020-1-7 9:52:20","OTTER",NA,NA,NA,NA,NA,NA,NA,NA,NA,NA,NA,NA,NA,NA
"821","flanker_test","39","image-keyboard-response","30","299560","0.0-3.0-18.0-0.0","2","2020-1-7 9:52:20","OTTER",NA,NA,NA,NA,NA,"incongruent","right","TRUE",NA,NA,NA,NA,NA,NA
"766","flanker_test","37","image-keyboard-response","31","300768","0.0-3.0-18.0-0.1","2","2020-1-7 9:52:20","OTTER",NA,NA,NA,NA,NA,"incongruent","left","TRUE",NA,NA,NA,NA,NA,NA
"505","flanker_test","39","image-keyboard-response","32","301992","0.0-3.0-18.0-0.2","2","2020-1-7 9:52:20","OTTER",NA,NA,NA,NA,NA,"congruent","right","TRUE",NA,NA,NA,NA,NA,NA
"601","flanker_test","37","image-keyboard-response","33","302976","0.0-3.0-18.0-0.3","2","2020-1-7 9:52:20","OTTER",NA,NA,NA,NA,NA,"congruent","left","TRUE",NA,NA,NA,NA,NA,NA
"44268","sort_trial",NA,"free-sort","34","347868","0.0-3.0-19.0","2","2020-1-7 9:52:20","OTTER",NA,NA,NA,NA,NA,NA,NA,NA,"[{""cat"":18,""src"":8,""x"":30,""y"":25},{""cat"":17,""src"":8,""x"":49,""y"":65},{""cat"":20,""src"":1,""x"":0,""y"":254},{""cat"":20,""src"":0,""x"":38,""y"":422},{""cat"":17,""src"":3,""x"":37,""y"":148},{""cat"":18,""src"":15,""x"":68,""y"":314},{""cat"":18,""src"":6,""x"":73,""y"":375},{""cat"":17,""src"":4,""x"":12,""y"":203},{""cat"":20,""src"":8,""x"":67,""y"":505}]","[{""cat"":""20"",""src"":""1"",""x"":0,""y"":0},{""cat"":""20"",""src"":""0"",""x"":0,""y"":0},{""cat"":""17"",""src"":""3"",""x"":0,""y"":0},{""cat"":""18"",""src"":""6"",""x"":0,""y"":0},{""cat"":""20"",""src"":""8"",""x"":0,""y"":0},{""cat"":""17"",""src"":""4"",""x"":0,""y"":0},{""cat"":""18"",""src"":""15"",""x"":0,""y"":0},{""cat"":""18"",""src"":""8"",""x"":0,""y"":0},{""cat"":""17"",""src"":""8"",""x"":0,""y"":0}]","[{""cat"":20,""src"":1,""loc"":0},{""cat"":20,""src"":0,""loc"":1},{""cat"":17,""src"":3,""loc"":2},{""cat"":18,""src"":6,""loc"":7},{""cat"":20,""src"":8,""loc"":8},{""cat"":17,""src"":4,""loc"":6},{""cat"":18,""src"":15,""loc"":4},{""cat"":18,""src"":8,""loc"":3},{""cat"":17,""src"":8,""loc"":5}]","5","20,20,17,18,18,17,17,18,20,1,0,3,8,15,8,4,6,8,0,1,2,3,4,5,6,7,8,0,1,2,7,6,8,5,3,4",NA
"3050","sort_feedback","13","html-keyboard-response","35","350920","0.0-3.0-20.0","2","2020-1-7 9:52:20","OTTER",NA,NA,NA,NA,NA,NA,NA,NA,NA,NA,NA,NA,NA,NA
"19912","setup4",NA,"animation","36","370832","0.0-3.0-21.0","2","2020-1-7 9:52:20","OTTER",NA,NA,"[{""cat"":29,""src"":0,""loc"":8},{""cat"":29,""src"":3,""loc"":5},{""cat"":29,""src"":11,""loc"":1},{""cat"":8,""src"":12,""loc"":0},{""cat"":8,""src"":1,""loc"":4},{""cat"":8,""src"":7,""loc"":6},{""cat"":12,""src"":11,""loc"":2},{""cat"":12,""src"":10,""loc"":3},{""cat"":12,""src"":1,""loc"":7}]","4","1101,1101,1101,1101,1101,1101,1102,1102,1101,10001",NA,NA,NA,NA,NA,NA,NA,NA,NA
"1743","flanker_instructions","39","html-keyboard-response","37","372576","0.0-3.0-22.0","2","2020-1-7 9:52:20","OTTER",NA,NA,NA,NA,NA,NA,NA,NA,NA,NA,NA,NA,NA,NA
"518","flanker_test","39","image-keyboard-response","38","374096","0.0-3.0-23.0-0.0","2","2020-1-7 9:52:20","OTTER",NA,NA,NA,NA,NA,"congruent","right","TRUE",NA,NA,NA,NA,NA,NA
"589","flanker_test","39","image-keyboard-response","39","375496","0.0-3.0-23.0-0.1","2","2020-1-7 9:52:20","OTTER",NA,NA,NA,NA,NA,"incongruent","right","TRUE",NA,NA,NA,NA,NA,NA
"633","flanker_test","37","image-keyboard-response","40","377264","0.0-3.0-23.0-0.2","2","2020-1-7 9:52:20","OTTER",NA,NA,NA,NA,NA,"incongruent","left","TRUE",NA,NA,NA,NA,NA,NA
"397","flanker_test","37","image-keyboard-response","41","378456","0.0-3.0-23.0-0.3","2","2020-1-7 9:52:20","OTTER",NA,NA,NA,NA,NA,"congruent","left","TRUE",NA,NA,NA,NA,NA,NA
"29595","sort_trial",NA,"free-sort","42","409012","0.0-3.0-24.0","2","2020-1-7 9:52:20","OTTER",NA,NA,NA,NA,NA,NA,NA,NA,"[{""cat"":29,""src"":0,""x"":20,""y"":88},{""cat"":29,""src"":3,""x"":30,""y"":322},{""cat"":29,""src"":11,""x"":51,""y"":16},{""cat"":8,""src"":12,""x"":69,""y"":437},{""cat"":8,""src"":1,""x"":34,""y"":181},{""cat"":8,""src"":7,""x"":57,""y"":382},{""cat"":12,""src"":11,""x"":17,""y"":505},{""cat"":12,""src"":10,""x"":52,""y"":250},{""cat"":12,""src"":1,""x"":69,""y"":130}]","[{""cat"":""12"",""src"":""11"",""x"":0,""y"":0},{""cat"":""8"",""src"":""12"",""x"":0,""y"":0},{""cat"":""29"",""src"":""11"",""x"":0,""y"":0},{""cat"":""29"",""src"":""0"",""x"":0,""y"":0},{""cat"":""8"",""src"":""7"",""x"":0,""y"":0},{""cat"":""12"",""src"":""1"",""x"":0,""y"":0},{""cat"":""8"",""src"":""1"",""x"":0,""y"":0},{""cat"":""12"",""src"":""10"",""x"":0,""y"":0},{""cat"":""29"",""src"":""3"",""x"":0,""y"":0}]","[{""cat"":12,""src"":11,""loc"":2},{""cat"":8,""src"":12,""loc"":0},{""cat"":29,""src"":11,""loc"":1},{""cat"":29,""src"":0,""loc"":8},{""cat"":8,""src"":7,""loc"":7},{""cat"":12,""src"":1,""loc"":6},{""cat"":8,""src"":1,""loc"":4},{""cat"":12,""src"":10,""loc"":3},{""cat"":29,""src"":3,""loc"":5}]","7","8,29,12,12,8,29,12,8,29,12,11,11,10,1,3,1,7,0,0,1,2,3,4,5,6,7,8,1,2,0,7,6,8,5,4,3",NA
"1931","sort_feedback","32","html-keyboard-response","43","410944","0.0-3.0-25.0","2","2020-1-7 9:52:20","OTTER",NA,NA,NA,NA,NA,NA,NA,NA,NA,NA,NA,NA,NA,NA
"19916","setup5",NA,"animation","44","430860","0.0-3.0-26.0","2","2020-1-7 9:52:20","OTTER",NA,NA,"[{""cat"":27,""src"":13,""loc"":1},{""cat"":2,""src"":5,""loc"":8},{""cat"":7,""src"":16,""loc"":5},{""cat"":2,""src"":14,""loc"":4},{""cat"":7,""src"":19,""loc"":2},{""cat"":27,""src"":19,""loc"":6},{""cat"":2,""src"":1,""loc"":0},{""cat"":27,""src"":16,""loc"":3},{""cat"":7,""src"":10,""loc"":7}]","5","1103,1102,1101,1101,1100,1102,1102,1102,1102,10001",NA,NA,NA,NA,NA,NA,NA,NA,NA
"3219","flanker_instructions","39","html-keyboard-response","45","434080","0.0-3.0-27.0","2","2020-1-7 9:52:20","OTTER",NA,NA,NA,NA,NA,NA,NA,NA,NA,NA,NA,NA,NA,NA
NA,"flanker_test",NA,"image-keyboard-response","46","435983","0.0-3.0-28.0-0.0","2","2020-1-7 9:52:20","OTTER",NA,NA,NA,NA,NA,"incongruent","right","FALSE",NA,NA,NA,NA,NA,NA
"414","flanker_test","39","image-keyboard-response","47","437096","0.0-3.0-28.0-0.1","2","2020-1-7 9:52:20","OTTER",NA,NA,NA,NA,NA,"congruent","right","TRUE",NA,NA,NA,NA,NA,NA
"569","flanker_test","37","image-keyboard-response","48","438328","0.0-3.0-28.0-0.2","2","2020-1-7 9:52:20","OTTER",NA,NA,NA,NA,NA,"congruent","left","TRUE",NA,NA,NA,NA,NA,NA
"695","flanker_test","37","image-keyboard-response","49","439984","0.0-3.0-28.0-0.3","2","2020-1-7 9:52:20","OTTER",NA,NA,NA,NA,NA,"incongruent","left","TRUE",NA,NA,NA,NA,NA,NA
"38559","sort_trial",NA,"free-sort","50","479012","0.0-3.0-29.0","2","2020-1-7 9:52:20","OTTER",NA,NA,NA,NA,NA,NA,NA,NA,"[{""cat"":27,""src"":13,""x"":71,""y"":14},{""cat"":2,""src"":5,""x"":6,""y"":75},{""cat"":7,""src"":16,""x"":39,""y"":421},{""cat"":2,""src"":14,""x"":45,""y"":361},{""cat"":7,""src"":19,""x"":0,""y"":208},{""cat"":27,""src"":19,""x"":43,""y"":485},{""cat"":2,""src"":1,""x"":22,""y"":308},{""cat"":27,""src"":16,""x"":12,""y"":265},{""cat"":7,""src"":10,""x"":21,""y"":146}]","[{""cat"":""27"",""src"":""13"",""x"":0,""y"":0},{""cat"":""7"",""src"":""19"",""x"":0,""y"":0},{""cat"":""27"",""src"":""19"",""x"":0,""y"":0},{""cat"":""7"",""src"":""10"",""x"":0,""y"":0},{""cat"":""2"",""src"":""5"",""x"":0,""y"":0},{""cat"":""27"",""src"":""16"",""x"":730,""y"":259},{""cat"":""27"",""src"":""16"",""x"":0,""y"":0},{""cat"":""7"",""src"":""16"",""x"":0,""y"":0},{""cat"":""2"",""src"":""14"",""x"":0,""y"":0},{""cat"":""2"",""src"":""1"",""x"":189,""y"":139},{""cat"":""2"",""src"":""1"",""x"":257,""y"":133},{""cat"":""2"",""src"":""1"",""x"":0,""y"":0}]","[{""cat"":27,""src"":13,""loc"":1},{""cat"":7,""src"":19,""loc"":2},{""cat"":27,""src"":19,""loc"":6},{""cat"":7,""src"":10,""loc"":8},{""cat"":2,""src"":5,""loc"":7},{""cat"":27,""src"":16,""loc"":3},{""cat"":7,""src"":16,""loc"":5},{""cat"":2,""src"":14,""loc"":4},{""cat"":2,""src"":1,""loc"":0}]","7","2,27,7,27,2,7,27,2,7,1,13,19,16,14,16,19,5,10,0,1,2,3,4,5,6,7,8,8,0,1,5,7,6,2,4,3",NA
"2427","sort_feedback","13","html-keyboard-response","51","481440","0.0-3.0-30.0","2","2020-1-7 9:52:20","OTTER",NA,NA,NA,NA,NA,NA,NA,NA,NA,NA,NA,NA,NA,NA
"19916","setup1",NA,"animation","52","501358","0.0-3.0-31.0","2","2020-1-7 9:52:20","OTTER",NA,NA,"[{""cat"":22,""src"":1,""loc"":2},{""cat"":22,""src"":5,""loc"":1},{""cat"":22,""src"":18,""loc"":0},{""cat"":9,""src"":8,""loc"":7},{""cat"":9,""src"":12,""loc"":8},{""cat"":9,""src"":1,""loc"":6},{""cat"":1,""src"":17,""loc"":5},{""cat"":1,""src"":7,""loc"":3},{""cat"":1,""src"":6,""loc"":4}]","1","1101,1101,1101,1102,1102,1102,1103,1102,1101,10001",NA,NA,NA,NA,NA,NA,NA,NA,NA
"1923","flanker_instructions","39","html-keyboard-response","53","503281","0.0-3.0-32.0","2","2020-1-7 9:52:20","OTTER",NA,NA,NA,NA,NA,NA,NA,NA,NA,NA,NA,NA,NA,NA
NA,"flanker_test",NA,"image-keyboard-response","54","505184","0.0-3.0-33.0-0.0","2","2020-1-7 9:52:20","OTTER",NA,NA,NA,NA,NA,"congruent","left","FALSE",NA,NA,NA,NA,NA,NA
"582","flanker_test","39","image-keyboard-response","55","506952","0.0-3.0-33.0-0.1","2","2020-1-7 9:52:20","OTTER",NA,NA,NA,NA,NA,"congruent","right","TRUE",NA,NA,NA,NA,NA,NA
"404","flanker_test","39","image-keyboard-response","56","507784","0.0-3.0-33.0-0.2","2","2020-1-7 9:52:20","OTTER",NA,NA,NA,NA,NA,"incongruent","left","FALSE",NA,NA,NA,NA,NA,NA
"616","flanker_test","39","image-keyboard-response","57","509560","0.0-3.0-33.0-0.3","2","2020-1-7 9:52:20","OTTER",NA,NA,NA,NA,NA,"incongruent","right","TRUE",NA,NA,NA,NA,NA,NA
"25510","sort_trial",NA,"free-sort","58","535542","0.0-3.0-34.0","2","2020-1-7 9:52:20","OTTER",NA,NA,NA,NA,NA,NA,NA,NA,"[{""cat"":22,""src"":1,""x"":64,""y"":8},{""cat"":22,""src"":5,""x"":74,""y"":182},{""cat"":22,""src"":18,""x"":15,""y"":73},{""cat"":9,""src"":8,""x"":70,""y"":439},{""cat"":9,""src"":12,""x"":36,""y"":263},{""cat"":9,""src"":1,""x"":63,""y"":302},{""cat"":1,""src"":17,""x"":60,""y"":370},{""cat"":1,""src"":7,""x"":2,""y"":146},{""cat"":1,""src"":6,""x"":62,""y"":501}]","[{""cat"":""22"",""src"":""5"",""x"":0,""y"":0},{""cat"":""22"",""src"":""18"",""x"":0,""y"":0},{""cat"":""22"",""src"":""1"",""x"":0,""y"":0},{""cat"":""1"",""src"":""7"",""x"":0,""y"":0},{""cat"":""1"",""src"":""17"",""x"":0,""y"":0},{""cat"":""1"",""src"":""6"",""x"":0,""y"":0},{""cat"":""9"",""src"":""1"",""x"":0,""y"":0},{""cat"":""9"",""src"":""8"",""x"":0,""y"":0},{""cat"":""9"",""src"":""12"",""x"":0,""y"":0}]","[{""cat"":22,""src"":5,""loc"":1},{""cat"":22,""src"":18,""loc"":2},{""cat"":22,""src"":1,""loc"":0},{""cat"":1,""src"":7,""loc"":3},{""cat"":1,""src"":17,""loc"":5},{""cat"":1,""src"":6,""loc"":4},{""cat"":9,""src"":1,""loc"":7},{""cat"":9,""src"":8,""loc"":6},{""cat"":9,""src"":12,""loc"":8}]","5","22,22,22,1,1,1,9,9,9,1,5,18,7,6,17,8,1,12,0,1,2,3,4,5,6,7,8,2,0,1,3,5,4,7,6,8",NA
"3945","sort_feedback","13","html-keyboard-response","59","539488","0.0-3.0-35.0","2","2020-1-7 9:52:20","OTTER",NA,NA,NA,NA,NA,NA,NA,NA,NA,NA,NA,NA,NA,NA
"19913","setup4",NA,"animation","60","559402","0.0-3.0-36.0","2","2020-1-7 9:52:20","OTTER",NA,NA,"[{""cat"":30,""src"":9,""loc"":1},{""cat"":30,""src"":18,""loc"":7},{""cat"":30,""src"":2,""loc"":3},{""cat"":27,""src"":1,""loc"":6},{""cat"":27,""src"":13,""loc"":0},{""cat"":27,""src"":5,""loc"":4},{""cat"":23,""src"":9,""loc"":5},{""cat"":23,""src"":19,""loc"":8},{""cat"":23,""src"":13,""loc"":2}]","4","1102,1101,1102,1101,1101,1101,1101,1101,1102,10001",NA,NA,NA,NA,NA,NA,NA,NA,NA
"3509","flanker_instructions","39","html-keyboard-response","61","562912","0.0-3.0-37.0","2","2020-1-7 9:52:20","OTTER",NA,NA,NA,NA,NA,NA,NA,NA,NA,NA,NA,NA,NA,NA
"685","flanker_test","39","image-keyboard-response","62","564600","0.0-3.0-38.0-0.0","2","2020-1-7 9:52:20","OTTER",NA,NA,NA,NA,NA,"incongruent","right","TRUE",NA,NA,NA,NA,NA,NA
"728","flanker_test","37","image-keyboard-response","63","566472","0.0-3.0-38.0-0.1","2","2020-1-7 9:52:20","OTTER",NA,NA,NA,NA,NA,"incongruent","left","TRUE",NA,NA,NA,NA,NA,NA
"614","flanker_test","39","image-keyboard-response","64","568224","0.0-3.0-38.0-0.2","2","2020-1-7 9:52:20","OTTER",NA,NA,NA,NA,NA,"congruent","right","TRUE",NA,NA,NA,NA,NA,NA
"519","flanker_test","37","image-keyboard-response","65","569120","0.0-3.0-38.0-0.3","2","2020-1-7 9:52:20","OTTER",NA,NA,NA,NA,NA,"congruent","left","TRUE",NA,NA,NA,NA,NA,NA
"36038","sort_trial",NA,"free-sort","66","606321","0.0-3.0-39.0","2","2020-1-7 9:52:20","OTTER",NA,NA,NA,NA,NA,NA,NA,NA,"[{""cat"":30,""src"":9,""x"":62,""y"":13},{""cat"":30,""src"":18,""x"":65,""y"":422},{""cat"":30,""src"":2,""x"":54,""y"":500},{""cat"":27,""src"":1,""x"":63,""y"":127},{""cat"":27,""src"":13,""x"":10,""y"":386},{""cat"":27,""src"":5,""x"":42,""y"":250},{""cat"":23,""src"":9,""x"":37,""y"":316},{""cat"":23,""src"":19,""x"":1,""y"":207},{""cat"":23,""src"":13,""x"":52,""y"":70}]","[{""cat"":""30"",""src"":""9"",""x"":0,""y"":0},{""cat"":""27"",""src"":""13"",""x"":0,""y"":0},{""cat"":""23"",""src"":""13"",""x"":0,""y"":0},{""cat"":""27"",""src"":""1"",""x"":0,""y"":0},{""cat"":""30"",""src"":""18"",""x"":220,""y"":377},{""cat"":""30"",""src"":""18"",""x"":0,""y"":0},{""cat"":""23"",""src"":""19"",""x"":0,""y"":0},{""cat"":""27"",""src"":""5"",""x"":798,""y"":133},{""cat"":""27"",""src"":""5"",""x"":0,""y"":0},{""cat"":""23"",""src"":""9"",""x"":0,""y"":0},{""cat"":""30"",""src"":""2"",""x"":0,""y"":0}]","[{""cat"":30,""src"":9,""loc"":1},{""cat"":27,""src"":13,""loc"":0},{""cat"":23,""src"":13,""loc"":2},{""cat"":27,""src"":1,""loc"":6},{""cat"":30,""src"":18,""loc"":7},{""cat"":23,""src"":19,""loc"":8},{""cat"":27,""src"":5,""loc"":4},{""cat"":23,""src"":9,""loc"":5},{""cat"":30,""src"":2,""loc"":3}]","9","27,30,23,30,27,23,27,30,23,13,9,13,2,5,9,1,18,19,0,1,2,3,4,5,6,7,8,1,0,2,8,6,7,3,4,5",NA
"3334","sort_feedback","13","html-keyboard-response","67","609656","0.0-3.0-40.0","2","2020-1-7 9:52:20","OTTER",NA,NA,NA,NA,NA,NA,NA,NA,NA,NA,NA,NA,NA,NA
"19916","setup3",NA,"animation","68","629573","0.0-3.0-41.0","2","2020-1-7 9:52:20","OTTER",NA,NA,"[{""cat"":27,""src"":10,""loc"":0},{""cat"":14,""src"":12,""loc"":3},{""cat"":26,""src"":6,""loc"":6},{""cat"":14,""src"":5,""loc"":4},{""cat"":26,""src"":12,""loc"":8},{""cat"":27,""src"":18,""loc"":2},{""cat"":26,""src"":3,""loc"":7},{""cat"":27,""src"":5,""loc"":1},{""cat"":14,""src"":3,""loc"":5}]","3","1103,1102,1101,1101,1102,1102,1101,1102,1101,10001",NA,NA,NA,NA,NA,NA,NA,NA,NA
"4196","flanker_instructions","39","html-keyboard-response","69","633769","0.0-3.0-42.0","2","2020-1-7 9:52:20","OTTER",NA,NA,NA,NA,NA,NA,NA,NA,NA,NA,NA,NA,NA,NA
"534","flanker_test","37","image-keyboard-response","70","635304","0.0-3.0-43.0-0.0","2","2020-1-7 9:52:20","OTTER",NA,NA,NA,NA,NA,"incongruent","right","FALSE",NA,NA,NA,NA,NA,NA
"706","flanker_test","37","image-keyboard-response","71","637009","0.0-3.0-43.0-0.1","2","2020-1-7 9:52:20","OTTER",NA,NA,NA,NA,NA,"incongruent","left","TRUE",NA,NA,NA,NA,NA,NA
"537","flanker_test","39","image-keyboard-response","72","638040","0.0-3.0-43.0-0.2","2","2020-1-7 9:52:20","OTTER",NA,NA,NA,NA,NA,"congruent","right","TRUE",NA,NA,NA,NA,NA,NA
"652","flanker_test","37","image-keyboard-response","73","639000","0.0-3.0-43.0-0.3","2","2020-1-7 9:52:20","OTTER",NA,NA,NA,NA,NA,"congruent","left","TRUE",NA,NA,NA,NA,NA,NA
"31450","sort_trial",NA,"free-sort","74","670911","0.0-3.0-44.0","2","2020-1-7 9:52:20","OTTER",NA,NA,NA,NA,NA,NA,NA,NA,"[{""cat"":27,""src"":10,""x"":15,""y"":310},{""cat"":14,""src"":12,""x"":11,""y"":27},{""cat"":26,""src"":6,""x"":51,""y"":204},{""cat"":14,""src"":5,""x"":58,""y"":60},{""cat"":26,""src"":12,""x"":48,""y"":504},{""cat"":27,""src"":18,""x"":35,""y"":145},{""cat"":26,""src"":3,""x"":63,""y"":419},{""cat"":27,""src"":5,""x"":17,""y"":382},{""cat"":14,""src"":3,""x"":78,""y"":267}]","[{""cat"":""27"",""src"":""5"",""x"":0,""y"":0},{""cat"":""27"",""src"":""18"",""x"":0,""y"":0},{""cat"":""27"",""src"":""10"",""x"":0,""y"":0},{""cat"":""26"",""src"":""12"",""x"":0,""y"":0},{""cat"":""26"",""src"":""6"",""x"":0,""y"":0},{""cat"":""26"",""src"":""3"",""x"":0,""y"":0},{""cat"":""14"",""src"":""3"",""x"":0,""y"":0},{""cat"":""14"",""src"":""12"",""x"":0,""y"":0},{""cat"":""14"",""src"":""5"",""x"":0,""y"":0}]","[{""cat"":27,""src"":5,""loc"":1},{""cat"":27,""src"":18,""loc"":2},{""cat"":27,""src"":10,""loc"":0},{""cat"":26,""src"":12,""loc"":7},{""cat"":26,""src"":6,""loc"":6},{""cat"":26,""src"":3,""loc"":8},{""cat"":14,""src"":3,""loc"":5},{""cat"":14,""src"":12,""loc"":3},{""cat"":14,""src"":5,""loc"":4}]","7","27,27,27,14,14,14,26,26,26,10,5,18,12,5,3,6,12,3,0,1,2,3,4,5,6,7,8,2,0,1,7,8,6,4,3,5",NA
"6506","sort_feedback","16","html-keyboard-response","75","677417","0.0-3.0-45.0","2","2020-1-7 9:52:20","OTTER",NA,NA,NA,NA,NA,NA,NA,NA,NA,NA,NA,NA,NA,NA
"19915","setup2",NA,"animation","76","697332","0.0-3.0-46.0","2","2020-1-7 9:52:20","OTTER",NA,NA,"[{""cat"":8,""src"":5,""loc"":2},{""cat"":15,""src"":10,""loc"":0},{""cat"":17,""src"":16,""loc"":1},{""cat"":8,""src"":2,""loc"":8},{""cat"":17,""src"":11,""loc"":6},{""cat"":15,""src"":7,""loc"":7},{""cat"":15,""src"":15,""loc"":4},{""cat"":8,""src"":3,""loc"":5},{""cat"":17,""src"":5,""loc"":3}]","2","1102,1101,1100,1101,1101,1103,1101,1103,1102,10001",NA,NA,NA,NA,NA,NA,NA,NA,NA
"1851","flanker_instructions","39","html-keyboard-response","77","699185","0.0-3.0-47.0","2","2020-1-7 9:52:20","OTTER",NA,NA,NA,NA,NA,NA,NA,NA,NA,NA,NA,NA,NA,NA
"662","flanker_test","39","image-keyboard-response","78","700849","0.0-3.0-48.0-0.0","2","2020-1-7 9:52:20","OTTER",NA,NA,NA,NA,NA,"incongruent","right","TRUE",NA,NA,NA,NA,NA,NA
"605","flanker_test","37","image-keyboard-response","79","702256","0.0-3.0-48.0-0.1","2","2020-1-7 9:52:20","OTTER",NA,NA,NA,NA,NA,"congruent","left","TRUE",NA,NA,NA,NA,NA,NA
"716","flanker_test","37","image-keyboard-response","80","704064","0.0-3.0-48.0-0.2","2","2020-1-7 9:52:20","OTTER",NA,NA,NA,NA,NA,"incongruent","left","TRUE",NA,NA,NA,NA,NA,NA
"600","flanker_test","39","image-keyboard-response","81","705528","0.0-3.0-48.0-0.3","2","2020-1-7 9:52:20","OTTER",NA,NA,NA,NA,NA,"congruent","right","TRUE",NA,NA,NA,NA,NA,NA
"37946","sort_trial",NA,"free-sort","82","744453","0.0-3.0-49.0","2","2020-1-7 9:52:20","OTTER",NA,NA,NA,NA,NA,NA,NA,NA,"[{""cat"":8,""src"":5,""x"":14,""y"":129},{""cat"":15,""src"":10,""x"":79,""y"":479},{""cat"":17,""src"":16,""x"":82,""y"":71},{""cat"":8,""src"":2,""x"":52,""y"":25},{""cat"":17,""src"":11,""x"":8,""y"":186},{""cat"":15,""src"":7,""x"":71,""y"":365},{""cat"":15,""src"":15,""x"":7,""y"":308},{""cat"":8,""src"":3,""x"":80,""y"":438},{""cat"":17,""src"":5,""x"":69,""y"":268}]","[{""cat"":""17"",""src"":""16"",""x"":0,""y"":0},{""cat"":""15"",""src"":""10"",""x"":0,""y"":0},{""cat"":""8"",""src"":""3"",""x"":0,""y"":0},{""cat"":""17"",""src"":""5"",""x"":0,""y"":0},{""cat"":""15"",""src"":""15"",""x"":0,""y"":0},{""cat"":""17"",""src"":""11"",""x"":0,""y"":0},{""cat"":""8"",""src"":""2"",""x"":0,""y"":0},{""cat"":""15"",""src"":""7"",""x"":0,""y"":0},{""cat"":""8"",""src"":""5"",""x"":0,""y"":0}]","[{""cat"":17,""src"":16,""loc"":1},{""cat"":15,""src"":10,""loc"":0},{""cat"":8,""src"":3,""loc"":2},{""cat"":17,""src"":5,""loc"":3},{""cat"":15,""src"":15,""loc"":4},{""cat"":17,""src"":11,""loc"":6},{""cat"":8,""src"":2,""loc"":8},{""cat"":15,""src"":7,""loc"":7},{""cat"":8,""src"":5,""loc"":5}]","7","15,17,8,17,15,8,17,15,8,10,16,3,5,15,5,11,7,2,0,1,2,3,4,5,6,7,8,1,0,2,3,4,8,5,7,6",NA
"1707","sort_feedback","13","html-keyboard-response","83","746161","0.0-3.0-50.0","2","2020-1-7 9:52:20","OTTER",NA,NA,NA,NA,NA,NA,NA,NA,NA,NA,NA,NA,NA,NA
"19910","setup1",NA,"animation","84","766072","0.0-3.0-51.0","2","2020-1-7 9:52:20","OTTER",NA,NA,"[{""cat"":29,""src"":1,""loc"":2},{""cat"":29,""src"":6,""loc"":1},{""cat"":29,""src"":14,""loc"":0},{""cat"":24,""src"":15,""loc"":4},{""cat"":24,""src"":10,""loc"":3},{""cat"":24,""src"":3,""loc"":5},{""cat"":7,""src"":16,""loc"":8},{""cat"":7,""src"":18,""loc"":7},{""cat"":7,""src"":12,""loc"":6}]","1","1102,1101,1100,1101,1101,1101,1100,1101,1102,10001",NA,NA,NA,NA,NA,NA,NA,NA,NA
"1768","flanker_instructions","39","html-keyboard-response","85","767841","0.0-3.0-52.0","2","2020-1-7 9:52:20","OTTER",NA,NA,NA,NA,NA,NA,NA,NA,NA,NA,NA,NA,NA,NA
"838","flanker_test","37","image-keyboard-response","86","769680","0.0-3.0-53.0-0.0","2","2020-1-7 9:52:20","OTTER",NA,NA,NA,NA,NA,"incongruent","left","TRUE",NA,NA,NA,NA,NA,NA
"608","flanker_test","39","image-keyboard-response","87","771393","0.0-3.0-53.0-0.1","2","2020-1-7 9:52:20","OTTER",NA,NA,NA,NA,NA,"congruent","right","TRUE",NA,NA,NA,NA,NA,NA
"670","flanker_test","37","image-keyboard-response","88","772393","0.0-3.0-53.0-0.2","2","2020-1-7 9:52:20","OTTER",NA,NA,NA,NA,NA,"congruent","left","TRUE",NA,NA,NA,NA,NA,NA
"658","flanker_test","39","image-keyboard-response","89","773800","0.0-3.0-53.0-0.3","2","2020-1-7 9:52:20","OTTER",NA,NA,NA,NA,NA,"incongruent","right","TRUE",NA,NA,NA,NA,NA,NA
"27190","sort_trial",NA,"free-sort","90","802061","0.0-3.0-54.0","2","2020-1-7 9:52:20","OTTER",NA,NA,NA,NA,NA,NA,NA,NA,"[{""cat"":29,""src"":1,""x"":78,""y"":142},{""cat"":29,""src"":6,""x"":27,""y"":305},{""cat"":29,""src"":14,""x"":40,""y"":201},{""cat"":24,""src"":15,""x"":82,""y"":435},{""cat"":24,""src"":10,""x"":49,""y"":254},{""cat"":24,""src"":3,""x"":6,""y"":25},{""cat"":7,""src"":16,""x"":60,""y"":485},{""cat"":7,""src"":18,""x"":40,""y"":64},{""cat"":7,""src"":12,""x"":53,""y"":381}]","[{""cat"":""24"",""src"":""3"",""x"":0,""y"":0},{""cat"":""24"",""src"":""15"",""x"":0,""y"":0},{""cat"":""24"",""src"":""10"",""x"":0,""y"":0},{""cat"":""29"",""src"":""14"",""x"":0,""y"":0},{""cat"":""29"",""src"":""1"",""x"":0,""y"":0},{""cat"":""29"",""src"":""6"",""x"":0,""y"":0},{""cat"":""7"",""src"":""16"",""x"":0,""y"":0},{""cat"":""7"",""src"":""18"",""x"":0,""y"":0},{""cat"":""7"",""src"":""12"",""x"":0,""y"":0}]","[{""cat"":24,""src"":3,""loc"":5},{""cat"":24,""src"":15,""loc"":4},{""cat"":24,""src"":10,""loc"":3},{""cat"":29,""src"":14,""loc"":0},{""cat"":29,""src"":1,""loc"":2},{""cat"":29,""src"":6,""loc"":1},{""cat"":7,""src"":16,""loc"":6},{""cat"":7,""src"":18,""loc"":7},{""cat"":7,""src"":12,""loc"":8}]","7","29,29,29,24,24,24,7,7,7,14,6,1,10,15,3,16,18,12,0,1,2,3,4,5,6,7,8,3,5,4,2,1,0,6,7,8",NA
"1715","sort_feedback","13","html-keyboard-response","91","803777","0.0-3.0-55.0","2","2020-1-7 9:52:20","OTTER",NA,NA,NA,NA,NA,NA,NA,NA,NA,NA,NA,NA,NA,NA
"19913","setup4",NA,"animation","92","823690","0.0-3.0-56.0","2","2020-1-7 9:52:20","OTTER",NA,NA,"[{""cat"":11,""src"":10,""loc"":8},{""cat"":11,""src"":1,""loc"":2},{""cat"":11,""src"":6,""loc"":5},{""cat"":17,""src"":3,""loc"":4},{""cat"":17,""src"":7,""loc"":0},{""cat"":17,""src"":11,""loc"":6},{""cat"":31,""src"":12,""loc"":3},{""cat"":31,""src"":2,""loc"":7},{""cat"":31,""src"":14,""loc"":1}]","4","1102,1101,1102,1102,1101,1101,1101,1100,1101,10002",NA,NA,NA,NA,NA,NA,NA,NA,NA
"2502","flanker_instructions","39","html-keyboard-response","93","826193","0.0-3.0-57.0","2","2020-1-7 9:52:20","OTTER",NA,NA,NA,NA,NA,NA,NA,NA,NA,NA,NA,NA,NA,NA
"614","flanker_test","39","image-keyboard-response","94","827808","0.0-3.0-58.0-0.0","2","2020-1-7 9:52:20","OTTER",NA,NA,NA,NA,NA,"congruent","right","TRUE",NA,NA,NA,NA,NA,NA
"642","flanker_test","39","image-keyboard-response","95","829409","0.0-3.0-58.0-0.1","2","2020-1-7 9:52:20","OTTER",NA,NA,NA,NA,NA,"incongruent","right","TRUE",NA,NA,NA,NA,NA,NA
"476","flanker_test","37","image-keyboard-response","96","830665","0.0-3.0-58.0-0.2","2","2020-1-7 9:52:20","OTTER",NA,NA,NA,NA,NA,"congruent","left","TRUE",NA,NA,NA,NA,NA,NA
"336","flanker_test","37","image-keyboard-response","97","831472","0.0-3.0-58.0-0.3","2","2020-1-7 9:52:20","OTTER",NA,NA,NA,NA,NA,"incongruent","left","TRUE",NA,NA,NA,NA,NA,NA
"37579","sort_trial",NA,"free-sort","98","869961","0.0-3.0-59.0","2","2020-1-7 9:52:20","OTTER",NA,NA,NA,NA,NA,NA,NA,NA,"[{""cat"":11,""src"":10,""x"":62,""y"":301},{""cat"":11,""src"":1,""x"":77,""y"":137},{""cat"":11,""src"":6,""x"":41,""y"":438},{""cat"":17,""src"":3,""x"":14,""y"":247},{""cat"":17,""src"":7,""x"":80,""y"":203},{""cat"":17,""src"":11,""x"":42,""y"":17},{""cat"":31,""src"":12,""x"":43,""y"":503},{""cat"":31,""src"":2,""x"":50,""y"":384},{""cat"":31,""src"":14,""x"":4,""y"":77}]","[{""cat"":""31"",""src"":""2"",""x"":0,""y"":0},{""cat"":""17"",""src"":""7"",""x"":0,""y"":0},{""cat"":""31"",""src"":""14"",""x"":0,""y"":0},{""cat"":""11"",""src"":""1"",""x"":0,""y"":0},{""cat"":""17"",""src"":""11"",""x"":0,""y"":0},{""cat"":""11"",""src"":""10"",""x"":0,""y"":0},{""cat"":""17"",""src"":""3"",""x"":0,""y"":0},{""cat"":""11"",""src"":""6"",""x"":557,""y"":342},{""cat"":""11"",""src"":""6"",""x"":0,""y"":0},{""cat"":""31"",""src"":""12"",""x"":0,""y"":0}]","[{""cat"":31,""src"":2,""loc"":7},{""cat"":17,""src"":7,""loc"":1},{""cat"":31,""src"":14,""loc"":0},{""cat"":11,""src"":1,""loc"":2},{""cat"":17,""src"":11,""loc"":6},{""cat"":11,""src"":10,""loc"":3},{""cat"":17,""src"":3,""loc"":4},{""cat"":11,""src"":6,""loc"":8},{""cat"":31,""src"":12,""loc"":5}]","4","31,17,11,11,17,31,17,31,11,14,7,1,10,3,12,11,2,6,0,1,2,3,4,5,6,7,8,2,1,3,5,6,8,4,0,7",NA
"6024","sort_feedback","13","html-keyboard-response","99","875985","0.0-3.0-60.0","2","2020-1-7 9:52:20","OTTER",NA,NA,NA,NA,NA,NA,NA,NA,NA,NA,NA,NA,NA,NA
"19916","setup5",NA,"animation","100","895902","0.0-3.0-61.0","2","2020-1-7 9:52:20","OTTER",NA,NA,"[{""cat"":32,""src"":16,""loc"":8},{""cat"":2,""src"":8,""loc"":4},{""cat"":0,""src"":17,""loc"":0},{""cat"":32,""src"":0,""loc"":3},{""cat"":2,""src"":3,""loc"":2},{""cat"":0,""src"":7,""loc"":6},{""cat"":32,""src"":5,""loc"":1},{""cat"":0,""src"":3,""loc"":5},{""cat"":2,""src"":18,""loc"":7}]","5","1102,1101,1102,1101,1103,1101,1102,1101,1101,10002",NA,NA,NA,NA,NA,NA,NA,NA,NA
"1475","flanker_instructions","39","html-keyboard-response","101","897377","0.0-3.0-62.0","2","2020-1-7 9:52:20","OTTER",NA,NA,NA,NA,NA,NA,NA,NA,NA,NA,NA,NA,NA,NA
"574","flanker_test","39","image-keyboard-response","102","898953","0.0-3.0-63.0-0.0","2","2020-1-7 9:52:20","OTTER",NA,NA,NA,NA,NA,"congruent","right","TRUE",NA,NA,NA,NA,NA,NA
"648","flanker_test","37","image-keyboard-response","103","900337","0.0-3.0-63.0-0.1","2","2020-1-7 9:52:20","OTTER",NA,NA,NA,NA,NA,"incongruent","left","TRUE",NA,NA,NA,NA,NA,NA
"426","flanker_test","37","image-keyboard-response","104","901312","0.0-3.0-63.0-0.2","2","2020-1-7 9:52:20","OTTER",NA,NA,NA,NA,NA,"congruent","left","TRUE",NA,NA,NA,NA,NA,NA
"770","flanker_test","39","image-keyboard-response","105","902585","0.0-3.0-63.0-0.3","2","2020-1-7 9:52:20","OTTER",NA,NA,NA,NA,NA,"incongruent","right","TRUE",NA,NA,NA,NA,NA,NA
"28229","sort_trial",NA,"free-sort","106","931985","0.0-3.0-64.0","2","2020-1-7 9:52:20","OTTER",NA,NA,NA,NA,NA,NA,NA,NA,"[{""cat"":32,""src"":16,""x"":78,""y"":445},{""cat"":2,""src"":8,""x"":1,""y"":364},{""cat"":0,""src"":17,""x"":34,""y"":134},{""cat"":32,""src"":0,""x"":47,""y"":498},{""cat"":2,""src"":3,""x"":20,""y"":198},{""cat"":0,""src"":7,""x"":59,""y"":24},{""cat"":32,""src"":5,""x"":80,""y"":257},{""cat"":0,""src"":3,""x"":82,""y"":323},{""cat"":2,""src"":18,""x"":76,""y"":66}]","[{""cat"":""32"",""src"":""5"",""x"":0,""y"":0},{""cat"":""0"",""src"":""17"",""x"":0,""y"":0},{""cat"":""2"",""src"":""3"",""x"":0,""y"":0},{""cat"":""0"",""src"":""3"",""x"":0,""y"":0},{""cat"":""2"",""src"":""8"",""x"":0,""y"":0},{""cat"":""32"",""src"":""0"",""x"":0,""y"":0},{""cat"":""2"",""src"":""18"",""x"":0,""y"":0},{""cat"":""0"",""src"":""7"",""x"":0,""y"":0},{""cat"":""32"",""src"":""16"",""x"":0,""y"":0}]","[{""cat"":32,""src"":5,""loc"":1},{""cat"":0,""src"":17,""loc"":0},{""cat"":2,""src"":3,""loc"":2},{""cat"":0,""src"":3,""loc"":5},{""cat"":2,""src"":8,""loc"":3},{""cat"":32,""src"":0,""loc"":4},{""cat"":2,""src"":18,""loc"":7},{""cat"":0,""src"":7,""loc"":6},{""cat"":32,""src"":16,""loc"":8}]","7","0,32,2,2,32,0,0,2,32,17,5,3,8,0,3,7,18,16,0,1,2,3,4,5,6,7,8,1,0,2,4,5,3,7,6,8",NA
"2654","sort_feedback","13","html-keyboard-response","107","934640","0.0-3.0-65.0","2","2020-1-7 9:52:20","OTTER",NA,NA,NA,NA,NA,NA,NA,NA,NA,NA,NA,NA,NA,NA
"19913","setup2",NA,"animation","108","954553","0.0-3.0-66.0","2","2020-1-7 9:52:20","OTTER",NA,NA,"[{""cat"":4,""src"":3,""loc"":6},{""cat"":3,""src"":1,""loc"":7},{""cat"":0,""src"":7,""loc"":8},{""cat"":3,""src"":12,""loc"":5},{""cat"":4,""src"":4,""loc"":3},{""cat"":0,""src"":17,""loc"":4},{""cat"":3,""src"":9,""loc"":1},{""cat"":4,""src"":2,""loc"":0},{""cat"":0,""src"":1,""loc"":2}]","2","1103,1101,1100,1102,1101,1101,1102,1101,1101,10001",NA,NA,NA,NA,NA,NA,NA,NA,NA
"1855","flanker_instructions","39","html-keyboard-response","109","956409","0.0-3.0-67.0","2","2020-1-7 9:52:20","OTTER",NA,NA,NA,NA,NA,NA,NA,NA,NA,NA,NA,NA,NA,NA
"678","flanker_test","39","image-keyboard-response","110","958089","0.0-3.0-68.0-0.0","2","2020-1-7 9:52:20","OTTER",NA,NA,NA,NA,NA,"incongruent","right","TRUE",NA,NA,NA,NA,NA,NA
"616","flanker_test","37","image-keyboard-response","111","959192","0.0-3.0-68.0-0.1","2","2020-1-7 9:52:20","OTTER",NA,NA,NA,NA,NA,"incongruent","left","TRUE",NA,NA,NA,NA,NA,NA
"474","flanker_test","39","image-keyboard-response","112","960249","0.0-3.0-68.0-0.2","2","2020-1-7 9:52:20","OTTER",NA,NA,NA,NA,NA,"congruent","right","TRUE",NA,NA,NA,NA,NA,NA
"316","flanker_test","37","image-keyboard-response","113","961040","0.0-3.0-68.0-0.3","2","2020-1-7 9:52:20","OTTER",NA,NA,NA,NA,NA,"congruent","left","TRUE",NA,NA,NA,NA,NA,NA
"33974","sort_trial",NA,"free-sort","114","995933","0.0-3.0-69.0","2","2020-1-7 9:52:20","OTTER",NA,NA,NA,NA,NA,NA,NA,NA,"[{""cat"":4,""src"":3,""x"":41,""y"":435},{""cat"":3,""src"":1,""x"":82,""y"":16},{""cat"":0,""src"":7,""x"":65,""y"":362},{""cat"":3,""src"":12,""x"":48,""y"":242},{""cat"":4,""src"":4,""x"":11,""y"":500},{""cat"":0,""src"":17,""x"":58,""y"":132},{""cat"":3,""src"":9,""x"":47,""y"":67},{""cat"":4,""src"":2,""x"":61,""y"":199},{""cat"":0,""src"":1,""x"":26,""y"":311}]","[{""cat"":""3"",""src"":""1"",""x"":0,""y"":0},{""cat"":""4"",""src"":""3"",""x"":0,""y"":0},{""cat"":""0"",""src"":""7"",""x"":0,""y"":0},{""cat"":""4"",""src"":""2"",""x"":0,""y"":0},{""cat"":""0"",""src"":""1"",""x"":0,""y"":0},{""cat"":""3"",""src"":""9"",""x"":0,""y"":0},{""cat"":""4"",""src"":""4"",""x"":0,""y"":0},{""cat"":""0"",""src"":""17"",""x"":0,""y"":0},{""cat"":""3"",""src"":""12"",""x"":0,""y"":0}]","[{""cat"":3,""src"":1,""loc"":7},{""cat"":4,""src"":3,""loc"":8},{""cat"":0,""src"":7,""loc"":6},{""cat"":4,""src"":2,""loc"":0},{""cat"":0,""src"":1,""loc"":2},{""cat"":3,""src"":9,""loc"":1},{""cat"":4,""src"":4,""loc"":4},{""cat"":0,""src"":17,""loc"":3},{""cat"":3,""src"":12,""loc"":5}]","5","4,3,0,0,4,3,0,3,4,2,9,1,17,4,12,7,1,3,0,1,2,3,4,5,6,7,8,3,5,4,7,6,8,2,0,1",NA
"2378","sort_feedback","13","html-keyboard-response","115","998312","0.0-3.0-70.0","2","2020-1-7 9:52:20","OTTER",NA,NA,NA,NA,NA,NA,NA,NA,NA,NA,NA,NA,NA,NA
"19915","setup3",NA,"animation","116","1018228","0.0-3.0-71.0","2","2020-1-7 9:52:20","OTTER",NA,NA,"[{""cat"":29,""src"":6,""loc"":0},{""cat"":10,""src"":6,""loc"":8},{""cat"":7,""src"":16,""loc"":3},{""cat"":29,""src"":19,""loc"":1},{""cat"":10,""src"":15,""loc"":7},{""cat"":7,""src"":1,""loc"":5},{""cat"":7,""src"":5,""loc"":4},{""cat"":29,""src"":12,""loc"":2},{""cat"":10,""src"":2,""loc"":6}]","3","1102,1102,1101,1101,1101,1101,1101,1102,1102,10002",NA,NA,NA,NA,NA,NA,NA,NA,NA
"9149","flanker_instructions","39","html-keyboard-response","117","1027377","0.0-3.0-72.0","2","2020-1-7 9:52:20","OTTER",NA,NA,NA,NA,NA,NA,NA,NA,NA,NA,NA,NA,NA,NA
"599","flanker_test","39","image-keyboard-response","118","1028977","0.0-3.0-73.0-0.0","2","2020-1-7 9:52:20","OTTER",NA,NA,NA,NA,NA,"incongruent","right","TRUE",NA,NA,NA,NA,NA,NA
"604","flanker_test","37","image-keyboard-response","119","1030529","0.0-3.0-73.0-0.1","2","2020-1-7 9:52:20","OTTER",NA,NA,NA,NA,NA,"incongruent","left","TRUE",NA,NA,NA,NA,NA,NA
"550","flanker_test","39","image-keyboard-response","120","1032257","0.0-3.0-73.0-0.2","2","2020-1-7 9:52:20","OTTER",NA,NA,NA,NA,NA,"congruent","right","TRUE",NA,NA,NA,NA,NA,NA
"811","flanker_test","37","image-keyboard-response","121","1033449","0.0-3.0-73.0-0.3","2","2020-1-7 9:52:20","OTTER",NA,NA,NA,NA,NA,"congruent","left","TRUE",NA,NA,NA,NA,NA,NA
"20979","sort_trial",NA,"free-sort","122","1055179","0.0-3.0-74.0","2","2020-1-7 9:52:20","OTTER",NA,NA,NA,NA,NA,NA,NA,NA,"[{""cat"":29,""src"":6,""x"":82,""y"":75},{""cat"":10,""src"":6,""x"":40,""y"":242},{""cat"":7,""src"":16,""x"":59,""y"":437},{""cat"":29,""src"":19,""x"":0,""y"":15},{""cat"":10,""src"":15,""x"":0,""y"":202},{""cat"":7,""src"":1,""x"":9,""y"":376},{""cat"":7,""src"":5,""x"":16,""y"":329},{""cat"":29,""src"":12,""x"":59,""y"":124},{""cat"":10,""src"":2,""x"":71,""y"":486}]","[{""cat"":""29"",""src"":""19"",""x"":0,""y"":0},{""cat"":""29"",""src"":""12"",""x"":0,""y"":0},{""cat"":""29"",""src"":""6"",""x"":0,""y"":0},{""cat"":""10"",""src"":""15"",""x"":0,""y"":0},{""cat"":""10"",""src"":""2"",""x"":0,""y"":0},{""cat"":""10"",""src"":""6"",""x"":0,""y"":0},{""cat"":""7"",""src"":""16"",""x"":0,""y"":0},{""cat"":""7"",""src"":""5"",""x"":0,""y"":0},{""cat"":""7"",""src"":""1"",""x"":0,""y"":0}]","[{""cat"":29,""src"":19,""loc"":1},{""cat"":29,""src"":12,""loc"":2},{""cat"":29,""src"":6,""loc"":0},{""cat"":10,""src"":15,""loc"":7},{""cat"":10,""src"":2,""loc"":6},{""cat"":10,""src"":6,""loc"":8},{""cat"":7,""src"":16,""loc"":3},{""cat"":7,""src"":5,""loc"":5},{""cat"":7,""src"":1,""loc"":4}]","7","29,29,29,7,7,7,10,10,10,6,19,12,16,1,5,2,15,6,0,1,2,3,4,5,6,7,8,2,0,1,6,8,7,4,3,5",NA
"2358","sort_feedback","13","html-keyboard-response","123","1057537","0.0-3.0-75.0","2","2020-1-7 9:52:20","OTTER",NA,NA,NA,NA,NA,NA,NA,NA,NA,NA,NA,NA,NA,NA
"19914","setup4",NA,"animation","124","1077452","0.0-3.0-76.0","2","2020-1-7 9:52:20","OTTER",NA,NA,"[{""cat"":2,""src"":12,""loc"":6},{""cat"":2,""src"":7,""loc"":0},{""cat"":2,""src"":10,""loc"":5},{""cat"":15,""src"":7,""loc"":4},{""cat"":15,""src"":11,""loc"":1},{""cat"":15,""src"":1,""loc"":7},{""cat"":16,""src"":2,""loc"":3},{""cat"":16,""src"":11,""loc"":2},{""cat"":16,""src"":5,""loc"":8}]","4","1101,1101,1101,1101,1101,1102,1102,1102,1102,10001",NA,NA,NA,NA,NA,NA,NA,NA,NA
"2420","flanker_instructions","39","html-keyboard-response","125","1079873","0.0-3.0-77.0","2","2020-1-7 9:52:20","OTTER",NA,NA,NA,NA,NA,NA,NA,NA,NA,NA,NA,NA,NA,NA
"582","flanker_test","39","image-keyboard-response","126","1081457","0.0-3.0-78.0-0.0","2","2020-1-7 9:52:20","OTTER",NA,NA,NA,NA,NA,"incongruent","right","TRUE",NA,NA,NA,NA,NA,NA
"478","flanker_test","37","image-keyboard-response","127","1082265","0.0-3.0-78.0-0.1","2","2020-1-7 9:52:20","OTTER",NA,NA,NA,NA,NA,"congruent","left","TRUE",NA,NA,NA,NA,NA,NA
"464","flanker_test","39","image-keyboard-response","128","1083561","0.0-3.0-78.0-0.2","2","2020-1-7 9:52:20","OTTER",NA,NA,NA,NA,NA,"congruent","right","TRUE",NA,NA,NA,NA,NA,NA
"253","flanker_test","37","image-keyboard-response","129","1084273","0.0-3.0-78.0-0.3","2","2020-1-7 9:52:20","OTTER",NA,NA,NA,NA,NA,"incongruent","left","TRUE",NA,NA,NA,NA,NA,NA
"54677","sort_trial",NA,"free-sort","130","1139715","0.0-3.0-79.0","2","2020-1-7 9:52:20","OTTER",NA,NA,NA,NA,NA,NA,NA,NA,"[{""cat"":2,""src"":12,""x"":57,""y"":302},{""cat"":2,""src"":7,""x"":11,""y"":21},{""cat"":2,""src"":10,""x"":4,""y"":368},{""cat"":15,""src"":7,""x"":73,""y"":125},{""cat"":15,""src"":11,""x"":10,""y"":247},{""cat"":15,""src"":1,""x"":34,""y"":87},{""cat"":16,""src"":2,""x"":57,""y"":208},{""cat"":16,""src"":11,""x"":10,""y"":499},{""cat"":16,""src"":5,""x"":69,""y"":423}]","[{""cat"":""2"",""src"":""7"",""x"":0,""y"":0},{""cat"":""15"",""src"":""11"",""x"":0,""y"":0},{""cat"":""2"",""src"":""10"",""x"":0,""y"":0},{""cat"":""15"",""src"":""7"",""x"":0,""y"":0},{""cat"":""16"",""src"":""2"",""x"":0,""y"":0},{""cat"":""16"",""src"":""5"",""x"":0,""y"":0},{""cat"":""2"",""src"":""12"",""x"":410,""y"":302},{""cat"":""2"",""src"":""12"",""x"":0,""y"":0},{""cat"":""15"",""src"":""1"",""x"":0,""y"":0},{""cat"":""16"",""src"":""11"",""x"":0,""y"":0}]","[{""cat"":2,""src"":7,""loc"":0},{""cat"":15,""src"":11,""loc"":1},{""cat"":2,""src"":10,""loc"":5},{""cat"":15,""src"":7,""loc"":4},{""cat"":16,""src"":2,""loc"":3},{""cat"":16,""src"":5,""loc"":8},{""cat"":2,""src"":12,""loc"":6},{""cat"":15,""src"":1,""loc"":7},{""cat"":16,""src"":11,""loc"":2}]","9","2,15,16,16,15,2,2,15,16,7,11,11,2,7,10,12,1,5,0,1,2,3,4,5,6,7,8,0,1,8,4,3,2,6,7,5",NA
"6373","sort_feedback","13","html-keyboard-response","131","1146089","0.0-3.0-80.0","2","2020-1-7 9:52:20","OTTER",NA,NA,NA,NA,NA,NA,NA,NA,NA,NA,NA,NA,NA,NA
"19917","setup5",NA,"animation","132","1166007","0.0-3.0-81.0","2","2020-1-7 9:52:20","OTTER",NA,NA,"[{""cat"":11,""src"":9,""loc"":5},{""cat"":22,""src"":11,""loc"":2},{""cat"":32,""src"":19,""loc"":6},{""cat"":11,""src"":2,""loc"":8},{""cat"":22,""src"":3,""loc"":4},{""cat"":32,""src"":4,""loc"":0},{""cat"":32,""src"":7,""loc"":3},{""cat"":22,""src"":0,""loc"":7},{""cat"":11,""src"":1,""loc"":1}]","5","1102,1102,1102,1101,1102,1102,1102,1101,1102,10001",NA,NA,NA,NA,NA,NA,NA,NA,NA
"3849","flanker_instructions","39","html-keyboard-response","133","1169857","0.0-3.0-82.0","2","2020-1-7 9:52:20","OTTER",NA,NA,NA,NA,NA,NA,NA,NA,NA,NA,NA,NA,NA,NA
"614","flanker_test","39","image-keyboard-response","134","1171473","0.0-3.0-83.0-0.0","2","2020-1-7 9:52:20","OTTER",NA,NA,NA,NA,NA,"incongruent","right","TRUE",NA,NA,NA,NA,NA,NA
"395","flanker_test","39","image-keyboard-response","135","1172465","0.0-3.0-83.0-0.1","2","2020-1-7 9:52:20","OTTER",NA,NA,NA,NA,NA,"congruent","right","TRUE",NA,NA,NA,NA,NA,NA
"626","flanker_test","37","image-keyboard-response","136","1174073","0.0-3.0-83.0-0.2","2","2020-1-7 9:52:20","OTTER",NA,NA,NA,NA,NA,"incongruent","left","TRUE",NA,NA,NA,NA,NA,NA
"444","flanker_test","37","image-keyboard-response","137","1175201","0.0-3.0-83.0-0.3","2","2020-1-7 9:52:20","OTTER",NA,NA,NA,NA,NA,"congruent","left","TRUE",NA,NA,NA,NA,NA,NA
"30769","sort_trial",NA,"free-sort","138","1206843","0.0-3.0-84.0","2","2020-1-7 9:52:20","OTTER",NA,NA,NA,NA,NA,NA,NA,NA,"[{""cat"":11,""src"":9,""x"":43,""y"":244},{""cat"":22,""src"":11,""x"":66,""y"":6},{""cat"":32,""src"":19,""x"":40,""y"":64},{""cat"":11,""src"":2,""x"":71,""y"":370},{""cat"":22,""src"":3,""x"":64,""y"":208},{""cat"":32,""src"":4,""x"":8,""y"":317},{""cat"":32,""src"":7,""x"":13,""y"":148},{""cat"":22,""src"":0,""x"":11,""y"":433},{""cat"":11,""src"":1,""x"":79,""y"":494}]","[{""cat"":""11"",""src"":""1"",""x"":0,""y"":0},{""cat"":""32"",""src"":""4"",""x"":0,""y"":0},{""cat"":""22"",""src"":""11"",""x"":0,""y"":0},{""cat"":""22"",""src"":""0"",""x"":0,""y"":0},{""cat"":""32"",""src"":""19"",""x"":0,""y"":0},{""cat"":""11"",""src"":""2"",""x"":0,""y"":0},{""cat"":""32"",""src"":""7"",""x"":0,""y"":0},{""cat"":""22"",""src"":""3"",""x"":0,""y"":0},{""cat"":""11"",""src"":""9"",""x"":0,""y"":0}]","[{""cat"":11,""src"":1,""loc"":1},{""cat"":32,""src"":4,""loc"":0},{""cat"":22,""src"":11,""loc"":2},{""cat"":22,""src"":0,""loc"":7},{""cat"":32,""src"":19,""loc"":6},{""cat"":11,""src"":2,""loc"":8},{""cat"":32,""src"":7,""loc"":5},{""cat"":22,""src"":3,""loc"":3},{""cat"":11,""src"":9,""loc"":4}]","6","32,11,22,22,11,32,32,22,11,4,1,11,3,9,7,19,0,2,0,1,2,3,4,5,6,7,8,1,0,2,7,8,6,4,3,5",NA
"6502","sort_feedback","13","html-keyboard-response","139","1213345","0.0-3.0-85.0","2","2020-1-7 9:52:20","OTTER",NA,NA,NA,NA,NA,NA,NA,NA,NA,NA,NA,NA,NA,NA
"19914","setup1",NA,"animation","140","1233259","0.0-3.0-86.0","2","2020-1-7 9:52:20","OTTER",NA,NA,"[{""cat"":15,""src"":1,""loc"":2},{""cat"":15,""src"":2,""loc"":0},{""cat"":15,""src"":12,""loc"":1},{""cat"":23,""src"":6,""loc"":8},{""cat"":23,""src"":19,""loc"":6},{""cat"":23,""src"":14,""loc"":7},{""cat"":31,""src"":18,""loc"":3},{""cat"":31,""src"":5,""loc"":4},{""cat"":31,""src"":10,""loc"":5}]","1","1102,1101,1101,1103,1101,1101,1101,1101,1101,10002",NA,NA,NA,NA,NA,NA,NA,NA,NA
"1646","flanker_instructions","39","html-keyboard-response","141","1234906","0.0-3.0-87.0","2","2020-1-7 9:52:20","OTTER",NA,NA,NA,NA,NA,NA,NA,NA,NA,NA,NA,NA,NA,NA
"814","flanker_test","37","image-keyboard-response","142","1236721","0.0-3.0-88.0-0.0","2","2020-1-7 9:52:20","OTTER",NA,NA,NA,NA,NA,"incongruent","left","TRUE",NA,NA,NA,NA,NA,NA
NA,"flanker_test",NA,"image-keyboard-response","143","1237949","0.0-3.0-88.0-0.1","2","2020-1-7 9:52:20","OTTER",NA,NA,NA,NA,NA,"congruent","right","FALSE",NA,NA,NA,NA,NA,NA
"480","flanker_test","37","image-keyboard-response","144","1239537","0.0-3.0-88.0-0.2","2","2020-1-7 9:52:20","OTTER",NA,NA,NA,NA,NA,"congruent","left","TRUE",NA,NA,NA,NA,NA,NA
"640","flanker_test","39","image-keyboard-response","145","1240673","0.0-3.0-88.0-0.3","2","2020-1-7 9:52:20","OTTER",NA,NA,NA,NA,NA,"incongruent","right","TRUE",NA,NA,NA,NA,NA,NA
"22237","sort_trial",NA,"free-sort","146","1263685","0.0-3.0-89.0","2","2020-1-7 9:52:20","OTTER",NA,NA,NA,NA,NA,NA,NA,NA,"[{""cat"":15,""src"":1,""x"":26,""y"":246},{""cat"":15,""src"":2,""x"":6,""y"":314},{""cat"":15,""src"":12,""x"":72,""y"":379},{""cat"":23,""src"":6,""x"":3,""y"":138},{""cat"":23,""src"":19,""x"":57,""y"":183},{""cat"":23,""src"":14,""x"":38,""y"":487},{""cat"":31,""src"":18,""x"":50,""y"":75},{""cat"":31,""src"":5,""x"":77,""y"":433},{""cat"":31,""src"":10,""x"":73,""y"":25}]","[{""cat"":""31"",""src"":""5"",""x"":0,""y"":0},{""cat"":""31"",""src"":""10"",""x"":0,""y"":0},{""cat"":""31"",""src"":""18"",""x"":0,""y"":0},{""cat"":""15"",""src"":""12"",""x"":0,""y"":0},{""cat"":""23"",""src"":""19"",""x"":0,""y"":0},{""cat"":""23"",""src"":""6"",""x"":0,""y"":0},{""cat"":""23"",""src"":""14"",""x"":0,""y"":0},{""cat"":""15"",""src"":""1"",""x"":0,""y"":0},{""cat"":""15"",""src"":""2"",""x"":0,""y"":0}]","[{""cat"":31,""src"":5,""loc"":4},{""cat"":31,""src"":10,""loc"":5},{""cat"":31,""src"":18,""loc"":3},{""cat"":15,""src"":12,""loc"":1},{""cat"":23,""src"":19,""loc"":6},{""cat"":23,""src"":6,""loc"":8},{""cat"":23,""src"":14,""loc"":7},{""cat"":15,""src"":1,""loc"":0},{""cat"":15,""src"":2,""loc"":2}]","7","15,15,15,31,31,31,23,23,23,1,12,2,18,5,10,19,14,6,0,1,2,3,4,5,6,7,8,7,3,8,2,0,1,4,6,5",NA
"1715","sort_feedback","13","html-keyboard-response","147","1265401","0.0-3.0-90.0","2","2020-1-7 9:52:20","OTTER",NA,NA,NA,NA,NA,NA,NA,NA,NA,NA,NA,NA,NA,NA
"19918","setup3",NA,"animation","148","1285319","0.0-3.0-91.0","2","2020-1-7 9:52:20","OTTER",NA,NA,"[{""cat"":12,""src"":7,""loc"":4},{""cat"":28,""src"":6,""loc"":2},{""cat"":21,""src"":13,""loc"":8},{""cat"":28,""src"":12,""loc"":1},{""cat"":21,""src"":7,""loc"":6},{""cat"":12,""src"":8,""loc"":3},{""cat"":21,""src"":1,""loc"":7},{""cat"":12,""src"":12,""loc"":5},{""cat"":28,""src"":19,""loc"":0}]","3","1102,1102,1102,1102,1102,1102,1102,1101,1102,10001",NA,NA,NA,NA,NA,NA,NA,NA,NA
"2777","flanker_instructions","39","html-keyboard-response","149","1288097","0.0-3.0-92.0","2","2020-1-7 9:52:20","OTTER",NA,NA,NA,NA,NA,NA,NA,NA,NA,NA,NA,NA,NA,NA
"575","flanker_test","37","image-keyboard-response","150","1289673","0.0-3.0-93.0-0.0","2","2020-1-7 9:52:20","OTTER",NA,NA,NA,NA,NA,"congruent","left","TRUE",NA,NA,NA,NA,NA,NA
"778","flanker_test","39","image-keyboard-response","151","1291521","0.0-3.0-93.0-0.1","2","2020-1-7 9:52:20","OTTER",NA,NA,NA,NA,NA,"incongruent","right","TRUE",NA,NA,NA,NA,NA,NA
"405","flanker_test","39","image-keyboard-response","152","1292273","0.0-3.0-93.0-0.2","2","2020-1-7 9:52:20","OTTER",NA,NA,NA,NA,NA,"congruent","right","TRUE",NA,NA,NA,NA,NA,NA
"771","flanker_test","37","image-keyboard-response","153","1293985","0.0-3.0-93.0-0.3","2","2020-1-7 9:52:20","OTTER",NA,NA,NA,NA,NA,"incongruent","left","TRUE",NA,NA,NA,NA,NA,NA
"35968","sort_trial",NA,"free-sort","154","1330261","0.0-3.0-94.0","2","2020-1-7 9:52:20","OTTER",NA,NA,NA,NA,NA,NA,NA,NA,"[{""cat"":12,""src"":7,""x"":70,""y"":6},{""cat"":28,""src"":6,""x"":36,""y"":444},{""cat"":21,""src"":13,""x"":58,""y"":329},{""cat"":28,""src"":12,""x"":33,""y"":507},{""cat"":21,""src"":7,""x"":6,""y"":126},{""cat"":12,""src"":8,""x"":64,""y"":206},{""cat"":21,""src"":1,""x"":59,""y"":257},{""cat"":12,""src"":12,""x"":36,""y"":79},{""cat"":28,""src"":19,""x"":23,""y"":367}]","[{""cat"":""12"",""src"":""7"",""x"":0,""y"":0},{""cat"":""12"",""src"":""12"",""x"":0,""y"":0},{""cat"":""12"",""src"":""8"",""x"":0,""y"":0},{""cat"":""28"",""src"":""19"",""x"":0,""y"":0},{""cat"":""21"",""src"":""13"",""x"":0,""y"":0},{""cat"":""28"",""src"":""12"",""x"":0,""y"":0},{""cat"":""21"",""src"":""1"",""x"":0,""y"":0},{""cat"":""21"",""src"":""7"",""x"":0,""y"":0},{""cat"":""28"",""src"":""6"",""x"":0,""y"":0}]","[{""cat"":12,""src"":7,""loc"":4},{""cat"":12,""src"":12,""loc"":5},{""cat"":12,""src"":8,""loc"":3},{""cat"":28,""src"":19,""loc"":0},{""cat"":21,""src"":13,""loc"":8},{""cat"":28,""src"":12,""loc"":1},{""cat"":21,""src"":1,""loc"":6},{""cat"":21,""src"":7,""loc"":7},{""cat"":28,""src"":6,""loc"":2}]","7","28,28,28,12,12,12,21,21,21,19,12,6,8,7,12,1,7,13,0,1,2,3,4,5,6,7,8,3,5,8,2,0,1,6,7,4",NA
"9985","sort_feedback","16","html-keyboard-response","155","1340247","0.0-3.0-95.0","2","2020-1-7 9:52:20","OTTER",NA,NA,NA,NA,NA,NA,NA,NA,NA,NA,NA,NA,NA,NA
"19916","setup2",NA,"animation","156","1360164","0.0-3.0-96.0","2","2020-1-7 9:52:20","OTTER",NA,NA,"[{""cat"":15,""src"":11,""loc"":8},{""cat"":11,""src"":15,""loc"":7},{""cat"":18,""src"":2,""loc"":6},{""cat"":11,""src"":2,""loc"":3},{""cat"":15,""src"":12,""loc"":5},{""cat"":18,""src"":16,""loc"":4},{""cat"":15,""src"":1,""loc"":0},{""cat"":18,""src"":4,""loc"":1},{""cat"":11,""src"":13,""loc"":2}]","2","1102,1102,1102,1101,1101,1102,1100,1102,1102,10002",NA,NA,NA,NA,NA,NA,NA,NA,NA
"1549","flanker_instructions","39","html-keyboard-response","157","1361713","0.0-3.0-97.0","2","2020-1-7 9:52:20","OTTER",NA,NA,NA,NA,NA,NA,NA,NA,NA,NA,NA,NA,NA,NA
"775","flanker_test","37","image-keyboard-response","158","1363489","0.0-3.0-98.0-0.0","2","2020-1-7 9:52:20","OTTER",NA,NA,NA,NA,NA,"congruent","left","TRUE",NA,NA,NA,NA,NA,NA
"566","flanker_test","39","image-keyboard-response","159","1364656","0.0-3.0-98.0-0.1","2","2020-1-7 9:52:20","OTTER",NA,NA,NA,NA,NA,"incongruent","right","TRUE",NA,NA,NA,NA,NA,NA
"478","flanker_test","39","image-keyboard-response","160","1365705","0.0-3.0-98.0-0.2","2","2020-1-7 9:52:20","OTTER",NA,NA,NA,NA,NA,"congruent","right","TRUE",NA,NA,NA,NA,NA,NA
"639","flanker_test","37","image-keyboard-response","161","1366721","0.0-3.0-98.0-0.3","2","2020-1-7 9:52:20","OTTER",NA,NA,NA,NA,NA,"incongruent","left","TRUE",NA,NA,NA,NA,NA,NA
"44812","sort_trial",NA,"free-sort","162","1412561","0.0-3.0-99.0","2","2020-1-7 9:52:20","OTTER",NA,NA,NA,NA,NA,NA,NA,NA,"[{""cat"":15,""src"":11,""x"":68,""y"":488},{""cat"":11,""src"":15,""x"":67,""y"":29},{""cat"":18,""src"":2,""x"":39,""y"":62},{""cat"":11,""src"":2,""x"":18,""y"":195},{""cat"":15,""src"":12,""x"":6,""y"":439},{""cat"":18,""src"":16,""x"":27,""y"":121},{""cat"":15,""src"":1,""x"":9,""y"":260},{""cat"":18,""src"":4,""x"":11,""y"":377},{""cat"":11,""src"":13,""x"":65,""y"":310}]","[{""cat"":""11"",""src"":""15"",""x"":0,""y"":0},{""cat"":""18"",""src"":""4"",""x"":0,""y"":0},{""cat"":""11"",""src"":""2"",""x"":0,""y"":0},{""cat"":""15"",""src"":""12"",""x"":649,""y"":165},{""cat"":""15"",""src"":""12"",""x"":0,""y"":0},{""cat"":""15"",""src"":""11"",""x"":0,""y"":0},{""cat"":""11"",""src"":""13"",""x"":0,""y"":0},{""cat"":""15"",""src"":""1"",""x"":0,""y"":0},{""cat"":""18"",""src"":""2"",""x"":0,""y"":0},{""cat"":""18"",""src"":""16"",""x"":0,""y"":0}]","[{""cat"":11,""src"":15,""loc"":4},{""cat"":18,""src"":4,""loc"":1},{""cat"":11,""src"":2,""loc"":3},{""cat"":15,""src"":12,""loc"":5},{""cat"":15,""src"":11,""loc"":8},{""cat"":11,""src"":13,""loc"":2},{""cat"":15,""src"":1,""loc"":0},{""cat"":18,""src"":2,""loc"":7},{""cat"":18,""src"":16,""loc"":6}]","6","15,18,11,11,11,15,18,18,15,1,4,13,2,15,12,16,2,11,0,1,2,3,4,5,6,7,8,6,1,5,2,0,3,8,7,4",NA
"3423","sort_feedback","16","html-keyboard-response","163","1415985","0.0-3.0-100.0","2","2020-1-7 9:52:20","OTTER",NA,NA,NA,NA,NA,NA,NA,NA,NA,NA,NA,NA,NA,NA
NA,"breakStart",NA,"html-keyboard-response","164","1445987","0.0-4.0-0.0","2","2020-1-7 9:52:20","OTTER",NA,NA,NA,NA,NA,NA,NA,NA,NA,NA,NA,NA,NA,NA
"1977","breakEnd",NA,"html-button-response","165","1447965","0.0-4.0-1.0","2","2020-1-7 9:52:20","OTTER","0",NA,NA,NA,NA,NA,NA,NA,NA,NA,NA,NA,NA,NA
"19913","setup4",NA,"animation","166","1467879","0.0-5.0-0.0","2","2020-1-7 9:52:20","OTTER",NA,NA,"[{""cat"":27,""src"":13,""loc"":7},{""cat"":27,""src"":14,""loc"":0},{""cat"":27,""src"":12,""loc"":4},{""cat"":4,""src"":4,""loc"":3},{""cat"":4,""src"":11,""loc"":1},{""cat"":4,""src"":2,""loc"":8},{""cat"":17,""src"":13,""loc"":2},{""cat"":17,""src"":2,""loc"":6},{""cat"":17,""src"":5,""loc"":5}]","4","1101,1101,1101,1102,1101,1102,1101,1102,1102,10000",NA,NA,NA,NA,NA,NA,NA,NA,NA
"4161","flanker_instructions","39","html-keyboard-response","167","1472041","0.0-5.0-1.0","2","2020-1-7 9:52:20","OTTER",NA,NA,NA,NA,NA,NA,NA,NA,NA,NA,NA,NA,NA,NA
"726","flanker_test","37","image-keyboard-response","168","1473769","0.0-5.0-2.0-0.0","2","2020-1-7 9:52:20","OTTER",NA,NA,NA,NA,NA,"incongruent","left","TRUE",NA,NA,NA,NA,NA,NA
"567","flanker_test","39","image-keyboard-response","169","1475369","0.0-5.0-2.0-0.1","2","2020-1-7 9:52:20","OTTER",NA,NA,NA,NA,NA,"congruent","right","TRUE",NA,NA,NA,NA,NA,NA
"633","flanker_test","39","image-keyboard-response","170","1477193","0.0-5.0-2.0-0.2","2","2020-1-7 9:52:20","OTTER",NA,NA,NA,NA,NA,"incongruent","right","TRUE",NA,NA,NA,NA,NA,NA
"642","flanker_test","37","image-keyboard-response","171","1478601","0.0-5.0-2.0-0.3","2","2020-1-7 9:52:20","OTTER",NA,NA,NA,NA,NA,"congruent","left","TRUE",NA,NA,NA,NA,NA,NA
"38652","sort_trial",NA,"free-sort","172","1518383","0.0-5.0-3.0","2","2020-1-7 9:52:20","OTTER",NA,NA,NA,NA,NA,NA,NA,NA,"[{""cat"":27,""src"":13,""x"":1,""y"":260},{""cat"":27,""src"":14,""x"":10,""y"":432},{""cat"":27,""src"":12,""x"":39,""y"":311},{""cat"":4,""src"":4,""x"":38,""y"":386},{""cat"":4,""src"":11,""x"":53,""y"":28},{""cat"":4,""src"":2,""x"":13,""y"":189},{""cat"":17,""src"":13,""x"":71,""y"":60},{""cat"":17,""src"":2,""x"":11,""y"":125},{""cat"":17,""src"":5,""x"":36,""y"":484}]","[{""cat"":""4"",""src"":""2"",""x"":0,""y"":0},{""cat"":""27"",""src"":""13"",""x"":0,""y"":0},{""cat"":""17"",""src"":""2"",""x"":0,""y"":0},{""cat"":""4"",""src"":""11"",""x"":0,""y"":0},{""cat"":""17"",""src"":""13"",""x"":0,""y"":0},{""cat"":""17"",""src"":""5"",""x"":0,""y"":0},{""cat"":""27"",""src"":""14"",""x"":0,""y"":0},{""cat"":""27"",""src"":""12"",""x"":0,""y"":0},{""cat"":""4"",""src"":""4"",""x"":0,""y"":0}]","[{""cat"":4,""src"":2,""loc"":7},{""cat"":27,""src"":13,""loc"":8},{""cat"":17,""src"":2,""loc"":6},{""cat"":4,""src"":11,""loc"":1},{""cat"":17,""src"":13,""loc"":2},{""cat"":17,""src"":5,""loc"":5},{""cat"":27,""src"":14,""loc"":0},{""cat"":27,""src"":12,""loc"":4},{""cat"":4,""src"":4,""loc"":3}]","7","27,4,17,4,27,17,17,4,27,14,11,13,4,12,5,2,2,13,0,1,2,3,4,5,6,7,8,6,3,4,8,7,5,2,0,1",NA
"2440","sort_feedback","13","html-keyboard-response","173","1520824","0.0-5.0-4.0","2","2020-1-7 9:52:20","OTTER",NA,NA,NA,NA,NA,NA,NA,NA,NA,NA,NA,NA,NA,NA
"19913","setup5",NA,"animation","174","1540738","0.0-5.0-5.0","2","2020-1-7 9:52:20","OTTER",NA,NA,"[{""cat"":20,""src"":4,""loc"":0},{""cat"":15,""src"":17,""loc"":6},{""cat"":22,""src"":18,""loc"":3},{""cat"":15,""src"":3,""loc"":1},{""cat"":20,""src"":16,""loc"":5},{""cat"":22,""src"":7,""loc"":8},{""cat"":15,""src"":15,""loc"":4},{""cat"":22,""src"":14,""loc"":2},{""cat"":20,""src"":14,""loc"":7}]","5","1102,1101,1101,1101,1100,1102,1102,1101,1101,10002",NA,NA,NA,NA,NA,NA,NA,NA,NA
"2254","flanker_instructions","39","html-keyboard-response","175","1542993","0.0-5.0-6.0","2","2020-1-7 9:52:20","OTTER",NA,NA,NA,NA,NA,NA,NA,NA,NA,NA,NA,NA,NA,NA
"567","flanker_test","37","image-keyboard-response","176","1544561","0.0-5.0-7.0-0.0","2","2020-1-7 9:52:20","OTTER",NA,NA,NA,NA,NA,"congruent","left","TRUE",NA,NA,NA,NA,NA,NA
"471","flanker_test","39","image-keyboard-response","177","1545369","0.0-5.0-7.0-0.1","2","2020-1-7 9:52:20","OTTER",NA,NA,NA,NA,NA,"congruent","right","TRUE",NA,NA,NA,NA,NA,NA
"462","flanker_test","39","image-keyboard-response","178","1546832","0.0-5.0-7.0-0.2","2","2020-1-7 9:52:20","OTTER",NA,NA,NA,NA,NA,"incongruent","right","TRUE",NA,NA,NA,NA,NA,NA
"626","flanker_test","37","image-keyboard-response","179","1548440","0.0-5.0-7.0-0.3","2","2020-1-7 9:52:20","OTTER",NA,NA,NA,NA,NA,"incongruent","left","TRUE",NA,NA,NA,NA,NA,NA
"38930","sort_trial",NA,"free-sort","180","1587899","0.0-5.0-8.0","2","2020-1-7 9:52:20","OTTER",NA,NA,NA,NA,NA,NA,NA,NA,"[{""cat"":20,""src"":4,""x"":61,""y"":240},{""cat"":15,""src"":17,""x"":5,""y"":425},{""cat"":22,""src"":18,""x"":52,""y"":63},{""cat"":15,""src"":3,""x"":51,""y"":1},{""cat"":20,""src"":16,""x"":14,""y"":311},{""cat"":22,""src"":7,""x"":38,""y"":132},{""cat"":15,""src"":15,""x"":16,""y"":503},{""cat"":22,""src"":14,""x"":3,""y"":208},{""cat"":20,""src"":14,""x"":8,""y"":368}]","[{""cat"":""15"",""src"":""3"",""x"":365,""y"":62},{""cat"":""22"",""src"":""14"",""x"":0,""y"":0},{""cat"":""20"",""src"":""4"",""x"":0,""y"":0},{""cat"":""20"",""src"":""16"",""x"":0,""y"":0},{""cat"":""15"",""src"":""15"",""x"":0,""y"":0},{""cat"":""22"",""src"":""18"",""x"":0,""y"":0},{""cat"":""15"",""src"":""17"",""x"":0,""y"":0},{""cat"":""20"",""src"":""14"",""x"":0,""y"":0},{""cat"":""15"",""src"":""3"",""x"":48,""y"":4},{""cat"":""22"",""src"":""7"",""x"":0,""y"":0},{""cat"":""15"",""src"":""3"",""x"":0,""y"":0}]","[{""cat"":22,""src"":14,""loc"":0},{""cat"":20,""src"":4,""loc"":2},{""cat"":20,""src"":16,""loc"":3},{""cat"":15,""src"":15,""loc"":4},{""cat"":22,""src"":18,""loc"":5},{""cat"":15,""src"":17,""loc"":7},{""cat"":20,""src"":14,""loc"":8},{""cat"":22,""src"":7,""loc"":1},{""cat"":15,""src"":3,""loc"":6}]","1","22,22,20,20,15,22,15,15,20,14,7,4,16,15,18,3,17,14,0,1,2,3,4,5,6,7,8,0,7,1,2,3,4,8,5,6",NA
"6517","sort_feedback","13","html-keyboard-response","181","1594418","0.0-5.0-9.0","2","2020-1-7 9:52:20","OTTER",NA,NA,NA,NA,NA,NA,NA,NA,NA,NA,NA,NA,NA,NA
"19918","setup1",NA,"animation","182","1614336","0.0-5.0-10.0","2","2020-1-7 9:52:20","OTTER",NA,NA,"[{""cat"":10,""src"":17,""loc"":2},{""cat"":10,""src"":2,""loc"":1},{""cat"":10,""src"":9,""loc"":0},{""cat"":8,""src"":11,""loc"":7},{""cat"":8,""src"":18,""loc"":8},{""cat"":8,""src"":16,""loc"":6},{""cat"":6,""src"":2,""loc"":4},{""cat"":6,""src"":5,""loc"":3},{""cat"":6,""src"":19,""loc"":5}]","1","1102,1103,1102,1101,1102,1102,1101,1103,1102,10000",NA,NA,NA,NA,NA,NA,NA,NA,NA
"2169","flanker_instructions","39","html-keyboard-response","183","1616506","0.0-5.0-11.0","2","2020-1-7 9:52:20","OTTER",NA,NA,NA,NA,NA,NA,NA,NA,NA,NA,NA,NA,NA,NA
"879","flanker_test","39","image-keyboard-response","184","1618386","0.0-5.0-12.0-0.0","2","2020-1-7 9:52:20","OTTER",NA,NA,NA,NA,NA,"incongruent","right","TRUE",NA,NA,NA,NA,NA,NA
"487","flanker_test","37","image-keyboard-response","185","1619969","0.0-5.0-12.0-0.1","2","2020-1-7 9:52:20","OTTER",NA,NA,NA,NA,NA,"congruent","left","TRUE",NA,NA,NA,NA,NA,NA
"492","flanker_test","37","image-keyboard-response","186","1621034","0.0-5.0-12.0-0.2","2","2020-1-7 9:52:20","OTTER",NA,NA,NA,NA,NA,"incongruent","left","TRUE",NA,NA,NA,NA,NA,NA
"816","flanker_test","39","image-keyboard-response","187","1622506","0.0-5.0-12.0-0.3","2","2020-1-7 9:52:20","OTTER",NA,NA,NA,NA,NA,"congruent","right","TRUE",NA,NA,NA,NA,NA,NA
"26661","sort_trial",NA,"free-sort","188","1650103","0.0-5.0-13.0","2","2020-1-7 9:52:20","OTTER",NA,NA,NA,NA,NA,NA,NA,NA,"[{""cat"":10,""src"":17,""x"":45,""y"":374},{""cat"":10,""src"":2,""x"":61,""y"":72},{""cat"":10,""src"":9,""x"":36,""y"":486},{""cat"":8,""src"":11,""x"":62,""y"":447},{""cat"":8,""src"":18,""x"":64,""y"":251},{""cat"":8,""src"":16,""x"":74,""y"":300},{""cat"":6,""src"":2,""x"":20,""y"":193},{""cat"":6,""src"":5,""x"":51,""y"":7},{""cat"":6,""src"":19,""x"":11,""y"":138}]","[{""cat"":""6"",""src"":""5"",""x"":0,""y"":0},{""cat"":""6"",""src"":""2"",""x"":0,""y"":0},{""cat"":""6"",""src"":""19"",""x"":0,""y"":0},{""cat"":""10"",""src"":""2"",""x"":0,""y"":0},{""cat"":""10"",""src"":""17"",""x"":0,""y"":0},{""cat"":""10"",""src"":""9"",""x"":0,""y"":0},{""cat"":""8"",""src"":""11"",""x"":0,""y"":0},{""cat"":""8"",""src"":""16"",""x"":0,""y"":0},{""cat"":""8"",""src"":""18"",""x"":0,""y"":0}]","[{""cat"":6,""src"":5,""loc"":3},{""cat"":6,""src"":2,""loc"":4},{""cat"":6,""src"":19,""loc"":5},{""cat"":10,""src"":2,""loc"":1},{""cat"":10,""src"":17,""loc"":2},{""cat"":10,""src"":9,""loc"":0},{""cat"":8,""src"":11,""loc"":7},{""cat"":8,""src"":16,""loc"":6},{""cat"":8,""src"":18,""loc"":8}]","9","10,10,10,6,6,6,8,8,8,9,2,17,5,2,19,16,11,18,0,1,2,3,4,5,6,7,8,5,3,4,0,1,2,7,6,8",NA
"3512","sort_feedback","13","html-keyboard-response","189","1653616","0.0-5.0-14.0","2","2020-1-7 9:52:20","OTTER",NA,NA,NA,NA,NA,NA,NA,NA,NA,NA,NA,NA,NA,NA
"19912","setup2",NA,"animation","190","1673529","0.0-5.0-15.0","2","2020-1-7 9:52:20","OTTER",NA,NA,"[{""cat"":11,""src"":15,""loc"":6},{""cat"":28,""src"":15,""loc"":8},{""cat"":17,""src"":11,""loc"":7},{""cat"":28,""src"":17,""loc"":5},{""cat"":11,""src"":0,""loc"":3},{""cat"":17,""src"":10,""loc"":4},{""cat"":17,""src"":6,""loc"":1},{""cat"":28,""src"":0,""loc"":2},{""cat"":11,""src"":18,""loc"":0}]","2","1102,1101,1100,1102,1101,1102,1101,1101,1101,10001",NA,NA,NA,NA,NA,NA,NA,NA,NA
"1976","flanker_instructions","39","html-keyboard-response","191","1675505","0.0-5.0-16.0","2","2020-1-7 9:52:20","OTTER",NA,NA,NA,NA,NA,NA,NA,NA,NA,NA,NA,NA,NA,NA
"758","flanker_test","39","image-keyboard-response","192","1677265","0.0-5.0-17.0-0.0","2","2020-1-7 9:52:20","OTTER",NA,NA,NA,NA,NA,"incongruent","right","TRUE",NA,NA,NA,NA,NA,NA
"445","flanker_test","39","image-keyboard-response","193","1678889","0.0-5.0-17.0-0.1","2","2020-1-7 9:52:20","OTTER",NA,NA,NA,NA,NA,"congruent","right","TRUE",NA,NA,NA,NA,NA,NA
"585","flanker_test","37","image-keyboard-response","194","1680281","0.0-5.0-17.0-0.2","2","2020-1-7 9:52:20","OTTER",NA,NA,NA,NA,NA,"incongruent","left","TRUE",NA,NA,NA,NA,NA,NA
"492","flanker_test","37","image-keyboard-response","195","1681905","0.0-5.0-17.0-0.3","2","2020-1-7 9:52:20","OTTER",NA,NA,NA,NA,NA,"congruent","left","TRUE",NA,NA,NA,NA,NA,NA
"37691","sort_trial",NA,"free-sort","196","1720032","0.0-5.0-18.0","2","2020-1-7 9:52:20","OTTER",NA,NA,NA,NA,NA,NA,NA,NA,"[{""cat"":11,""src"":15,""x"":8,""y"":370},{""cat"":28,""src"":15,""x"":82,""y"":257},{""cat"":17,""src"":11,""x"":62,""y"":310},{""cat"":28,""src"":17,""x"":19,""y"":128},{""cat"":11,""src"":0,""x"":30,""y"":429},{""cat"":17,""src"":10,""x"":83,""y"":22},{""cat"":17,""src"":6,""x"":34,""y"":180},{""cat"":28,""src"":0,""x"":27,""y"":497},{""cat"":11,""src"":18,""x"":46,""y"":69}]","[{""cat"":""17"",""src"":""10"",""x"":0,""y"":0},{""cat"":""11"",""src"":""0"",""x"":672,""y"":299},{""cat"":""11"",""src"":""0"",""x"":0,""y"":0},{""cat"":""28"",""src"":""17"",""x"":0,""y"":0},{""cat"":""11"",""src"":""18"",""x"":0,""y"":0},{""cat"":""28"",""src"":""15"",""x"":0,""y"":0},{""cat"":""17"",""src"":""6"",""x"":0,""y"":0},{""cat"":""17"",""src"":""11"",""x"":0,""y"":0},{""cat"":""28"",""src"":""0"",""x"":0,""y"":0},{""cat"":""11"",""src"":""15"",""x"":0,""y"":0}]","[{""cat"":17,""src"":10,""loc"":4},{""cat"":11,""src"":0,""loc"":3},{""cat"":28,""src"":17,""loc"":5},{""cat"":11,""src"":18,""loc"":0},{""cat"":28,""src"":15,""loc"":8},{""cat"":17,""src"":6,""loc"":1},{""cat"":17,""src"":11,""loc"":7},{""cat"":28,""src"":0,""loc"":2},{""cat"":11,""src"":15,""loc"":6}]","9","11,17,28,11,17,28,11,17,28,18,6,0,0,10,17,15,11,15,0,1,2,3,4,5,6,7,8,3,5,7,1,0,2,8,6,4",NA
"5201","sort_feedback","13","html-keyboard-response","197","1725234","0.0-5.0-19.0","2","2020-1-7 9:52:20","OTTER",NA,NA,NA,NA,NA,NA,NA,NA,NA,NA,NA,NA,NA,NA
"19916","setup3",NA,"animation","198","1745150","0.0-5.0-20.0","2","2020-1-7 9:52:20","OTTER",NA,NA,"[{""cat"":28,""src"":6,""loc"":8},{""cat"":24,""src"":6,""loc"":0},{""cat"":26,""src"":19,""loc"":3},{""cat"":26,""src"":1,""loc"":5},{""cat"":24,""src"":0,""loc"":2},{""cat"":28,""src"":2,""loc"":6},{""cat"":24,""src"":7,""loc"":1},{""cat"":28,""src"":4,""loc"":7},{""cat"":26,""src"":18,""loc"":4}]","3","1102,1101,1101,1102,1102,1102,1102,1101,1102,10001",NA,NA,NA,NA,NA,NA,NA,NA,NA
"2947","flanker_instructions","39","html-keyboard-response","199","1748098","0.0-5.0-21.0","2","2020-1-7 9:52:20","OTTER",NA,NA,NA,NA,NA,NA,NA,NA,NA,NA,NA,NA,NA,NA
"750","flanker_test","39","image-keyboard-response","200","1749850","0.0-5.0-22.0-0.0","2","2020-1-7 9:52:20","OTTER",NA,NA,NA,NA,NA,"incongruent","right","TRUE",NA,NA,NA,NA,NA,NA
"519","flanker_test","39","image-keyboard-response","201","1751226","0.0-5.0-22.0-0.1","2","2020-1-7 9:52:20","OTTER",NA,NA,NA,NA,NA,"congruent","right","TRUE",NA,NA,NA,NA,NA,NA
"620","flanker_test","37","image-keyboard-response","202","1752874","0.0-5.0-22.0-0.2","2","2020-1-7 9:52:20","OTTER",NA,NA,NA,NA,NA,"incongruent","left","TRUE",NA,NA,NA,NA,NA,NA
"379","flanker_test","37","image-keyboard-response","203","1753857","0.0-5.0-22.0-0.3","2","2020-1-7 9:52:20","OTTER",NA,NA,NA,NA,NA,"congruent","left","TRUE",NA,NA,NA,NA,NA,NA
"27530","sort_trial",NA,"free-sort","204","1781797","0.0-5.0-23.0","2","2020-1-7 9:52:20","OTTER",NA,NA,NA,NA,NA,NA,NA,NA,"[{""cat"":28,""src"":6,""x"":4,""y"":182},{""cat"":24,""src"":6,""x"":55,""y"":27},{""cat"":26,""src"":19,""x"":31,""y"":494},{""cat"":26,""src"":1,""x"":68,""y"":427},{""cat"":24,""src"":0,""x"":28,""y"":361},{""cat"":28,""src"":2,""x"":75,""y"":322},{""cat"":24,""src"":7,""x"":21,""y"":128},{""cat"":28,""src"":4,""x"":80,""y"":255},{""cat"":26,""src"":18,""x"":64,""y"":79}]","[{""cat"":""24"",""src"":""6"",""x"":0,""y"":0},{""cat"":""24"",""src"":""7"",""x"":0,""y"":0},{""cat"":""24"",""src"":""0"",""x"":0,""y"":0},{""cat"":""26"",""src"":""1"",""x"":0,""y"":0},{""cat"":""28"",""src"":""4"",""x"":0,""y"":0},{""cat"":""28"",""src"":""2"",""x"":0,""y"":0},{""cat"":""28"",""src"":""6"",""x"":0,""y"":0},{""cat"":""26"",""src"":""19"",""x"":0,""y"":0},{""cat"":""26"",""src"":""18"",""x"":0,""y"":0}]","[{""cat"":24,""src"":6,""loc"":0},{""cat"":24,""src"":7,""loc"":1},{""cat"":24,""src"":0,""loc"":2},{""cat"":26,""src"":1,""loc"":5},{""cat"":28,""src"":4,""loc"":7},{""cat"":28,""src"":2,""loc"":6},{""cat"":28,""src"":6,""loc"":8},{""cat"":26,""src"":19,""loc"":4},{""cat"":26,""src"":18,""loc"":3}]","7","24,24,24,26,26,26,28,28,28,6,7,0,18,19,1,2,4,6,0,1,2,3,4,5,6,7,8,0,1,2,8,7,3,5,4,6",NA
"4323","sort_feedback","16","html-keyboard-response","205","1786122","0.0-5.0-24.0","2","2020-1-7 9:52:20","OTTER",NA,NA,NA,NA,NA,NA,NA,NA,NA,NA,NA,NA,NA,NA
"19910","setup5",NA,"animation","206","1806033","0.0-5.0-25.0","2","2020-1-7 9:52:20","OTTER",NA,NA,"[{""cat"":25,""src"":10,""loc"":3},{""cat"":10,""src"":9,""loc"":1},{""cat"":31,""src"":19,""loc"":8},{""cat"":10,""src"":16,""loc"":4},{""cat"":31,""src"":12,""loc"":0},{""cat"":25,""src"":18,""loc"":6},{""cat"":25,""src"":17,""loc"":2},{""cat"":10,""src"":12,""loc"":7},{""cat"":31,""src"":6,""loc"":5}]","5","1102,1102,1101,1101,1101,1101,1100,1101,1101,10000",NA,NA,NA,NA,NA,NA,NA,NA,NA
"4928","flanker_instructions","39","html-keyboard-response","207","1810961","0.0-5.0-26.0","2","2020-1-7 9:52:20","OTTER",NA,NA,NA,NA,NA,NA,NA,NA,NA,NA,NA,NA,NA,NA
"670","flanker_test","37","image-keyboard-response","208","1812633","0.0-5.0-27.0-0.0","2","2020-1-7 9:52:20","OTTER",NA,NA,NA,NA,NA,"incongruent","left","TRUE",NA,NA,NA,NA,NA,NA
"382","flanker_test","37","image-keyboard-response","209","1813633","0.0-5.0-27.0-0.1","2","2020-1-7 9:52:20","OTTER",NA,NA,NA,NA,NA,"congruent","left","TRUE",NA,NA,NA,NA,NA,NA
"568","flanker_test","39","image-keyboard-response","210","1814906","0.0-5.0-27.0-0.2","2","2020-1-7 9:52:20","OTTER",NA,NA,NA,NA,NA,"congruent","right","TRUE",NA,NA,NA,NA,NA,NA
"815","flanker_test","39","image-keyboard-response","211","1816858","0.0-5.0-27.0-0.3","2","2020-1-7 9:52:20","OTTER",NA,NA,NA,NA,NA,"incongruent","right","TRUE",NA,NA,NA,NA,NA,NA
"40274","sort_trial",NA,"free-sort","212","1857482","0.0-5.0-28.0","2","2020-1-7 9:52:20","OTTER",NA,NA,NA,NA,NA,NA,NA,NA,"[{""cat"":25,""src"":10,""x"":78,""y"":308},{""cat"":10,""src"":9,""x"":80,""y"":491},{""cat"":31,""src"":19,""x"":26,""y"":86},{""cat"":10,""src"":16,""x"":6,""y"":253},{""cat"":31,""src"":12,""x"":31,""y"":140},{""cat"":25,""src"":18,""x"":56,""y"":204},{""cat"":25,""src"":17,""x"":37,""y"":373},{""cat"":10,""src"":12,""x"":7,""y"":440},{""cat"":31,""src"":6,""x"":63,""y"":23}]","[{""cat"":""31"",""src"":""6"",""x"":0,""y"":0},{""cat"":""10"",""src"":""16"",""x"":0,""y"":0},{""cat"":""25"",""src"":""10"",""x"":0,""y"":0},{""cat"":""25"",""src"":""18"",""x"":0,""y"":0},{""cat"":""10"",""src"":""9"",""x"":0,""y"":0},{""cat"":""10"",""src"":""12"",""x"":0,""y"":0},{""cat"":""31"",""src"":""12"",""x"":0,""y"":0},{""cat"":""25"",""src"":""17"",""x"":0,""y"":0},{""cat"":""31"",""src"":""19"",""x"":0,""y"":0}]","[{""cat"":31,""src"":6,""loc"":5},{""cat"":10,""src"":16,""loc"":4},{""cat"":25,""src"":10,""loc"":3},{""cat"":25,""src"":18,""loc"":6},{""cat"":10,""src"":9,""loc"":1},{""cat"":10,""src"":12,""loc"":0},{""cat"":31,""src"":12,""loc"":2},{""cat"":25,""src"":17,""loc"":7},{""cat"":31,""src"":19,""loc"":8}]","6","10,10,31,25,10,31,25,25,31,12,9,12,10,16,6,18,17,19,0,1,2,3,4,5,6,7,8,5,4,6,2,1,0,3,7,8",NA
"3040","sort_feedback","13","html-keyboard-response","213","1860522","0.0-5.0-29.0","2","2020-1-7 9:52:20","OTTER",NA,NA,NA,NA,NA,NA,NA,NA,NA,NA,NA,NA,NA,NA
"19917","setup4",NA,"animation","214","1880439","0.0-5.0-30.0","2","2020-1-7 9:52:20","OTTER",NA,NA,"[{""cat"":32,""src"":1,""loc"":6},{""cat"":32,""src"":18,""loc"":3},{""cat"":32,""src"":7,""loc"":0},{""cat"":3,""src"":1,""loc"":5},{""cat"":3,""src"":7,""loc"":1},{""cat"":3,""src"":3,""loc"":7},{""cat"":21,""src"":17,""loc"":8},{""cat"":21,""src"":19,""loc"":4},{""cat"":21,""src"":0,""loc"":2}]","4","1101,1101,1101,1102,1101,1102,1103,1102,1102,10002",NA,NA,NA,NA,NA,NA,NA,NA,NA
"1124","flanker_instructions","39","html-keyboard-response","215","1881563","0.0-5.0-31.0","2","2020-1-7 9:52:20","OTTER",NA,NA,NA,NA,NA,NA,NA,NA,NA,NA,NA,NA,NA,NA
"574","flanker_test","37","image-keyboard-response","216","1883138","0.0-5.0-32.0-0.0","2","2020-1-7 9:52:20","OTTER",NA,NA,NA,NA,NA,"congruent","left","TRUE",NA,NA,NA,NA,NA,NA
"569","flanker_test","37","image-keyboard-response","217","1884514","0.0-5.0-32.0-0.1","2","2020-1-7 9:52:20","OTTER",NA,NA,NA,NA,NA,"incongruent","left","TRUE",NA,NA,NA,NA,NA,NA
"382","flanker_test","39","image-keyboard-response","218","1885906","0.0-5.0-32.0-0.2","2","2020-1-7 9:52:20","OTTER",NA,NA,NA,NA,NA,"incongruent","right","TRUE",NA,NA,NA,NA,NA,NA
"241","flanker_test","39","image-keyboard-response","219","1886946","0.0-5.0-32.0-0.3","2","2020-1-7 9:52:20","OTTER",NA,NA,NA,NA,NA,"congruent","right","TRUE",NA,NA,NA,NA,NA,NA
"40184","sort_trial",NA,"free-sort","220","1927960","0.0-5.0-33.0","2","2020-1-7 9:52:20","OTTER",NA,NA,NA,NA,NA,NA,NA,NA,"[{""cat"":32,""src"":1,""x"":10,""y"":420},{""cat"":32,""src"":18,""x"":43,""y"":255},{""cat"":32,""src"":7,""x"":60,""y"":369},{""cat"":3,""src"":1,""x"":4,""y"":200},{""cat"":3,""src"":7,""x"":66,""y"":82},{""cat"":3,""src"":3,""x"":33,""y"":491},{""cat"":21,""src"":17,""x"":69,""y"":8},{""cat"":21,""src"":19,""x"":0,""y"":126},{""cat"":21,""src"":0,""x"":2,""y"":303}]","[{""cat"":""32"",""src"":""7"",""x"":225,""y"":148},{""cat"":""32"",""src"":""7"",""x"":0,""y"":0},{""cat"":""3"",""src"":""1"",""x"":634,""y"":182},{""cat"":""3"",""src"":""1"",""x"":0,""y"":0},{""cat"":""21"",""src"":""19"",""x"":0,""y"":0},{""cat"":""32"",""src"":""18"",""x"":0,""y"":0},{""cat"":""3"",""src"":""7"",""x"":0,""y"":0},{""cat"":""21"",""src"":""17"",""x"":413,""y"":297},{""cat"":""21"",""src"":""17"",""x"":0,""y"":0},{""cat"":""32"",""src"":""1"",""x"":0,""y"":0},{""cat"":""21"",""src"":""0"",""x"":0,""y"":0},{""cat"":""3"",""src"":""3"",""x"":0,""y"":0}]","[{""cat"":32,""src"":7,""loc"":0},{""cat"":3,""src"":1,""loc"":5},{""cat"":21,""src"":19,""loc"":4},{""cat"":32,""src"":18,""loc"":3},{""cat"":3,""src"":7,""loc"":1},{""cat"":21,""src"":17,""loc"":7},{""cat"":32,""src"":1,""loc"":2},{""cat"":21,""src"":0,""loc"":6},{""cat"":3,""src"":3,""loc"":8}]","5","32,3,32,32,21,3,21,21,3,7,7,1,18,19,1,0,17,3,0,1,2,3,4,5,6,7,8,0,4,6,3,2,1,7,5,8",NA
"3106","sort_feedback","13","html-keyboard-response","221","1931066","0.0-5.0-34.0","2","2020-1-7 9:52:20","OTTER",NA,NA,NA,NA,NA,NA,NA,NA,NA,NA,NA,NA,NA,NA
"19912","setup2",NA,"animation","222","1950978","0.0-5.0-35.0","2","2020-1-7 9:52:20","OTTER",NA,NA,"[{""cat"":30,""src"":12,""loc"":7},{""cat"":3,""src"":7,""loc"":8},{""cat"":9,""src"":11,""loc"":6},{""cat"":3,""src"":4,""loc"":3},{""cat"":9,""src"":5,""loc"":4},{""cat"":30,""src"":10,""loc"":5},{""cat"":9,""src"":1,""loc"":2},{""cat"":3,""src"":6,""loc"":0},{""cat"":30,""src"":4,""loc"":1}]","2","1102,1100,1101,1101,1102,1101,1101,1102,1101,10001",NA,NA,NA,NA,NA,NA,NA,NA,NA
"1382","flanker_instructions","39","html-keyboard-response","223","1952361","0.0-5.0-36.0","2","2020-1-7 9:52:20","OTTER",NA,NA,NA,NA,NA,NA,NA,NA,NA,NA,NA,NA,NA,NA
"599","flanker_test","39","image-keyboard-response","224","1953961","0.0-5.0-37.0-0.0","2","2020-1-7 9:52:20","OTTER",NA,NA,NA,NA,NA,"congruent","right","TRUE",NA,NA,NA,NA,NA,NA
"626","flanker_test","37","image-keyboard-response","225","1955375","0.0-5.0-37.0-0.1","2","2020-1-7 9:52:20","OTTER",NA,NA,NA,NA,NA,"incongruent","left","TRUE",NA,NA,NA,NA,NA,NA
"513","flanker_test","39","image-keyboard-response","226","1956457","0.0-5.0-37.0-0.2","2","2020-1-7 9:52:20","OTTER",NA,NA,NA,NA,NA,"incongruent","right","TRUE",NA,NA,NA,NA,NA,NA
"491","flanker_test","37","image-keyboard-response","227","1957745","0.0-5.0-37.0-0.3","2","2020-1-7 9:52:20","OTTER",NA,NA,NA,NA,NA,"congruent","left","TRUE",NA,NA,NA,NA,NA,NA
"28900","sort_trial",NA,"free-sort","228","1986949","0.0-5.0-38.0","2","2020-1-7 9:52:20","OTTER",NA,NA,NA,NA,NA,NA,NA,NA,"[{""cat"":30,""src"":12,""x"":18,""y"":16},{""cat"":3,""src"":7,""x"":28,""y"":267},{""cat"":9,""src"":11,""x"":22,""y"":483},{""cat"":3,""src"":4,""x"":12,""y"":307},{""cat"":9,""src"":5,""x"":9,""y"":86},{""cat"":30,""src"":10,""x"":55,""y"":203},{""cat"":9,""src"":1,""x"":17,""y"":362},{""cat"":3,""src"":6,""x"":45,""y"":143},{""cat"":30,""src"":4,""x"":54,""y"":447}]","[{""cat"":""30"",""src"":""10"",""x"":0,""y"":0},{""cat"":""9"",""src"":""5"",""x"":0,""y"":0},{""cat"":""3"",""src"":""4"",""x"":0,""y"":0},{""cat"":""30"",""src"":""4"",""x"":0,""y"":0},{""cat"":""9"",""src"":""1"",""x"":0,""y"":0},{""cat"":""3"",""src"":""6"",""x"":0,""y"":0},{""cat"":""30"",""src"":""12"",""x"":0,""y"":0},{""cat"":""9"",""src"":""11"",""x"":0,""y"":0},{""cat"":""3"",""src"":""7"",""x"":0,""y"":0}]","[{""cat"":30,""src"":10,""loc"":5},{""cat"":9,""src"":5,""loc"":4},{""cat"":3,""src"":4,""loc"":3},{""cat"":30,""src"":4,""loc"":1},{""cat"":9,""src"":1,""loc"":0},{""cat"":3,""src"":6,""loc"":2},{""cat"":30,""src"":12,""loc"":6},{""cat"":9,""src"":11,""loc"":8},{""cat"":3,""src"":7,""loc"":7}]","4","9,30,3,3,9,30,30,3,9,1,4,6,4,5,10,12,7,11,0,1,2,3,4,5,6,7,8,4,3,5,2,1,0,6,8,7",NA
"2131","sort_feedback","13","html-keyboard-response","229","1989081","0.0-5.0-39.0","2","2020-1-7 9:52:20","OTTER",NA,NA,NA,NA,NA,NA,NA,NA,NA,NA,NA,NA,NA,NA
"19913","setup3",NA,"animation","230","2008996","0.0-5.0-40.0","2","2020-1-7 9:52:20","OTTER",NA,NA,"[{""cat"":5,""src"":15,""loc"":5},{""cat"":24,""src"":17,""loc"":0},{""cat"":2,""src"":6,""loc"":8},{""cat"":2,""src"":16,""loc"":7},{""cat"":5,""src"":4,""loc"":4},{""cat"":24,""src"":7,""loc"":1},{""cat"":2,""src"":10,""loc"":6},{""cat"":5,""src"":5,""loc"":3},{""cat"":24,""src"":10,""loc"":2}]","3","1101,1101,1102,1101,1102,1101,1101,1102,1101,10001",NA,NA,NA,NA,NA,NA,NA,NA,NA
"2630","flanker_instructions","39","html-keyboard-response","231","2011626","0.0-5.0-41.0","2","2020-1-7 9:52:20","OTTER",NA,NA,NA,NA,NA,NA,NA,NA,NA,NA,NA,NA,NA,NA
"558","flanker_test","39","image-keyboard-response","232","2013186","0.0-5.0-42.0-0.0","2","2020-1-7 9:52:20","OTTER",NA,NA,NA,NA,NA,"congruent","right","TRUE",NA,NA,NA,NA,NA,NA
"667","flanker_test","39","image-keyboard-response","233","2014874","0.0-5.0-42.0-0.1","2","2020-1-7 9:52:20","OTTER",NA,NA,NA,NA,NA,"incongruent","right","TRUE",NA,NA,NA,NA,NA,NA
"545","flanker_test","37","image-keyboard-response","234","2016299","0.0-5.0-42.0-0.2","2","2020-1-7 9:52:20","OTTER",NA,NA,NA,NA,NA,"congruent","left","TRUE",NA,NA,NA,NA,NA,NA
"529","flanker_test","37","image-keyboard-response","235","2017634","0.0-5.0-42.0-0.3","2","2020-1-7 9:52:20","OTTER",NA,NA,NA,NA,NA,"incongruent","left","TRUE",NA,NA,NA,NA,NA,NA
"25730","sort_trial",NA,"free-sort","236","2043929","0.0-5.0-43.0","2","2020-1-7 9:52:20","OTTER",NA,NA,NA,NA,NA,NA,NA,NA,"[{""cat"":5,""src"":15,""x"":73,""y"":1},{""cat"":24,""src"":17,""x"":47,""y"":315},{""cat"":2,""src"":6,""x"":76,""y"":254},{""cat"":2,""src"":16,""x"":83,""y"":140},{""cat"":5,""src"":4,""x"":71,""y"":188},{""cat"":24,""src"":7,""x"":16,""y"":508},{""cat"":2,""src"":10,""x"":78,""y"":73},{""cat"":5,""src"":5,""x"":14,""y"":383},{""cat"":24,""src"":10,""x"":68,""y"":419}]","[{""cat"":""5"",""src"":""15"",""x"":0,""y"":0},{""cat"":""5"",""src"":""4"",""x"":0,""y"":0},{""cat"":""5"",""src"":""5"",""x"":0,""y"":0},{""cat"":""24"",""src"":""10"",""x"":0,""y"":0},{""cat"":""24"",""src"":""7"",""x"":0,""y"":0},{""cat"":""24"",""src"":""17"",""x"":0,""y"":0},{""cat"":""2"",""src"":""16"",""x"":0,""y"":0},{""cat"":""2"",""src"":""6"",""x"":0,""y"":0},{""cat"":""2"",""src"":""10"",""x"":0,""y"":0}]","[{""cat"":5,""src"":15,""loc"":5},{""cat"":5,""src"":4,""loc"":3},{""cat"":5,""src"":5,""loc"":4},{""cat"":24,""src"":10,""loc"":2},{""cat"":24,""src"":7,""loc"":1},{""cat"":24,""src"":17,""loc"":0},{""cat"":2,""src"":16,""loc"":7},{""cat"":2,""src"":6,""loc"":6},{""cat"":2,""src"":10,""loc"":8}]","5","24,24,24,5,5,5,2,2,2,17,7,10,4,5,15,6,16,10,0,1,2,3,4,5,6,7,8,5,4,3,1,2,0,7,6,8",NA
"3952","sort_feedback","13","html-keyboard-response","237","2047882","0.0-5.0-44.0","2","2020-1-7 9:52:20","OTTER",NA,NA,NA,NA,NA,NA,NA,NA,NA,NA,NA,NA,NA,NA
"19913","setup1",NA,"animation","238","2067795","0.0-5.0-45.0","2","2020-1-7 9:52:20","OTTER",NA,NA,"[{""cat"":30,""src"":5,""loc"":8},{""cat"":30,""src"":4,""loc"":7},{""cat"":30,""src"":6,""loc"":6},{""cat"":3,""src"":19,""loc"":2},{""cat"":3,""src"":3,""loc"":1},{""cat"":3,""src"":2,""loc"":0},{""cat"":4,""src"":6,""loc"":3},{""cat"":4,""src"":11,""loc"":5},{""cat"":4,""src"":3,""loc"":4}]","1","1102,1101,1101,1103,1101,1101,1101,1101,1101,10001",NA,NA,NA,NA,NA,NA,NA,NA,NA
"1678","flanker_instructions","39","html-keyboard-response","239","2069474","0.0-5.0-46.0","2","2020-1-7 9:52:20","OTTER",NA,NA,NA,NA,NA,NA,NA,NA,NA,NA,NA,NA,NA,NA
"894","flanker_test","37","image-keyboard-response","240","2071370","0.0-5.0-47.0-0.0","2","2020-1-7 9:52:20","OTTER",NA,NA,NA,NA,NA,"incongruent","left","TRUE",NA,NA,NA,NA,NA,NA
"595","flanker_test","39","image-keyboard-response","241","2072386","0.0-5.0-47.0-0.1","2","2020-1-7 9:52:20","OTTER",NA,NA,NA,NA,NA,"incongruent","right","TRUE",NA,NA,NA,NA,NA,NA
"426","flanker_test","39","image-keyboard-response","242","2073866","0.0-5.0-47.0-0.2","2","2020-1-7 9:52:20","OTTER",NA,NA,NA,NA,NA,"congruent","right","TRUE",NA,NA,NA,NA,NA,NA
"488","flanker_test","37","image-keyboard-response","243","2074978","0.0-5.0-47.0-0.3","2","2020-1-7 9:52:20","OTTER",NA,NA,NA,NA,NA,"congruent","left","TRUE",NA,NA,NA,NA,NA,NA
"28323","sort_trial",NA,"free-sort","244","2103654","0.0-5.0-48.0","2","2020-1-7 9:52:20","OTTER",NA,NA,NA,NA,NA,NA,NA,NA,"[{""cat"":30,""src"":5,""x"":14,""y"":74},{""cat"":30,""src"":4,""x"":50,""y"":375},{""cat"":30,""src"":6,""x"":51,""y"":125},{""cat"":3,""src"":19,""x"":27,""y"":497},{""cat"":3,""src"":3,""x"":2,""y"":312},{""cat"":3,""src"":2,""x"":53,""y"":193},{""cat"":4,""src"":6,""x"":2,""y"":248},{""cat"":4,""src"":11,""x"":41,""y"":448},{""cat"":4,""src"":3,""x"":44,""y"":1}]","[{""cat"":""3"",""src"":""2"",""x"":0,""y"":0},{""cat"":""3"",""src"":""3"",""x"":0,""y"":0},{""cat"":""3"",""src"":""19"",""x"":0,""y"":0},{""cat"":""4"",""src"":""11"",""x"":0,""y"":0},{""cat"":""4"",""src"":""3"",""x"":0,""y"":0},{""cat"":""4"",""src"":""6"",""x"":0,""y"":0},{""cat"":""30"",""src"":""5"",""x"":0,""y"":0},{""cat"":""30"",""src"":""4"",""x"":0,""y"":0},{""cat"":""30"",""src"":""6"",""x"":0,""y"":0}]","[{""cat"":3,""src"":2,""loc"":0},{""cat"":3,""src"":3,""loc"":1},{""cat"":3,""src"":19,""loc"":2},{""cat"":4,""src"":11,""loc"":5},{""cat"":4,""src"":3,""loc"":4},{""cat"":4,""src"":6,""loc"":3},{""cat"":30,""src"":5,""loc"":7},{""cat"":30,""src"":4,""loc"":6},{""cat"":30,""src"":6,""loc"":8}]","6","3,3,3,4,4,4,30,30,30,2,3,19,6,3,11,4,5,6,0,1,2,3,4,5,6,7,8,0,1,2,5,4,3,7,6,8",NA
"2027","sort_feedback","13","html-keyboard-response","245","2105682","0.0-5.0-49.0","2","2020-1-7 9:52:20","OTTER",NA,NA,NA,NA,NA,NA,NA,NA,NA,NA,NA,NA,NA,NA
"3811","demographics",NA,"html-button-response","246","2109494","0.0-6.0-0.0","2","2020-1-7 9:52:20","OTTER","0",NA,NA,NA,NA,NA,NA,NA,NA,NA,NA,NA,NA,NA
"24104","workerID",NA,"survey-text","247","2133598","0.0-6.0-1.0","2","2020-1-7 9:52:20","OTTER",NA,NA,NA,NA,NA,NA,NA,NA,NA,NA,NA,NA,NA,"{""Q0"":""A2APG8MSLJ6G2K""}"
"4594","attn_check",NA,"survey-multi-choice","248","2138194","0.0-6.0-2.0","2","2020-1-7 9:52:20","OTTER",NA,NA,NA,NA,NA,NA,NA,NA,NA,NA,NA,NA,NA,"{""Q0"":""OTTER""}"
"5263","age",NA,"survey-text","249","2143458","0.0-6.0-3.0","2","2020-1-7 9:52:20","OTTER",NA,NA,NA,NA,NA,NA,NA,NA,NA,NA,NA,NA,NA,"{""Q0"":""69""}"
"2673","gender",NA,"survey-multi-choice","250","2146132","0.0-6.0-4.0","2","2020-1-7 9:52:20","OTTER",NA,NA,NA,NA,NA,NA,NA,NA,NA,NA,NA,NA,NA,"{""Q0"":""Female""}"
"2360","ethnic",NA,"survey-multi-choice","251","2148494","0.0-6.0-5.0","2","2020-1-7 9:52:20","OTTER",NA,NA,NA,NA,NA,NA,NA,NA,NA,NA,NA,NA,NA,"{""Q0"":""Not Hispanic or Latino""}"
"2283","race",NA,"survey-multi-select","252","2150778","0.0-6.0-6.0","2","2020-1-7 9:52:20","OTTER",NA,NA,NA,NA,NA,NA,NA,NA,NA,NA,NA,NA,NA,"{""Q0"":[""White""]}"
"2519","english",NA,"survey-multi-choice","253","2153298","0.0-6.0-7.0","2","2020-1-7 9:52:20","OTTER",NA,NA,NA,NA,NA,NA,NA,NA,NA,NA,NA,NA,NA,"{""Q0"":""Yes""}"
"3691","understand",NA,"survey-multi-choice","254","2156990","0.0-6.0-8.0","2","2020-1-7 9:52:20","OTTER",NA,NA,NA,NA,NA,NA,NA,NA,NA,NA,NA,NA,NA,"{""Q0"":""No""}"
"42541","strategies",NA,"survey-text","255","2199533","0.0-6.0-9.0","2","2020-1-7 9:52:20","OTTER",NA,NA,NA,NA,NA,NA,NA,NA,NA,NA,NA,NA,NA,"{""Q0"":""Looked at first box to see if they were similar, then scanned the rest. If first box wasn't similar, i tried to remember the second box then guessed at third.""}"
"6760","comments",NA,"survey-text","256","2206294","0.0-6.0-10.0","2","2020-1-7 9:52:20","OTTER",NA,NA,NA,NA,NA,NA,NA,NA,NA,NA,NA,NA,NA,"{""Q0"":""none. thank you.""}"
"2580","study_end",NA,"html-button-response","257","2208874","0.0-7.0","2","2020-1-7 9:52:20","OTTER","0",NA,NA,NA,NA,NA,NA,NA,NA,NA,NA,NA,NA,NA
