"rt","stimulus","key_press","trial_type","trial_index","time_elapsed","internal_node_id","session","startTime","attn_word","button_pressed","view_history","animation_sequence","condition","time_sequence","stim_type","direction","correct","init_locations","moves","final_locations","sort_correct","finalLocations","responses"
"7708","welcome","32","html-keyboard-response","0","7722","0.0-0.0","2","2020-1-7 6:35:7","MOUSE",NA,NA,NA,NA,NA,NA,NA,NA,NA,NA,NA,NA,NA,NA
"22557","consent",NA,"html-button-response","1","30287","0.0-1.0","2","2020-1-7 6:35:7","MOUSE","0",NA,NA,NA,NA,NA,NA,NA,NA,NA,NA,NA,NA,NA
"48397","instructions",NA,"instructions","2","78689","0.0-2.0","2","2020-1-7 6:35:7","MOUSE",NA,"[{""page_index"":0,""viewing_time"":7654},{""page_index"":1,""viewing_time"":5607},{""page_index"":2,""viewing_time"":5450},{""page_index"":3,""viewing_time"":8864},{""page_index"":4,""viewing_time"":5663},{""page_index"":5,""viewing_time"":15158}]",NA,NA,NA,NA,NA,NA,NA,NA,NA,NA,NA,NA
"5250","finalInstructions",NA,"html-button-response","3","83944","0.0-3.0-0.0","2","2020-1-7 6:35:7","MOUSE","0",NA,NA,NA,NA,NA,NA,NA,NA,NA,NA,NA,NA,NA
"19940","setup1",NA,"animation","4","103890","0.0-3.0-1.0","2","2020-1-7 6:35:7","MOUSE",NA,NA,"[{""cat"":9,""src"":13,""loc"":1},{""cat"":9,""src"":16,""loc"":0},{""cat"":9,""src"":10,""loc"":2},{""cat"":17,""src"":10,""loc"":8},{""cat"":17,""src"":4,""loc"":6},{""cat"":17,""src"":9,""loc"":7},{""cat"":22,""src"":4,""loc"":3},{""cat"":22,""src"":6,""loc"":4},{""cat"":22,""src"":0,""loc"":5}]","1","1108,1103,1103,1103,1105,1104,1103,1103,1104,10004",NA,NA,NA,NA,NA,NA,NA,NA,NA
"2670","flanker_instructions","39","html-keyboard-response","5","106564","0.0-3.0-2.0","2","2020-1-7 6:35:7","MOUSE",NA,NA,NA,NA,NA,NA,NA,NA,NA,NA,NA,NA,NA,NA
"726","flanker_test","39","image-keyboard-response","6","108299","0.0-3.0-3.0-0.0","2","2020-1-7 6:35:7","MOUSE",NA,NA,NA,NA,NA,"incongruent","right","TRUE",NA,NA,NA,NA,NA,NA
"698","flanker_test","39","image-keyboard-response","7","109344","0.0-3.0-3.0-0.1","2","2020-1-7 6:35:7","MOUSE",NA,NA,NA,NA,NA,"congruent","right","TRUE",NA,NA,NA,NA,NA,NA
"805","flanker_test","37","image-keyboard-response","8","111341","0.0-3.0-3.0-0.2","2","2020-1-7 6:35:7","MOUSE",NA,NA,NA,NA,NA,"incongruent","left","TRUE",NA,NA,NA,NA,NA,NA
"527","flanker_test","37","image-keyboard-response","9","112276","0.0-3.0-3.0-0.3","2","2020-1-7 6:35:7","MOUSE",NA,NA,NA,NA,NA,"congruent","left","TRUE",NA,NA,NA,NA,NA,NA
"52470","sort_trial",NA,"free-sort","10","165107","0.0-3.0-4.0","2","2020-1-7 6:35:7","MOUSE",NA,NA,NA,NA,NA,NA,NA,NA,"[{""cat"":9,""src"":13,""x"":53,""y"":20},{""cat"":9,""src"":16,""x"":68,""y"":127},{""cat"":9,""src"":10,""x"":66,""y"":434},{""cat"":17,""src"":10,""x"":54,""y"":377},{""cat"":17,""src"":4,""x"":44,""y"":198},{""cat"":17,""src"":9,""x"":51,""y"":483},{""cat"":22,""src"":4,""x"":41,""y"":317},{""cat"":22,""src"":6,""x"":12,""y"":60},{""cat"":22,""src"":0,""x"":46,""y"":259}]","[{""cat"":""9"",""src"":""10"",""x"":0,""y"":0},{""cat"":""9"",""src"":""13"",""x"":0,""y"":0},{""cat"":""9"",""src"":""16"",""x"":0,""y"":0},{""cat"":""22"",""src"":""0"",""x"":0,""y"":0},{""cat"":""22"",""src"":""6"",""x"":0,""y"":0},{""cat"":""22"",""src"":""4"",""x"":0,""y"":0},{""cat"":""17"",""src"":""4"",""x"":0,""y"":0},{""cat"":""17"",""src"":""10"",""x"":0,""y"":0},{""cat"":""17"",""src"":""9"",""x"":0,""y"":0}]","[{""cat"":9,""src"":10,""loc"":2},{""cat"":9,""src"":13,""loc"":1},{""cat"":9,""src"":16,""loc"":0},{""cat"":22,""src"":0,""loc"":5},{""cat"":22,""src"":6,""loc"":3},{""cat"":22,""src"":4,""loc"":4},{""cat"":17,""src"":4,""loc"":6},{""cat"":17,""src"":10,""loc"":8},{""cat"":17,""src"":9,""loc"":7}]","7","9,9,9,22,22,22,17,17,17,16,13,10,6,4,0,4,9,10,0,1,2,3,4,5,6,7,8,2,1,0,4,5,3,6,8,7",NA
"2833","sort_feedback","32","html-keyboard-response","11","167947","0.0-3.0-5.0","2","2020-1-7 6:35:7","MOUSE",NA,NA,NA,NA,NA,NA,NA,NA,NA,NA,NA,NA,NA,NA
"19941","setup3",NA,"animation","12","187891","0.0-3.0-6.0","2","2020-1-7 6:35:7","MOUSE",NA,NA,"[{""cat"":2,""src"":2,""loc"":4},{""cat"":8,""src"":12,""loc"":6},{""cat"":4,""src"":4,""loc"":1},{""cat"":8,""src"":9,""loc"":8},{""cat"":2,""src"":4,""loc"":3},{""cat"":4,""src"":9,""loc"":0},{""cat"":4,""src"":12,""loc"":2},{""cat"":8,""src"":5,""loc"":7},{""cat"":2,""src"":18,""loc"":5}]","3","1107,1104,1103,1103,1103,1106,1105,1104,1103,10003",NA,NA,NA,NA,NA,NA,NA,NA,NA
"1749","flanker_instructions","37","html-keyboard-response","13","189646","0.0-3.0-7.0","2","2020-1-7 6:35:7","MOUSE",NA,NA,NA,NA,NA,NA,NA,NA,NA,NA,NA,NA,NA,NA
"729","flanker_test","39","image-keyboard-response","14","191382","0.0-3.0-8.0-0.0","2","2020-1-7 6:35:7","MOUSE",NA,NA,NA,NA,NA,"congruent","right","TRUE",NA,NA,NA,NA,NA,NA
"722","flanker_test","39","image-keyboard-response","15","192473","0.0-3.0-8.0-0.1","2","2020-1-7 6:35:7","MOUSE",NA,NA,NA,NA,NA,"incongruent","right","TRUE",NA,NA,NA,NA,NA,NA
"615","flanker_test","37","image-keyboard-response","16","193448","0.0-3.0-8.0-0.2","2","2020-1-7 6:35:7","MOUSE",NA,NA,NA,NA,NA,"congruent","left","TRUE",NA,NA,NA,NA,NA,NA
"757","flanker_test","37","image-keyboard-response","17","195088","0.0-3.0-8.0-0.3","2","2020-1-7 6:35:7","MOUSE",NA,NA,NA,NA,NA,"incongruent","left","TRUE",NA,NA,NA,NA,NA,NA
"35254","sort_trial",NA,"free-sort","18","231100","0.0-3.0-9.0","2","2020-1-7 6:35:7","MOUSE",NA,NA,NA,NA,NA,NA,NA,NA,"[{""cat"":2,""src"":2,""x"":17,""y"":441},{""cat"":8,""src"":12,""x"":0,""y"":370},{""cat"":4,""src"":4,""x"":1,""y"":302},{""cat"":8,""src"":9,""x"":62,""y"":205},{""cat"":2,""src"":4,""x"":78,""y"":25},{""cat"":4,""src"":9,""x"":25,""y"":144},{""cat"":4,""src"":12,""x"":24,""y"":241},{""cat"":8,""src"":5,""x"":81,""y"":499},{""cat"":2,""src"":18,""x"":40,""y"":66}]","[{""cat"":""2"",""src"":""18"",""x"":0,""y"":0},{""cat"":""8"",""src"":""12"",""x"":0,""y"":0},{""cat"":""2"",""src"":""2"",""x"":0,""y"":0},{""cat"":""8"",""src"":""5"",""x"":0,""y"":0},{""cat"":""4"",""src"":""4"",""x"":0,""y"":0},{""cat"":""4"",""src"":""9"",""x"":0,""y"":0},{""cat"":""4"",""src"":""12"",""x"":0,""y"":0},{""cat"":""2"",""src"":""4"",""x"":0,""y"":0},{""cat"":""8"",""src"":""9"",""x"":0,""y"":0}]","[{""cat"":2,""src"":18,""loc"":4},{""cat"":8,""src"":12,""loc"":6},{""cat"":2,""src"":2,""loc"":7},{""cat"":8,""src"":5,""loc"":8},{""cat"":4,""src"":4,""loc"":1},{""cat"":4,""src"":9,""loc"":0},{""cat"":4,""src"":12,""loc"":2},{""cat"":2,""src"":4,""loc"":5},{""cat"":8,""src"":9,""loc"":3}]","4","4,4,4,8,2,2,8,2,8,9,4,12,9,18,4,12,2,5,0,1,2,3,4,5,6,7,8,5,4,6,8,0,7,1,2,3",NA
"2853","sort_feedback","32","html-keyboard-response","19","233958","0.0-3.0-10.0","2","2020-1-7 6:35:7","MOUSE",NA,NA,NA,NA,NA,NA,NA,NA,NA,NA,NA,NA,NA,NA
"19940","setup5",NA,"animation","20","253900","0.0-3.0-11.0","2","2020-1-7 6:35:7","MOUSE",NA,NA,"[{""cat"":18,""src"":13,""loc"":3},{""cat"":26,""src"":6,""loc"":6},{""cat"":14,""src"":11,""loc"":0},{""cat"":26,""src"":13,""loc"":1},{""cat"":14,""src"":15,""loc"":4},{""cat"":18,""src"":12,""loc"":8},{""cat"":18,""src"":11,""loc"":2},{""cat"":26,""src"":14,""loc"":5},{""cat"":14,""src"":9,""loc"":7}]","5","1107,1102,1103,1103,1104,1104,1103,1106,1104,10003",NA,NA,NA,NA,NA,NA,NA,NA,NA
"2573","flanker_instructions","37","html-keyboard-response","21","256477","0.0-3.0-12.0","2","2020-1-7 6:35:7","MOUSE",NA,NA,NA,NA,NA,NA,NA,NA,NA,NA,NA,NA,NA,NA
"581","flanker_test","37","image-keyboard-response","22","258064","0.0-3.0-13.0-0.0","2","2020-1-7 6:35:7","MOUSE",NA,NA,NA,NA,NA,"congruent","left","TRUE",NA,NA,NA,NA,NA,NA
"800","flanker_test","37","image-keyboard-response","23","259512","0.0-3.0-13.0-0.1","2","2020-1-7 6:35:7","MOUSE",NA,NA,NA,NA,NA,"incongruent","left","TRUE",NA,NA,NA,NA,NA,NA
"818","flanker_test","39","image-keyboard-response","24","260870","0.0-3.0-13.0-0.2","2","2020-1-7 6:35:7","MOUSE",NA,NA,NA,NA,NA,"incongruent","right","TRUE",NA,NA,NA,NA,NA,NA
"500","flanker_test","39","image-keyboard-response","25","262431","0.0-3.0-13.0-0.3","2","2020-1-7 6:35:7","MOUSE",NA,NA,NA,NA,NA,"congruent","right","TRUE",NA,NA,NA,NA,NA,NA
"35313","sort_trial",NA,"free-sort","26","298356","0.0-3.0-14.0","2","2020-1-7 6:35:7","MOUSE",NA,NA,NA,NA,NA,NA,NA,NA,"[{""cat"":18,""src"":13,""x"":22,""y"":143},{""cat"":26,""src"":6,""x"":50,""y"":498},{""cat"":14,""src"":11,""x"":37,""y"":3},{""cat"":26,""src"":13,""x"":73,""y"":303},{""cat"":14,""src"":15,""x"":81,""y"":65},{""cat"":18,""src"":12,""x"":79,""y"":242},{""cat"":18,""src"":11,""x"":77,""y"":436},{""cat"":26,""src"":14,""x"":17,""y"":181},{""cat"":14,""src"":9,""x"":23,""y"":368}]","[{""cat"":""18"",""src"":""13"",""x"":0,""y"":0},{""cat"":""26"",""src"":""14"",""x"":0,""y"":0},{""cat"":""14"",""src"":""11"",""x"":0,""y"":0},{""cat"":""26"",""src"":""6"",""x"":0,""y"":0},{""cat"":""18"",""src"":""11"",""x"":0,""y"":0},{""cat"":""14"",""src"":""15"",""x"":0,""y"":0},{""cat"":""26"",""src"":""13"",""x"":0,""y"":0},{""cat"":""18"",""src"":""12"",""x"":0,""y"":0},{""cat"":""14"",""src"":""9"",""x"":0,""y"":0}]","[{""cat"":18,""src"":13,""loc"":3},{""cat"":26,""src"":14,""loc"":5},{""cat"":14,""src"":11,""loc"":0},{""cat"":26,""src"":6,""loc"":6},{""cat"":18,""src"":11,""loc"":2},{""cat"":14,""src"":15,""loc"":1},{""cat"":26,""src"":13,""loc"":4},{""cat"":18,""src"":12,""loc"":8},{""cat"":14,""src"":9,""loc"":7}]","7","14,14,18,18,26,26,26,14,18,11,15,11,13,13,14,6,9,12,0,1,2,3,4,5,6,7,8,2,5,4,0,6,1,3,8,7",NA
"2362","sort_feedback","32","html-keyboard-response","27","300723","0.0-3.0-15.0","2","2020-1-7 6:35:7","MOUSE",NA,NA,NA,NA,NA,NA,NA,NA,NA,NA,NA,NA,NA,NA
"19935","setup4",NA,"animation","28","320661","0.0-3.0-16.0","2","2020-1-7 6:35:7","MOUSE",NA,NA,"[{""cat"":32,""src"":12,""loc"":1},{""cat"":32,""src"":5,""loc"":3},{""cat"":32,""src"":8,""loc"":6},{""cat"":27,""src"":0,""loc"":0},{""cat"":27,""src"":12,""loc"":5},{""cat"":27,""src"":9,""loc"":7},{""cat"":19,""src"":12,""loc"":4},{""cat"":19,""src"":0,""loc"":2},{""cat"":19,""src"":9,""loc"":8}]","4","1108,1102,1103,1102,1103,1104,1104,1103,1105,10001",NA,NA,NA,NA,NA,NA,NA,NA,NA
"1883","flanker_instructions","37","html-keyboard-response","29","322548","0.0-3.0-17.0","2","2020-1-7 6:35:7","MOUSE",NA,NA,NA,NA,NA,NA,NA,NA,NA,NA,NA,NA,NA,NA
NA,"flanker_test",NA,"image-keyboard-response","30","324456","0.0-3.0-18.0-0.0","2","2020-1-7 6:35:7","MOUSE",NA,NA,NA,NA,NA,"incongruent","left","FALSE",NA,NA,NA,NA,NA,NA
"631","flanker_test","39","image-keyboard-response","31","325873","0.0-3.0-18.0-0.1","2","2020-1-7 6:35:7","MOUSE",NA,NA,NA,NA,NA,"congruent","right","TRUE",NA,NA,NA,NA,NA,NA
"643","flanker_test","39","image-keyboard-response","32","327289","0.0-3.0-18.0-0.2","2","2020-1-7 6:35:7","MOUSE",NA,NA,NA,NA,NA,"incongruent","right","TRUE",NA,NA,NA,NA,NA,NA
"476","flanker_test","37","image-keyboard-response","33","328447","0.0-3.0-18.0-0.3","2","2020-1-7 6:35:7","MOUSE",NA,NA,NA,NA,NA,"congruent","left","TRUE",NA,NA,NA,NA,NA,NA
"51700","sort_trial",NA,"free-sort","34","380928","0.0-3.0-19.0","2","2020-1-7 6:35:7","MOUSE",NA,NA,NA,NA,NA,NA,NA,NA,"[{""cat"":32,""src"":12,""x"":52,""y"":61},{""cat"":32,""src"":5,""x"":12,""y"":247},{""cat"":32,""src"":8,""x"":20,""y"":364},{""cat"":27,""src"":0,""x"":22,""y"":486},{""cat"":27,""src"":12,""x"":39,""y"":441},{""cat"":27,""src"":9,""x"":56,""y"":181},{""cat"":19,""src"":12,""x"":77,""y"":132},{""cat"":19,""src"":0,""x"":78,""y"":16},{""cat"":19,""src"":9,""x"":24,""y"":328}]","[{""cat"":""27"",""src"":""12"",""x"":0,""y"":0},{""cat"":""27"",""src"":""9"",""x"":0,""y"":0},{""cat"":""32"",""src"":""12"",""x"":0,""y"":0},{""cat"":""32"",""src"":""5"",""x"":0,""y"":0},{""cat"":""19"",""src"":""0"",""x"":0,""y"":0},{""cat"":""32"",""src"":""8"",""x"":0,""y"":0},{""cat"":""27"",""src"":""0"",""x"":0,""y"":0},{""cat"":""19"",""src"":""9"",""x"":0,""y"":0},{""cat"":""19"",""src"":""12"",""x"":0,""y"":0}]","[{""cat"":27,""src"":12,""loc"":5},{""cat"":27,""src"":9,""loc"":7},{""cat"":32,""src"":12,""loc"":1},{""cat"":32,""src"":5,""loc"":8},{""cat"":19,""src"":0,""loc"":2},{""cat"":32,""src"":8,""loc"":6},{""cat"":27,""src"":0,""loc"":3},{""cat"":19,""src"":9,""loc"":4},{""cat"":19,""src"":12,""loc"":0}]","5","19,32,19,27,19,27,32,27,32,12,12,0,0,9,12,8,9,5,0,1,2,3,4,5,6,7,8,8,2,4,6,7,0,5,1,3",NA
"3628","sort_feedback","32","html-keyboard-response","35","384563","0.0-3.0-20.0","2","2020-1-7 6:35:7","MOUSE",NA,NA,NA,NA,NA,NA,NA,NA,NA,NA,NA,NA,NA,NA
"19937","setup2",NA,"animation","36","404502","0.0-3.0-21.0","2","2020-1-7 6:35:7","MOUSE",NA,NA,"[{""cat"":9,""src"":13,""loc"":0},{""cat"":31,""src"":14,""loc"":2},{""cat"":22,""src"":19,""loc"":1},{""cat"":31,""src"":9,""loc"":7},{""cat"":9,""src"":4,""loc"":6},{""cat"":22,""src"":1,""loc"":8},{""cat"":22,""src"":2,""loc"":5},{""cat"":31,""src"":17,""loc"":4},{""cat"":9,""src"":1,""loc"":3}]","2","1104,1104,1105,1102,1103,1104,1103,1104,1104,10004",NA,NA,NA,NA,NA,NA,NA,NA,NA
"1465","flanker_instructions","37","html-keyboard-response","37","405972","0.0-3.0-22.0","2","2020-1-7 6:35:7","MOUSE",NA,NA,NA,NA,NA,NA,NA,NA,NA,NA,NA,NA,NA,NA
"753","flanker_test","39","image-keyboard-response","38","407731","0.0-3.0-23.0-0.0","2","2020-1-7 6:35:7","MOUSE",NA,NA,NA,NA,NA,"incongruent","right","TRUE",NA,NA,NA,NA,NA,NA
"707","flanker_test","37","image-keyboard-response","39","409274","0.0-3.0-23.0-0.1","2","2020-1-7 6:35:7","MOUSE",NA,NA,NA,NA,NA,"congruent","left","TRUE",NA,NA,NA,NA,NA,NA
"561","flanker_test","39","image-keyboard-response","40","410474","0.0-3.0-23.0-0.2","2","2020-1-7 6:35:7","MOUSE",NA,NA,NA,NA,NA,"congruent","right","TRUE",NA,NA,NA,NA,NA,NA
"709","flanker_test","37","image-keyboard-response","41","411512","0.0-3.0-23.0-0.3","2","2020-1-7 6:35:7","MOUSE",NA,NA,NA,NA,NA,"incongruent","left","TRUE",NA,NA,NA,NA,NA,NA
"38666","sort_trial",NA,"free-sort","42","450867","0.0-3.0-24.0","2","2020-1-7 6:35:7","MOUSE",NA,NA,NA,NA,NA,NA,NA,NA,"[{""cat"":9,""src"":13,""x"":62,""y"":251},{""cat"":31,""src"":14,""x"":6,""y"":24},{""cat"":22,""src"":19,""x"":41,""y"":129},{""cat"":31,""src"":9,""x"":10,""y"":64},{""cat"":9,""src"":4,""x"":3,""y"":494},{""cat"":22,""src"":1,""x"":69,""y"":442},{""cat"":22,""src"":2,""x"":79,""y"":327},{""cat"":31,""src"":17,""x"":58,""y"":388},{""cat"":9,""src"":1,""x"":27,""y"":182}]","[{""cat"":""22"",""src"":""19"",""x"":0,""y"":0},{""cat"":""22"",""src"":""1"",""x"":0,""y"":0},{""cat"":""9"",""src"":""4"",""x"":0,""y"":0},{""cat"":""31"",""src"":""9"",""x"":0,""y"":0},{""cat"":""9"",""src"":""1"",""x"":27,""y"":182},{""cat"":""9"",""src"":""13"",""x"":0,""y"":0},{""cat"":""22"",""src"":""2"",""x"":0,""y"":0},{""cat"":""31"",""src"":""17"",""x"":0,""y"":0},{""cat"":""9"",""src"":""1"",""x"":0,""y"":0},{""cat"":""31"",""src"":""14"",""x"":0,""y"":0}]","[{""cat"":22,""src"":19,""loc"":1},{""cat"":22,""src"":1,""loc"":8},{""cat"":9,""src"":4,""loc"":6},{""cat"":31,""src"":9,""loc"":2},{""cat"":9,""src"":13,""loc"":0},{""cat"":22,""src"":2,""loc"":4},{""cat"":31,""src"":17,""loc"":5},{""cat"":9,""src"":1,""loc"":3},{""cat"":31,""src"":14,""loc"":7}]","5","9,22,31,9,22,31,9,31,22,13,19,9,1,2,17,4,14,1,0,1,2,3,4,5,6,7,8,4,0,3,7,5,6,2,8,1",NA
"2332","sort_feedback","32","html-keyboard-response","43","453205","0.0-3.0-25.0","2","2020-1-7 6:35:7","MOUSE",NA,NA,NA,NA,NA,NA,NA,NA,NA,NA,NA,NA,NA,NA
"19941","setup1",NA,"animation","44","473150","0.0-3.0-26.0","2","2020-1-7 6:35:7","MOUSE",NA,NA,"[{""cat"":15,""src"":11,""loc"":7},{""cat"":15,""src"":12,""loc"":6},{""cat"":15,""src"":8,""loc"":8},{""cat"":4,""src"":5,""loc"":3},{""cat"":4,""src"":11,""loc"":4},{""cat"":4,""src"":1,""loc"":5},{""cat"":26,""src"":18,""loc"":0},{""cat"":26,""src"":6,""loc"":2},{""cat"":26,""src"":1,""loc"":1}]","1","1105,1105,1107,1103,1104,1103,1104,1104,1103,10002",NA,NA,NA,NA,NA,NA,NA,NA,NA
"2058","flanker_instructions","39","html-keyboard-response","45","475212","0.0-3.0-27.0","2","2020-1-7 6:35:7","MOUSE",NA,NA,NA,NA,NA,NA,NA,NA,NA,NA,NA,NA,NA,NA
"689","flanker_test","37","image-keyboard-response","46","476906","0.0-3.0-28.0-0.0","2","2020-1-7 6:35:7","MOUSE",NA,NA,NA,NA,NA,"congruent","left","TRUE",NA,NA,NA,NA,NA,NA
"838","flanker_test","37","image-keyboard-response","47","478562","0.0-3.0-28.0-0.1","2","2020-1-7 6:35:7","MOUSE",NA,NA,NA,NA,NA,"incongruent","left","TRUE",NA,NA,NA,NA,NA,NA
"585","flanker_test","39","image-keyboard-response","48","480136","0.0-3.0-28.0-0.2","2","2020-1-7 6:35:7","MOUSE",NA,NA,NA,NA,NA,"congruent","right","TRUE",NA,NA,NA,NA,NA,NA
"659","flanker_test","39","image-keyboard-response","49","481562","0.0-3.0-28.0-0.3","2","2020-1-7 6:35:7","MOUSE",NA,NA,NA,NA,NA,"incongruent","right","TRUE",NA,NA,NA,NA,NA,NA
"24687","sort_trial",NA,"free-sort","50","506783","0.0-3.0-29.0","2","2020-1-7 6:35:7","MOUSE",NA,NA,NA,NA,NA,NA,NA,NA,"[{""cat"":15,""src"":11,""x"":71,""y"":84},{""cat"":15,""src"":12,""x"":25,""y"":430},{""cat"":15,""src"":8,""x"":69,""y"":199},{""cat"":4,""src"":5,""x"":6,""y"":367},{""cat"":4,""src"":11,""x"":63,""y"":133},{""cat"":4,""src"":1,""x"":72,""y"":11},{""cat"":26,""src"":18,""x"":40,""y"":309},{""cat"":26,""src"":6,""x"":29,""y"":480},{""cat"":26,""src"":1,""x"":21,""y"":262}]","[{""cat"":""4"",""src"":""1"",""x"":0,""y"":0},{""cat"":""4"",""src"":""11"",""x"":0,""y"":0},{""cat"":""4"",""src"":""5"",""x"":0,""y"":0},{""cat"":""26"",""src"":""6"",""x"":0,""y"":0},{""cat"":""15"",""src"":""11"",""x"":0,""y"":0},{""cat"":""15"",""src"":""12"",""x"":0,""y"":0},{""cat"":""15"",""src"":""8"",""x"":0,""y"":0},{""cat"":""26"",""src"":""18"",""x"":0,""y"":0},{""cat"":""26"",""src"":""1"",""x"":0,""y"":0}]","[{""cat"":4,""src"":1,""loc"":5},{""cat"":4,""src"":11,""loc"":4},{""cat"":4,""src"":5,""loc"":3},{""cat"":26,""src"":6,""loc"":2},{""cat"":15,""src"":11,""loc"":7},{""cat"":15,""src"":12,""loc"":6},{""cat"":15,""src"":8,""loc"":8},{""cat"":26,""src"":18,""loc"":0},{""cat"":26,""src"":1,""loc"":1}]","9","26,26,26,4,4,4,15,15,15,18,1,6,5,11,1,12,11,8,0,1,2,3,4,5,6,7,8,7,8,3,2,1,0,5,4,6",NA
"1695","sort_feedback","32","html-keyboard-response","51","508485","0.0-3.0-30.0","2","2020-1-7 6:35:7","MOUSE",NA,NA,NA,NA,NA,NA,NA,NA,NA,NA,NA,NA,NA,NA
"19936","setup5",NA,"animation","52","528426","0.0-3.0-31.0","2","2020-1-7 6:35:7","MOUSE",NA,NA,"[{""cat"":4,""src"":6,""loc"":4},{""cat"":23,""src"":9,""loc"":2},{""cat"":29,""src"":14,""loc"":6},{""cat"":29,""src"":19,""loc"":1},{""cat"":4,""src"":14,""loc"":7},{""cat"":23,""src"":15,""loc"":5},{""cat"":29,""src"":15,""loc"":3},{""cat"":4,""src"":1,""loc"":0},{""cat"":23,""src"":11,""loc"":8}]","5","1108,1103,1104,1103,1104,1103,1103,1103,1103,10002",NA,NA,NA,NA,NA,NA,NA,NA,NA
"2169","flanker_instructions","39","html-keyboard-response","53","530599","0.0-3.0-32.0","2","2020-1-7 6:35:7","MOUSE",NA,NA,NA,NA,NA,NA,NA,NA,NA,NA,NA,NA,NA,NA
"710","flanker_test","39","image-keyboard-response","54","532314","0.0-3.0-33.0-0.0","2","2020-1-7 6:35:7","MOUSE",NA,NA,NA,NA,NA,"congruent","right","TRUE",NA,NA,NA,NA,NA,NA
"653","flanker_test","39","image-keyboard-response","55","533591","0.0-3.0-33.0-0.1","2","2020-1-7 6:35:7","MOUSE",NA,NA,NA,NA,NA,"incongruent","right","TRUE",NA,NA,NA,NA,NA,NA
"761","flanker_test","37","image-keyboard-response","56","534927","0.0-3.0-33.0-0.2","2","2020-1-7 6:35:7","MOUSE",NA,NA,NA,NA,NA,"congruent","left","TRUE",NA,NA,NA,NA,NA,NA
NA,"flanker_test",NA,"image-keyboard-response","57","536196","0.0-3.0-33.0-0.3","2","2020-1-7 6:35:7","MOUSE",NA,NA,NA,NA,NA,"incongruent","left","FALSE",NA,NA,NA,NA,NA,NA
"54746","sort_trial",NA,"free-sort","58","592048","0.0-3.0-34.0","2","2020-1-7 6:35:7","MOUSE",NA,NA,NA,NA,NA,NA,NA,NA,"[{""cat"":4,""src"":6,""x"":32,""y"":501},{""cat"":23,""src"":9,""x"":41,""y"":422},{""cat"":29,""src"":14,""x"":42,""y"":64},{""cat"":29,""src"":19,""x"":59,""y"":19},{""cat"":4,""src"":14,""x"":19,""y"":144},{""cat"":23,""src"":15,""x"":25,""y"":375},{""cat"":29,""src"":15,""x"":31,""y"":204},{""cat"":4,""src"":1,""x"":34,""y"":315},{""cat"":23,""src"":11,""x"":15,""y"":260}]","[{""cat"":""23"",""src"":""15"",""x"":0,""y"":0},{""cat"":""23"",""src"":""9"",""x"":41,""y"":422},{""cat"":""29"",""src"":""15"",""x"":31,""y"":204},{""cat"":""4"",""src"":""14"",""x"":0,""y"":0},{""cat"":""23"",""src"":""11"",""x"":18,""y"":260},{""cat"":""29"",""src"":""19"",""x"":39,""y"":124},{""cat"":""23"",""src"":""11"",""x"":0,""y"":0},{""cat"":""4"",""src"":""1"",""x"":0,""y"":0},{""cat"":""29"",""src"":""14"",""x"":0,""y"":0},{""cat"":""29"",""src"":""15"",""x"":0,""y"":0},{""cat"":""23"",""src"":""9"",""x"":0,""y"":0},{""cat"":""29"",""src"":""19"",""x"":440,""y"":39},{""cat"":""4"",""src"":""6"",""x"":0,""y"":0},{""cat"":""29"",""src"":""19"",""x"":0,""y"":0}]","[{""cat"":23,""src"":15,""loc"":5},{""cat"":4,""src"":14,""loc"":7},{""cat"":23,""src"":11,""loc"":2},{""cat"":4,""src"":1,""loc"":0},{""cat"":29,""src"":14,""loc"":8},{""cat"":29,""src"":15,""loc"":3},{""cat"":23,""src"":9,""loc"":6},{""cat"":4,""src"":6,""loc"":4},{""cat"":29,""src"":19,""loc"":1}]","6","4,29,23,29,4,23,23,4,29,1,19,11,15,6,15,9,14,14,0,1,2,3,4,5,6,7,8,3,8,2,5,7,0,6,1,4",NA
"50354","sort_feedback","32","html-keyboard-response","59","642407","0.0-3.0-35.0","2","2020-1-7 6:35:7","MOUSE",NA,NA,NA,NA,NA,NA,NA,NA,NA,NA,NA,NA,NA,NA
"19934","setup3",NA,"animation","60","662344","0.0-3.0-36.0","2","2020-1-7 6:35:7","MOUSE",NA,NA,"[{""cat"":6,""src"":8,""loc"":7},{""cat"":5,""src"":16,""loc"":0},{""cat"":18,""src"":19,""loc"":4},{""cat"":5,""src"":12,""loc"":1},{""cat"":6,""src"":1,""loc"":8},{""cat"":18,""src"":10,""loc"":5},{""cat"":5,""src"":7,""loc"":2},{""cat"":6,""src"":12,""loc"":6},{""cat"":18,""src"":12,""loc"":3}]","3","1106,1103,1104,1103,1102,1103,1104,1103,1105,10000",NA,NA,NA,NA,NA,NA,NA,NA,NA
"2261","flanker_instructions","37","html-keyboard-response","61","664609","0.0-3.0-37.0","2","2020-1-7 6:35:7","MOUSE",NA,NA,NA,NA,NA,NA,NA,NA,NA,NA,NA,NA,NA,NA
"759","flanker_test","37","image-keyboard-response","62","666373","0.0-3.0-38.0-0.0","2","2020-1-7 6:35:7","MOUSE",NA,NA,NA,NA,NA,"incongruent","left","TRUE",NA,NA,NA,NA,NA,NA
"490","flanker_test","37","image-keyboard-response","63","667377","0.0-3.0-38.0-0.1","2","2020-1-7 6:35:7","MOUSE",NA,NA,NA,NA,NA,"congruent","left","TRUE",NA,NA,NA,NA,NA,NA
"642","flanker_test","39","image-keyboard-response","64","669197","0.0-3.0-38.0-0.2","2","2020-1-7 6:35:7","MOUSE",NA,NA,NA,NA,NA,"congruent","right","TRUE",NA,NA,NA,NA,NA,NA
"619","flanker_test","39","image-keyboard-response","65","670658","0.0-3.0-38.0-0.3","2","2020-1-7 6:35:7","MOUSE",NA,NA,NA,NA,NA,"incongruent","right","TRUE",NA,NA,NA,NA,NA,NA
"45629","sort_trial",NA,"free-sort","66","716799","0.0-3.0-39.0","2","2020-1-7 6:35:7","MOUSE",NA,NA,NA,NA,NA,NA,NA,NA,"[{""cat"":6,""src"":8,""x"":32,""y"":67},{""cat"":5,""src"":16,""x"":39,""y"":439},{""cat"":18,""src"":19,""x"":76,""y"":498},{""cat"":5,""src"":12,""x"":19,""y"":148},{""cat"":6,""src"":1,""x"":34,""y"":316},{""cat"":18,""src"":10,""x"":14,""y"":182},{""cat"":5,""src"":7,""x"":10,""y"":363},{""cat"":6,""src"":12,""x"":2,""y"":252},{""cat"":18,""src"":12,""x"":16,""y"":23}]","[{""cat"":""6"",""src"":""1"",""x"":0,""y"":0},{""cat"":""18"",""src"":""12"",""x"":0,""y"":0},{""cat"":""18"",""src"":""10"",""x"":0,""y"":0},{""cat"":""18"",""src"":""19"",""x"":0,""y"":0},{""cat"":""6"",""src"":""8"",""x"":0,""y"":0},{""cat"":""5"",""src"":""16"",""x"":0,""y"":0},{""cat"":""6"",""src"":""12"",""x"":0,""y"":0},{""cat"":""5"",""src"":""7"",""x"":0,""y"":0},{""cat"":""5"",""src"":""12"",""x"":0,""y"":0}]","[{""cat"":6,""src"":1,""loc"":8},{""cat"":18,""src"":12,""loc"":3},{""cat"":18,""src"":10,""loc"":5},{""cat"":18,""src"":19,""loc"":4},{""cat"":6,""src"":8,""loc"":0},{""cat"":5,""src"":16,""loc"":2},{""cat"":6,""src"":12,""loc"":6},{""cat"":5,""src"":7,""loc"":7},{""cat"":5,""src"":12,""loc"":1}]","6","6,5,5,18,18,18,6,5,6,8,12,16,12,19,10,12,7,1,0,1,2,3,4,5,6,7,8,4,8,5,1,3,2,6,7,0",NA
"1885","sort_feedback","32","html-keyboard-response","67","718691","0.0-3.0-40.0","2","2020-1-7 6:35:7","MOUSE",NA,NA,NA,NA,NA,NA,NA,NA,NA,NA,NA,NA,NA,NA
"19938","setup4",NA,"animation","68","738630","0.0-3.0-41.0","2","2020-1-7 6:35:7","MOUSE",NA,NA,"[{""cat"":1,""src"":7,""loc"":2},{""cat"":1,""src"":15,""loc"":3},{""cat"":1,""src"":12,""loc"":8},{""cat"":21,""src"":2,""loc"":6},{""cat"":21,""src"":6,""loc"":5},{""cat"":21,""src"":17,""loc"":0},{""cat"":16,""src"":17,""loc"":1},{""cat"":16,""src"":5,""loc"":4},{""cat"":16,""src"":11,""loc"":7}]","4","1106,1104,1104,1102,1103,1104,1104,1105,1103,10003",NA,NA,NA,NA,NA,NA,NA,NA,NA
"1547","flanker_instructions","37","html-keyboard-response","69","740181","0.0-3.0-42.0","2","2020-1-7 6:35:7","MOUSE",NA,NA,NA,NA,NA,NA,NA,NA,NA,NA,NA,NA,NA,NA
"821","flanker_test","39","image-keyboard-response","70","742007","0.0-3.0-43.0-0.0","2","2020-1-7 6:35:7","MOUSE",NA,NA,NA,NA,NA,"incongruent","right","TRUE",NA,NA,NA,NA,NA,NA
"551","flanker_test","39","image-keyboard-response","71","743673","0.0-3.0-43.0-0.1","2","2020-1-7 6:35:7","MOUSE",NA,NA,NA,NA,NA,"congruent","right","TRUE",NA,NA,NA,NA,NA,NA
"635","flanker_test","37","image-keyboard-response","72","744643","0.0-3.0-43.0-0.2","2","2020-1-7 6:35:7","MOUSE",NA,NA,NA,NA,NA,"congruent","left","TRUE",NA,NA,NA,NA,NA,NA
"661","flanker_test","37","image-keyboard-response","73","745749","0.0-3.0-43.0-0.3","2","2020-1-7 6:35:7","MOUSE",NA,NA,NA,NA,NA,"incongruent","left","TRUE",NA,NA,NA,NA,NA,NA
"40628","sort_trial",NA,"free-sort","74","787530","0.0-3.0-44.0","2","2020-1-7 6:35:7","MOUSE",NA,NA,NA,NA,NA,NA,NA,NA,"[{""cat"":1,""src"":7,""x"":82,""y"":261},{""cat"":1,""src"":15,""x"":20,""y"":73},{""cat"":1,""src"":12,""x"":0,""y"":446},{""cat"":21,""src"":2,""x"":68,""y"":9},{""cat"":21,""src"":6,""x"":59,""y"":144},{""cat"":21,""src"":17,""x"":59,""y"":369},{""cat"":16,""src"":17,""x"":12,""y"":300},{""cat"":16,""src"":5,""x"":22,""y"":496},{""cat"":16,""src"":11,""x"":24,""y"":208}]","[{""cat"":""1"",""src"":""12"",""x"":0,""y"":0},{""cat"":""1"",""src"":""7"",""x"":82,""y"":261},{""cat"":""1"",""src"":""15"",""x"":0,""y"":0},{""cat"":""1"",""src"":""7"",""x"":0,""y"":0},{""cat"":""16"",""src"":""5"",""x"":0,""y"":0},{""cat"":""21"",""src"":""2"",""x"":0,""y"":0},{""cat"":""16"",""src"":""17"",""x"":0,""y"":0},{""cat"":""16"",""src"":""11"",""x"":0,""y"":0},{""cat"":""21"",""src"":""17"",""x"":0,""y"":0},{""cat"":""21"",""src"":""6"",""x"":0,""y"":0}]","[{""cat"":1,""src"":12,""loc"":8},{""cat"":1,""src"":15,""loc"":3},{""cat"":1,""src"":7,""loc"":2},{""cat"":16,""src"":5,""loc"":4},{""cat"":21,""src"":2,""loc"":6},{""cat"":16,""src"":17,""loc"":1},{""cat"":16,""src"":11,""loc"":7},{""cat"":21,""src"":17,""loc"":5},{""cat"":21,""src"":6,""loc"":0}]","7","21,16,1,1,16,21,21,16,1,6,17,7,15,5,17,2,11,12,0,1,2,3,4,5,6,7,8,8,5,2,1,3,7,4,6,0",NA
"4869","sort_feedback","32","html-keyboard-response","75","792404","0.0-3.0-45.0","2","2020-1-7 6:35:7","MOUSE",NA,NA,NA,NA,NA,NA,NA,NA,NA,NA,NA,NA,NA,NA
"19934","setup2",NA,"animation","76","812339","0.0-3.0-46.0","2","2020-1-7 6:35:7","MOUSE",NA,NA,"[{""cat"":0,""src"":16,""loc"":8},{""cat"":14,""src"":13,""loc"":6},{""cat"":16,""src"":10,""loc"":7},{""cat"":14,""src"":9,""loc"":3},{""cat"":0,""src"":11,""loc"":5},{""cat"":16,""src"":15,""loc"":4},{""cat"":0,""src"":9,""loc"":1},{""cat"":14,""src"":17,""loc"":0},{""cat"":16,""src"":14,""loc"":2}]","2","1106,1103,1103,1103,1102,1104,1104,1103,1104,10002",NA,NA,NA,NA,NA,NA,NA,NA,NA
"1780","flanker_instructions","37","html-keyboard-response","77","814123","0.0-3.0-47.0","2","2020-1-7 6:35:7","MOUSE",NA,NA,NA,NA,NA,NA,NA,NA,NA,NA,NA,NA,NA,NA
"897","flanker_test","39","image-keyboard-response","78","816024","0.0-3.0-48.0-0.0","2","2020-1-7 6:35:7","MOUSE",NA,NA,NA,NA,NA,"congruent","right","TRUE",NA,NA,NA,NA,NA,NA
"676","flanker_test","39","image-keyboard-response","79","817318","0.0-3.0-48.0-0.1","2","2020-1-7 6:35:7","MOUSE",NA,NA,NA,NA,NA,"incongruent","right","TRUE",NA,NA,NA,NA,NA,NA
"659","flanker_test","37","image-keyboard-response","80","818752","0.0-3.0-48.0-0.2","2","2020-1-7 6:35:7","MOUSE",NA,NA,NA,NA,NA,"incongruent","left","TRUE",NA,NA,NA,NA,NA,NA
"502","flanker_test","37","image-keyboard-response","81","819672","0.0-3.0-48.0-0.3","2","2020-1-7 6:35:7","MOUSE",NA,NA,NA,NA,NA,"congruent","left","TRUE",NA,NA,NA,NA,NA,NA
"30368","sort_trial",NA,"free-sort","82","851145","0.0-3.0-49.0","2","2020-1-7 6:35:7","MOUSE",NA,NA,NA,NA,NA,NA,NA,NA,"[{""cat"":0,""src"":16,""x"":82,""y"":447},{""cat"":14,""src"":13,""x"":81,""y"":251},{""cat"":16,""src"":10,""x"":34,""y"":18},{""cat"":14,""src"":9,""x"":1,""y"":143},{""cat"":0,""src"":11,""x"":29,""y"":487},{""cat"":16,""src"":15,""x"":44,""y"":321},{""cat"":0,""src"":9,""x"":26,""y"":63},{""cat"":14,""src"":17,""x"":67,""y"":188},{""cat"":16,""src"":14,""x"":78,""y"":364}]","[{""cat"":""0"",""src"":""9"",""x"":0,""y"":0},{""cat"":""14"",""src"":""17"",""x"":0,""y"":0},{""cat"":""16"",""src"":""10"",""x"":0,""y"":0},{""cat"":""0"",""src"":""11"",""x"":0,""y"":0},{""cat"":""0"",""src"":""16"",""x"":0,""y"":0},{""cat"":""16"",""src"":""14"",""x"":0,""y"":0},{""cat"":""14"",""src"":""13"",""x"":0,""y"":0},{""cat"":""16"",""src"":""15"",""x"":0,""y"":0},{""cat"":""14"",""src"":""9"",""x"":0,""y"":0}]","[{""cat"":0,""src"":9,""loc"":1},{""cat"":14,""src"":17,""loc"":0},{""cat"":16,""src"":10,""loc"":2},{""cat"":0,""src"":11,""loc"":5},{""cat"":0,""src"":16,""loc"":4},{""cat"":16,""src"":14,""loc"":3},{""cat"":14,""src"":13,""loc"":6},{""cat"":16,""src"":15,""loc"":8},{""cat"":14,""src"":9,""loc"":7}]","4","14,0,16,16,0,0,14,14,16,17,9,10,14,16,11,13,9,15,0,1,2,3,4,5,6,7,8,1,0,2,5,4,3,6,8,7",NA
"3045","sort_feedback","32","html-keyboard-response","83","854194","0.0-3.0-50.0","2","2020-1-7 6:35:7","MOUSE",NA,NA,NA,NA,NA,NA,NA,NA,NA,NA,NA,NA,NA,NA
"19960","setup4",NA,"animation","84","874155","0.0-3.0-51.0","2","2020-1-7 6:35:7","MOUSE",NA,NA,"[{""cat"":29,""src"":11,""loc"":0},{""cat"":29,""src"":0,""loc"":7},{""cat"":29,""src"":14,""loc"":5},{""cat"":22,""src"":18,""loc"":3},{""cat"":22,""src"":15,""loc"":1},{""cat"":22,""src"":13,""loc"":8},{""cat"":6,""src"":13,""loc"":4},{""cat"":6,""src"":16,""loc"":2},{""cat"":6,""src"":17,""loc"":6}]","4","1105,1104,1105,1104,1105,1105,1116,1105,1104,10007",NA,NA,NA,NA,NA,NA,NA,NA,NA
"1690","flanker_instructions","37","html-keyboard-response","85","875850","0.0-3.0-52.0","2","2020-1-7 6:35:7","MOUSE",NA,NA,NA,NA,NA,NA,NA,NA,NA,NA,NA,NA,NA,NA
"714","flanker_test","37","image-keyboard-response","86","877568","0.0-3.0-53.0-0.0","2","2020-1-7 6:35:7","MOUSE",NA,NA,NA,NA,NA,"incongruent","left","TRUE",NA,NA,NA,NA,NA,NA
"669","flanker_test","39","image-keyboard-response","87","879243","0.0-3.0-53.0-0.1","2","2020-1-7 6:35:7","MOUSE",NA,NA,NA,NA,NA,"incongruent","right","TRUE",NA,NA,NA,NA,NA,NA
"500","flanker_test","39","image-keyboard-response","88","880428","0.0-3.0-53.0-0.2","2","2020-1-7 6:35:7","MOUSE",NA,NA,NA,NA,NA,"congruent","right","TRUE",NA,NA,NA,NA,NA,NA
"580","flanker_test","37","image-keyboard-response","89","882183","0.0-3.0-53.0-0.3","2","2020-1-7 6:35:7","MOUSE",NA,NA,NA,NA,NA,"congruent","left","TRUE",NA,NA,NA,NA,NA,NA
"33220","sort_trial",NA,"free-sort","90","915892","0.0-3.0-54.0","2","2020-1-7 6:35:7","MOUSE",NA,NA,NA,NA,NA,NA,NA,NA,"[{""cat"":29,""src"":11,""x"":12,""y"":252},{""cat"":29,""src"":0,""x"":38,""y"":490},{""cat"":29,""src"":14,""x"":82,""y"":84},{""cat"":22,""src"":18,""x"":67,""y"":316},{""cat"":22,""src"":15,""x"":48,""y"":446},{""cat"":22,""src"":13,""x"":28,""y"":184},{""cat"":6,""src"":13,""x"":1,""y"":377},{""cat"":6,""src"":16,""x"":45,""y"":142},{""cat"":6,""src"":17,""x"":25,""y"":28}]","[{""cat"":""29"",""src"":""14"",""x"":0,""y"":0},{""cat"":""6"",""src"":""17"",""x"":0,""y"":0},{""cat"":""6"",""src"":""13"",""x"":0,""y"":0},{""cat"":""22"",""src"":""18"",""x"":0,""y"":0},{""cat"":""22"",""src"":""13"",""x"":0,""y"":0},{""cat"":""6"",""src"":""16"",""x"":0,""y"":0},{""cat"":""29"",""src"":""11"",""x"":0,""y"":0},{""cat"":""22"",""src"":""15"",""x"":0,""y"":0},{""cat"":""29"",""src"":""0"",""x"":0,""y"":0}]","[{""cat"":29,""src"":14,""loc"":5},{""cat"":6,""src"":17,""loc"":6},{""cat"":6,""src"":13,""loc"":4},{""cat"":22,""src"":18,""loc"":3},{""cat"":22,""src"":13,""loc"":8},{""cat"":6,""src"":16,""loc"":2},{""cat"":29,""src"":11,""loc"":0},{""cat"":22,""src"":15,""loc"":1},{""cat"":29,""src"":0,""loc"":7}]","9","29,22,6,22,6,29,6,29,22,11,15,16,18,13,14,17,0,13,0,1,2,3,4,5,6,7,8,6,7,5,3,2,0,1,8,4",NA
"2160","sort_feedback","32","html-keyboard-response","91","918057","0.0-3.0-55.0","2","2020-1-7 6:35:7","MOUSE",NA,NA,NA,NA,NA,NA,NA,NA,NA,NA,NA,NA,NA,NA
"19939","setup5",NA,"animation","92","937998","0.0-3.0-56.0","2","2020-1-7 6:35:7","MOUSE",NA,NA,"[{""cat"":23,""src"":3,""loc"":4},{""cat"":8,""src"":12,""loc"":6},{""cat"":9,""src"":3,""loc"":0},{""cat"":8,""src"":16,""loc"":1},{""cat"":23,""src"":12,""loc"":8},{""cat"":9,""src"":10,""loc"":5},{""cat"":23,""src"":2,""loc"":2},{""cat"":9,""src"":1,""loc"":7},{""cat"":8,""src"":17,""loc"":3}]","5","1107,1103,1103,1104,1104,1105,1104,1104,1103,10002",NA,NA,NA,NA,NA,NA,NA,NA,NA
"1502","flanker_instructions","37","html-keyboard-response","93","939504","0.0-3.0-57.0","2","2020-1-7 6:35:7","MOUSE",NA,NA,NA,NA,NA,NA,NA,NA,NA,NA,NA,NA,NA,NA
"739","flanker_test","39","image-keyboard-response","94","941251","0.0-3.0-58.0-0.0","2","2020-1-7 6:35:7","MOUSE",NA,NA,NA,NA,NA,"congruent","right","TRUE",NA,NA,NA,NA,NA,NA
"598","flanker_test","37","image-keyboard-response","95","942158","0.0-3.0-58.0-0.1","2","2020-1-7 6:35:7","MOUSE",NA,NA,NA,NA,NA,"congruent","left","TRUE",NA,NA,NA,NA,NA,NA
"656","flanker_test","39","image-keyboard-response","96","943506","0.0-3.0-58.0-0.2","2","2020-1-7 6:35:7","MOUSE",NA,NA,NA,NA,NA,"incongruent","right","TRUE",NA,NA,NA,NA,NA,NA
"668","flanker_test","37","image-keyboard-response","97","944913","0.0-3.0-58.0-0.3","2","2020-1-7 6:35:7","MOUSE",NA,NA,NA,NA,NA,"incongruent","left","TRUE",NA,NA,NA,NA,NA,NA
"36367","sort_trial",NA,"free-sort","98","981656","0.0-3.0-59.0","2","2020-1-7 6:35:7","MOUSE",NA,NA,NA,NA,NA,NA,NA,NA,"[{""cat"":23,""src"":3,""x"":55,""y"":388},{""cat"":8,""src"":12,""x"":12,""y"":23},{""cat"":9,""src"":3,""x"":55,""y"":264},{""cat"":8,""src"":16,""x"":29,""y"":481},{""cat"":23,""src"":12,""x"":29,""y"":423},{""cat"":9,""src"":10,""x"":21,""y"":327},{""cat"":23,""src"":2,""x"":68,""y"":72},{""cat"":9,""src"":1,""x"":45,""y"":142},{""cat"":8,""src"":17,""x"":31,""y"":190}]","[{""cat"":""9"",""src"":""10"",""x"":0,""y"":0},{""cat"":""23"",""src"":""3"",""x"":797,""y"":167},{""cat"":""23"",""src"":""3"",""x"":0,""y"":0},{""cat"":""23"",""src"":""2"",""x"":0,""y"":0},{""cat"":""8"",""src"":""12"",""x"":0,""y"":0},{""cat"":""9"",""src"":""3"",""x"":0,""y"":0},{""cat"":""9"",""src"":""1"",""x"":0,""y"":0},{""cat"":""8"",""src"":""16"",""x"":0,""y"":0},{""cat"":""8"",""src"":""17"",""x"":0,""y"":0},{""cat"":""23"",""src"":""12"",""x"":0,""y"":0}]","[{""cat"":9,""src"":10,""loc"":5},{""cat"":23,""src"":3,""loc"":4},{""cat"":23,""src"":2,""loc"":3},{""cat"":8,""src"":12,""loc"":6},{""cat"":9,""src"":3,""loc"":0},{""cat"":9,""src"":1,""loc"":8},{""cat"":8,""src"":16,""loc"":1},{""cat"":8,""src"":17,""loc"":7},{""cat"":23,""src"":12,""loc"":2}]","5","9,8,23,23,23,9,8,8,9,3,16,12,2,3,10,12,17,1,0,1,2,3,4,5,6,7,8,4,6,8,2,1,0,3,7,5",NA
"1824","sort_feedback","32","html-keyboard-response","99","983484","0.0-3.0-60.0","2","2020-1-7 6:35:7","MOUSE",NA,NA,NA,NA,NA,NA,NA,NA,NA,NA,NA,NA,NA,NA
"19936","setup2",NA,"animation","100","1003422","0.0-3.0-61.0","2","2020-1-7 6:35:7","MOUSE",NA,NA,"[{""cat"":0,""src"":12,""loc"":4},{""cat"":3,""src"":15,""loc"":5},{""cat"":23,""src"":5,""loc"":3},{""cat"":23,""src"":1,""loc"":6},{""cat"":3,""src"":2,""loc"":8},{""cat"":0,""src"":4,""loc"":7},{""cat"":0,""src"":3,""loc"":0},{""cat"":23,""src"":4,""loc"":2},{""cat"":3,""src"":17,""loc"":1}]","2","1105,1103,1104,1103,1104,1104,1104,1103,1105,10001",NA,NA,NA,NA,NA,NA,NA,NA,NA
"2524","flanker_instructions","39","html-keyboard-response","101","1005951","0.0-3.0-62.0","2","2020-1-7 6:35:7","MOUSE",NA,NA,NA,NA,NA,NA,NA,NA,NA,NA,NA,NA,NA,NA
"854","flanker_test","37","image-keyboard-response","102","1007810","0.0-3.0-63.0-0.0","2","2020-1-7 6:35:7","MOUSE",NA,NA,NA,NA,NA,"incongruent","left","TRUE",NA,NA,NA,NA,NA,NA
"665","flanker_test","39","image-keyboard-response","103","1008796","0.0-3.0-63.0-0.1","2","2020-1-7 6:35:7","MOUSE",NA,NA,NA,NA,NA,"incongruent","right","TRUE",NA,NA,NA,NA,NA,NA
"566","flanker_test","37","image-keyboard-response","104","1010140","0.0-3.0-63.0-0.2","2","2020-1-7 6:35:7","MOUSE",NA,NA,NA,NA,NA,"congruent","left","TRUE",NA,NA,NA,NA,NA,NA
"653","flanker_test","39","image-keyboard-response","105","1011429","0.0-3.0-63.0-0.3","2","2020-1-7 6:35:7","MOUSE",NA,NA,NA,NA,NA,"congruent","right","TRUE",NA,NA,NA,NA,NA,NA
"34756","sort_trial",NA,"free-sort","106","1047373","0.0-3.0-64.0","2","2020-1-7 6:35:7","MOUSE",NA,NA,NA,NA,NA,NA,NA,NA,"[{""cat"":0,""src"":12,""x"":56,""y"":500},{""cat"":3,""src"":15,""x"":5,""y"":438},{""cat"":23,""src"":5,""x"":9,""y"":76},{""cat"":23,""src"":1,""x"":74,""y"":120},{""cat"":3,""src"":2,""x"":15,""y"":386},{""cat"":0,""src"":4,""x"":0,""y"":299},{""cat"":0,""src"":3,""x"":74,""y"":208},{""cat"":23,""src"":4,""x"":61,""y"":5},{""cat"":3,""src"":17,""x"":22,""y"":253}]","[{""cat"":""3"",""src"":""15"",""x"":0,""y"":0},{""cat"":""0"",""src"":""12"",""x"":0,""y"":0},{""cat"":""23"",""src"":""5"",""x"":0,""y"":0},{""cat"":""0"",""src"":""3"",""x"":0,""y"":0},{""cat"":""0"",""src"":""4"",""x"":0,""y"":0},{""cat"":""23"",""src"":""4"",""x"":0,""y"":0},{""cat"":""3"",""src"":""2"",""x"":0,""y"":0},{""cat"":""3"",""src"":""17"",""x"":0,""y"":0},{""cat"":""23"",""src"":""1"",""x"":0,""y"":0}]","[{""cat"":3,""src"":15,""loc"":5},{""cat"":0,""src"":12,""loc"":4},{""cat"":23,""src"":5,""loc"":3},{""cat"":0,""src"":3,""loc"":7},{""cat"":0,""src"":4,""loc"":0},{""cat"":23,""src"":4,""loc"":6},{""cat"":3,""src"":2,""loc"":8},{""cat"":3,""src"":17,""loc"":1},{""cat"":23,""src"":1,""loc"":2}]","5","0,3,23,23,0,3,23,0,3,4,17,1,5,12,15,4,3,2,0,1,2,3,4,5,6,7,8,4,7,8,2,1,0,5,3,6",NA
"2208","sort_feedback","32","html-keyboard-response","107","1049587","0.0-3.0-65.0","2","2020-1-7 6:35:7","MOUSE",NA,NA,NA,NA,NA,NA,NA,NA,NA,NA,NA,NA,NA,NA
"19940","setup1",NA,"animation","108","1069528","0.0-3.0-66.0","2","2020-1-7 6:35:7","MOUSE",NA,NA,"[{""cat"":5,""src"":14,""loc"":2},{""cat"":5,""src"":6,""loc"":1},{""cat"":5,""src"":13,""loc"":0},{""cat"":10,""src"":3,""loc"":5},{""cat"":10,""src"":6,""loc"":3},{""cat"":10,""src"":0,""loc"":4},{""cat"":9,""src"":3,""loc"":7},{""cat"":9,""src"":1,""loc"":6},{""cat"":9,""src"":9,""loc"":8}]","1","1106,1102,1104,1103,1103,1104,1104,1104,1105,10005",NA,NA,NA,NA,NA,NA,NA,NA,NA
"1337","flanker_instructions","39","html-keyboard-response","109","1070871","0.0-3.0-67.0","2","2020-1-7 6:35:7","MOUSE",NA,NA,NA,NA,NA,NA,NA,NA,NA,NA,NA,NA,NA,NA
NA,"flanker_test",NA,"image-keyboard-response","110","1072779","0.0-3.0-68.0-0.0","2","2020-1-7 6:35:7","MOUSE",NA,NA,NA,NA,NA,"incongruent","left","FALSE",NA,NA,NA,NA,NA,NA
"531","flanker_test","37","image-keyboard-response","111","1073934","0.0-3.0-68.0-0.1","2","2020-1-7 6:35:7","MOUSE",NA,NA,NA,NA,NA,"congruent","left","TRUE",NA,NA,NA,NA,NA,NA
"596","flanker_test","39","image-keyboard-response","112","1075412","0.0-3.0-68.0-0.2","2","2020-1-7 6:35:7","MOUSE",NA,NA,NA,NA,NA,"congruent","right","TRUE",NA,NA,NA,NA,NA,NA
"648","flanker_test","39","image-keyboard-response","113","1077259","0.0-3.0-68.0-0.3","2","2020-1-7 6:35:7","MOUSE",NA,NA,NA,NA,NA,"incongruent","right","TRUE",NA,NA,NA,NA,NA,NA
"25689","sort_trial",NA,"free-sort","114","1104011","0.0-3.0-69.0","2","2020-1-7 6:35:7","MOUSE",NA,NA,NA,NA,NA,NA,NA,NA,"[{""cat"":5,""src"":14,""x"":60,""y"":250},{""cat"":5,""src"":6,""x"":2,""y"":19},{""cat"":5,""src"":13,""x"":31,""y"":186},{""cat"":10,""src"":3,""x"":37,""y"":121},{""cat"":10,""src"":6,""x"":38,""y"":383},{""cat"":10,""src"":0,""x"":24,""y"":481},{""cat"":9,""src"":3,""x"":1,""y"":88},{""cat"":9,""src"":1,""x"":46,""y"":431},{""cat"":9,""src"":9,""x"":81,""y"":314}]","[{""cat"":""5"",""src"":""6"",""x"":0,""y"":0},{""cat"":""5"",""src"":""13"",""x"":0,""y"":0},{""cat"":""5"",""src"":""14"",""x"":0,""y"":0},{""cat"":""10"",""src"":""3"",""x"":0,""y"":0},{""cat"":""10"",""src"":""0"",""x"":0,""y"":0},{""cat"":""10"",""src"":""6"",""x"":0,""y"":0},{""cat"":""9"",""src"":""3"",""x"":0,""y"":0},{""cat"":""9"",""src"":""1"",""x"":0,""y"":0},{""cat"":""9"",""src"":""9"",""x"":0,""y"":0}]","[{""cat"":5,""src"":6,""loc"":1},{""cat"":5,""src"":13,""loc"":0},{""cat"":5,""src"":14,""loc"":2},{""cat"":10,""src"":3,""loc"":5},{""cat"":10,""src"":0,""loc"":4},{""cat"":10,""src"":6,""loc"":3},{""cat"":9,""src"":3,""loc"":6},{""cat"":9,""src"":1,""loc"":7},{""cat"":9,""src"":9,""loc"":8}]","7","5,5,5,10,10,10,9,9,9,13,6,14,6,0,3,3,1,9,0,1,2,3,4,5,6,7,8,1,0,2,5,4,3,6,7,8",NA
"2570","sort_feedback","32","html-keyboard-response","115","1106586","0.0-3.0-70.0","2","2020-1-7 6:35:7","MOUSE",NA,NA,NA,NA,NA,NA,NA,NA,NA,NA,NA,NA,NA,NA
"19941","setup3",NA,"animation","116","1126529","0.0-3.0-71.0","2","2020-1-7 6:35:7","MOUSE",NA,NA,"[{""cat"":11,""src"":5,""loc"":1},{""cat"":27,""src"":4,""loc"":4},{""cat"":7,""src"":10,""loc"":6},{""cat"":11,""src"":13,""loc"":0},{""cat"":7,""src"":15,""loc"":8},{""cat"":27,""src"":3,""loc"":3},{""cat"":27,""src"":19,""loc"":5},{""cat"":11,""src"":14,""loc"":2},{""cat"":7,""src"":8,""loc"":7}]","3","1106,1103,1105,1104,1103,1104,1102,1106,1105,10003",NA,NA,NA,NA,NA,NA,NA,NA,NA
"1303","flanker_instructions","37","html-keyboard-response","117","1127838","0.0-3.0-72.0","2","2020-1-7 6:35:7","MOUSE",NA,NA,NA,NA,NA,NA,NA,NA,NA,NA,NA,NA,NA,NA
"786","flanker_test","37","image-keyboard-response","118","1129630","0.0-3.0-73.0-0.0","2","2020-1-7 6:35:7","MOUSE",NA,NA,NA,NA,NA,"incongruent","left","TRUE",NA,NA,NA,NA,NA,NA
"520","flanker_test","39","image-keyboard-response","119","1131281","0.0-3.0-73.0-0.1","2","2020-1-7 6:35:7","MOUSE",NA,NA,NA,NA,NA,"congruent","right","TRUE",NA,NA,NA,NA,NA,NA
"585","flanker_test","39","image-keyboard-response","120","1132177","0.0-3.0-73.0-0.2","2","2020-1-7 6:35:7","MOUSE",NA,NA,NA,NA,NA,"incongruent","right","TRUE",NA,NA,NA,NA,NA,NA
"555","flanker_test","37","image-keyboard-response","121","1133875","0.0-3.0-73.0-0.3","2","2020-1-7 6:35:7","MOUSE",NA,NA,NA,NA,NA,"congruent","left","TRUE",NA,NA,NA,NA,NA,NA
"37596","sort_trial",NA,"free-sort","122","1172497","0.0-3.0-74.0","2","2020-1-7 6:35:7","MOUSE",NA,NA,NA,NA,NA,NA,NA,NA,"[{""cat"":11,""src"":5,""x"":32,""y"":321},{""cat"":27,""src"":4,""x"":64,""y"":133},{""cat"":7,""src"":10,""x"":5,""y"":17},{""cat"":11,""src"":13,""x"":83,""y"":385},{""cat"":7,""src"":15,""x"":56,""y"":419},{""cat"":27,""src"":3,""x"":0,""y"":245},{""cat"":27,""src"":19,""x"":12,""y"":188},{""cat"":11,""src"":14,""x"":60,""y"":71},{""cat"":7,""src"":8,""x"":28,""y"":508}]","[{""cat"":""11"",""src"":""14"",""x"":0,""y"":0},{""cat"":""7"",""src"":""10"",""x"":0,""y"":0},{""cat"":""11"",""src"":""5"",""x"":0,""y"":0},{""cat"":""11"",""src"":""13"",""x"":0,""y"":0},{""cat"":""7"",""src"":""15"",""x"":0,""y"":0},{""cat"":""7"",""src"":""8"",""x"":0,""y"":0},{""cat"":""27"",""src"":""19"",""x"":0,""y"":0},{""cat"":""27"",""src"":""4"",""x"":0,""y"":0},{""cat"":""27"",""src"":""3"",""x"":0,""y"":0}]","[{""cat"":11,""src"":14,""loc"":2},{""cat"":7,""src"":10,""loc"":6},{""cat"":11,""src"":5,""loc"":1},{""cat"":11,""src"":13,""loc"":0},{""cat"":7,""src"":15,""loc"":5},{""cat"":7,""src"":8,""loc"":8},{""cat"":27,""src"":19,""loc"":7},{""cat"":27,""src"":4,""loc"":4},{""cat"":27,""src"":3,""loc"":3}]","6","11,11,11,27,27,7,7,27,7,13,5,14,3,4,15,10,19,8,0,1,2,3,4,5,6,7,8,3,2,0,8,7,4,1,6,5",NA
"2725","sort_feedback","32","html-keyboard-response","123","1175227","0.0-3.0-75.0","2","2020-1-7 6:35:7","MOUSE",NA,NA,NA,NA,NA,NA,NA,NA,NA,NA,NA,NA,NA,NA
"19939","setup1",NA,"animation","124","1195168","0.0-3.0-76.0","2","2020-1-7 6:35:7","MOUSE",NA,NA,"[{""cat"":6,""src"":10,""loc"":3},{""cat"":6,""src"":5,""loc"":5},{""cat"":6,""src"":15,""loc"":4},{""cat"":32,""src"":5,""loc"":6},{""cat"":32,""src"":12,""loc"":7},{""cat"":32,""src"":9,""loc"":8},{""cat"":20,""src"":16,""loc"":1},{""cat"":20,""src"":13,""loc"":2},{""cat"":20,""src"":7,""loc"":0}]","1","1106,1106,1102,1104,1102,1105,1103,1104,1103,10004",NA,NA,NA,NA,NA,NA,NA,NA,NA
"1753","flanker_instructions","39","html-keyboard-response","125","1196925","0.0-3.0-77.0","2","2020-1-7 6:35:7","MOUSE",NA,NA,NA,NA,NA,NA,NA,NA,NA,NA,NA,NA,NA,NA
"610","flanker_test","39","image-keyboard-response","126","1198541","0.0-3.0-78.0-0.0","2","2020-1-7 6:35:7","MOUSE",NA,NA,NA,NA,NA,"congruent","right","TRUE",NA,NA,NA,NA,NA,NA
"788","flanker_test","39","image-keyboard-response","127","1200016","0.0-3.0-78.0-0.1","2","2020-1-7 6:35:7","MOUSE",NA,NA,NA,NA,NA,"incongruent","right","TRUE",NA,NA,NA,NA,NA,NA
"782","flanker_test","37","image-keyboard-response","128","1201876","0.0-3.0-78.0-0.2","2","2020-1-7 6:35:7","MOUSE",NA,NA,NA,NA,NA,"incongruent","left","TRUE",NA,NA,NA,NA,NA,NA
"490","flanker_test","37","image-keyboard-response","129","1202767","0.0-3.0-78.0-0.3","2","2020-1-7 6:35:7","MOUSE",NA,NA,NA,NA,NA,"congruent","left","TRUE",NA,NA,NA,NA,NA,NA
"30873","sort_trial",NA,"free-sort","130","1234233","0.0-3.0-79.0","2","2020-1-7 6:35:7","MOUSE",NA,NA,NA,NA,NA,NA,NA,NA,"[{""cat"":6,""src"":10,""x"":25,""y"":369},{""cat"":6,""src"":5,""x"":55,""y"":325},{""cat"":6,""src"":15,""x"":68,""y"":194},{""cat"":32,""src"":5,""x"":36,""y"":244},{""cat"":32,""src"":12,""x"":63,""y"":497},{""cat"":32,""src"":9,""x"":81,""y"":436},{""cat"":20,""src"":16,""x"":79,""y"":147},{""cat"":20,""src"":13,""x"":25,""y"":66},{""cat"":20,""src"":7,""x"":44,""y"":3}]","[{""cat"":""20"",""src"":""16"",""x"":0,""y"":0},{""cat"":""20"",""src"":""7"",""x"":0,""y"":0},{""cat"":""20"",""src"":""13"",""x"":0,""y"":0},{""cat"":""6"",""src"":""5"",""x"":0,""y"":0},{""cat"":""6"",""src"":""15"",""x"":800,""y"":167},{""cat"":""6"",""src"":""15"",""x"":0,""y"":0},{""cat"":""6"",""src"":""10"",""x"":0,""y"":0},{""cat"":""32"",""src"":""9"",""x"":0,""y"":0},{""cat"":""32"",""src"":""5"",""x"":0,""y"":0},{""cat"":""32"",""src"":""12"",""x"":0,""y"":0}]","[{""cat"":20,""src"":16,""loc"":1},{""cat"":20,""src"":7,""loc"":0},{""cat"":20,""src"":13,""loc"":2},{""cat"":6,""src"":5,""loc"":5},{""cat"":6,""src"":15,""loc"":4},{""cat"":6,""src"":10,""loc"":3},{""cat"":32,""src"":9,""loc"":8},{""cat"":32,""src"":5,""loc"":6},{""cat"":32,""src"":12,""loc"":7}]","9","20,20,20,6,6,6,32,32,32,7,16,13,10,15,5,5,12,9,0,1,2,3,4,5,6,7,8,1,0,2,5,4,3,7,8,6",NA
"1651","sort_feedback","32","html-keyboard-response","131","1235890","0.0-3.0-80.0","2","2020-1-7 6:35:7","MOUSE",NA,NA,NA,NA,NA,NA,NA,NA,NA,NA,NA,NA,NA,NA
"19942","setup5",NA,"animation","132","1255834","0.0-3.0-81.0","2","2020-1-7 6:35:7","MOUSE",NA,NA,"[{""cat"":19,""src"":17,""loc"":0},{""cat"":3,""src"":8,""loc"":4},{""cat"":17,""src"":8,""loc"":6},{""cat"":17,""src"":4,""loc"":1},{""cat"":19,""src"":9,""loc"":3},{""cat"":3,""src"":16,""loc"":7},{""cat"":19,""src"":12,""loc"":8},{""cat"":3,""src"":14,""loc"":2},{""cat"":17,""src"":11,""loc"":5}]","5","1107,1103,1102,1105,1104,1103,1104,1105,1105,10004",NA,NA,NA,NA,NA,NA,NA,NA,NA
"1511","flanker_instructions","37","html-keyboard-response","133","1257350","0.0-3.0-82.0","2","2020-1-7 6:35:7","MOUSE",NA,NA,NA,NA,NA,NA,NA,NA,NA,NA,NA,NA,NA,NA
"672","flanker_test","39","image-keyboard-response","134","1259026","0.0-3.0-83.0-0.0","2","2020-1-7 6:35:7","MOUSE",NA,NA,NA,NA,NA,"congruent","right","TRUE",NA,NA,NA,NA,NA,NA
"565","flanker_test","37","image-keyboard-response","135","1260395","0.0-3.0-83.0-0.1","2","2020-1-7 6:35:7","MOUSE",NA,NA,NA,NA,NA,"congruent","left","TRUE",NA,NA,NA,NA,NA,NA
"704","flanker_test","39","image-keyboard-response","136","1262296","0.0-3.0-83.0-0.2","2","2020-1-7 6:35:7","MOUSE",NA,NA,NA,NA,NA,"incongruent","right","TRUE",NA,NA,NA,NA,NA,NA
"737","flanker_test","37","image-keyboard-response","137","1263355","0.0-3.0-83.0-0.3","2","2020-1-7 6:35:7","MOUSE",NA,NA,NA,NA,NA,"incongruent","left","TRUE",NA,NA,NA,NA,NA,NA
"33586","sort_trial",NA,"free-sort","138","1297561","0.0-3.0-84.0","2","2020-1-7 6:35:7","MOUSE",NA,NA,NA,NA,NA,NA,NA,NA,"[{""cat"":19,""src"":17,""x"":43,""y"":447},{""cat"":3,""src"":8,""x"":36,""y"":20},{""cat"":17,""src"":8,""x"":34,""y"":251},{""cat"":17,""src"":4,""x"":17,""y"":306},{""cat"":19,""src"":9,""x"":31,""y"":501},{""cat"":3,""src"":16,""x"":20,""y"":149},{""cat"":19,""src"":12,""x"":77,""y"":359},{""cat"":3,""src"":14,""x"":22,""y"":65},{""cat"":17,""src"":11,""x"":21,""y"":181}]","[{""cat"":""17"",""src"":""4"",""x"":0,""y"":0},{""cat"":""19"",""src"":""17"",""x"":0,""y"":0},{""cat"":""3"",""src"":""14"",""x"":0,""y"":0},{""cat"":""17"",""src"":""8"",""x"":0,""y"":0},{""cat"":""3"",""src"":""16"",""x"":0,""y"":0},{""cat"":""3"",""src"":""8"",""x"":0,""y"":0},{""cat"":""17"",""src"":""11"",""x"":0,""y"":0},{""cat"":""19"",""src"":""12"",""x"":0,""y"":0},{""cat"":""19"",""src"":""9"",""x"":0,""y"":0}]","[{""cat"":17,""src"":4,""loc"":1},{""cat"":19,""src"":17,""loc"":0},{""cat"":3,""src"":14,""loc"":2},{""cat"":17,""src"":8,""loc"":6},{""cat"":3,""src"":16,""loc"":4},{""cat"":3,""src"":8,""loc"":5},{""cat"":17,""src"":11,""loc"":3},{""cat"":19,""src"":12,""loc"":7},{""cat"":19,""src"":9,""loc"":8}]","4","19,17,3,17,3,3,17,19,19,17,4,14,11,16,8,8,12,9,0,1,2,3,4,5,6,7,8,1,0,2,6,4,5,3,7,8",NA
"3849","sort_feedback","32","html-keyboard-response","139","1301416","0.0-3.0-85.0","2","2020-1-7 6:35:7","MOUSE",NA,NA,NA,NA,NA,NA,NA,NA,NA,NA,NA,NA,NA,NA
"19932","setup2",NA,"animation","140","1321350","0.0-3.0-86.0","2","2020-1-7 6:35:7","MOUSE",NA,NA,"[{""cat"":21,""src"":4,""loc"":8},{""cat"":16,""src"":13,""loc"":6},{""cat"":18,""src"":5,""loc"":7},{""cat"":18,""src"":4,""loc"":2},{""cat"":16,""src"":11,""loc"":0},{""cat"":21,""src"":16,""loc"":1},{""cat"":16,""src"":6,""loc"":3},{""cat"":18,""src"":2,""loc"":4},{""cat"":21,""src"":8,""loc"":5}]","2","1104,1102,1103,1104,1103,1102,1103,1104,1103,10003",NA,NA,NA,NA,NA,NA,NA,NA,NA
"1629","flanker_instructions","37","html-keyboard-response","141","1322983","0.0-3.0-87.0","2","2020-1-7 6:35:7","MOUSE",NA,NA,NA,NA,NA,NA,NA,NA,NA,NA,NA,NA,NA,NA
"698","flanker_test","39","image-keyboard-response","142","1324687","0.0-3.0-88.0-0.0","2","2020-1-7 6:35:7","MOUSE",NA,NA,NA,NA,NA,"incongruent","right","TRUE",NA,NA,NA,NA,NA,NA
"633","flanker_test","37","image-keyboard-response","143","1325910","0.0-3.0-88.0-0.1","2","2020-1-7 6:35:7","MOUSE",NA,NA,NA,NA,NA,"incongruent","left","TRUE",NA,NA,NA,NA,NA,NA
"543","flanker_test","39","image-keyboard-response","144","1327601","0.0-3.0-88.0-0.2","2","2020-1-7 6:35:7","MOUSE",NA,NA,NA,NA,NA,"congruent","right","TRUE",NA,NA,NA,NA,NA,NA
"643","flanker_test","37","image-keyboard-response","145","1328959","0.0-3.0-88.0-0.3","2","2020-1-7 6:35:7","MOUSE",NA,NA,NA,NA,NA,"congruent","left","TRUE",NA,NA,NA,NA,NA,NA
"31207","sort_trial",NA,"free-sort","146","1360845","0.0-3.0-89.0","2","2020-1-7 6:35:7","MOUSE",NA,NA,NA,NA,NA,NA,NA,NA,"[{""cat"":21,""src"":4,""x"":43,""y"":187},{""cat"":16,""src"":13,""x"":74,""y"":143},{""cat"":18,""src"":5,""x"":10,""y"":261},{""cat"":18,""src"":4,""x"":18,""y"":376},{""cat"":16,""src"":11,""x"":44,""y"":314},{""cat"":21,""src"":16,""x"":47,""y"":74},{""cat"":16,""src"":6,""x"":62,""y"":15},{""cat"":18,""src"":2,""x"":0,""y"":420},{""cat"":21,""src"":8,""x"":21,""y"":498}]","[{""cat"":""16"",""src"":""13"",""x"":0,""y"":0},{""cat"":""18"",""src"":""5"",""x"":0,""y"":0},{""cat"":""21"",""src"":""8"",""x"":0,""y"":0},{""cat"":""18"",""src"":""2"",""x"":0,""y"":0},{""cat"":""21"",""src"":""4"",""x"":0,""y"":0},{""cat"":""18"",""src"":""4"",""x"":0,""y"":0},{""cat"":""16"",""src"":""6"",""x"":0,""y"":0},{""cat"":""21"",""src"":""16"",""x"":0,""y"":0},{""cat"":""16"",""src"":""11"",""x"":0,""y"":0}]","[{""cat"":16,""src"":13,""loc"":6},{""cat"":18,""src"":5,""loc"":7},{""cat"":21,""src"":8,""loc"":5},{""cat"":18,""src"":2,""loc"":4},{""cat"":21,""src"":4,""loc"":3},{""cat"":18,""src"":4,""loc"":8},{""cat"":16,""src"":6,""loc"":0},{""cat"":21,""src"":16,""loc"":1},{""cat"":16,""src"":11,""loc"":2}]","5","16,21,16,21,18,21,16,18,18,6,16,11,4,2,8,13,5,4,0,1,2,3,4,5,6,7,8,6,7,8,4,3,2,0,1,5",NA
"2161","sort_feedback","32","html-keyboard-response","147","1363010","0.0-3.0-90.0","2","2020-1-7 6:35:7","MOUSE",NA,NA,NA,NA,NA,NA,NA,NA,NA,NA,NA,NA,NA,NA
"19939","setup4",NA,"animation","148","1382952","0.0-3.0-91.0","2","2020-1-7 6:35:7","MOUSE",NA,NA,"[{""cat"":15,""src"":3,""loc"":0},{""cat"":15,""src"":6,""loc"":4},{""cat"":15,""src"":9,""loc"":8},{""cat"":8,""src"":11,""loc"":6},{""cat"":8,""src"":9,""loc"":3},{""cat"":8,""src"":17,""loc"":2},{""cat"":12,""src"":8,""loc"":5},{""cat"":12,""src"":14,""loc"":1},{""cat"":12,""src"":17,""loc"":7}]","4","1104,1104,1105,1103,1104,1104,1104,1104,1104,10003",NA,NA,NA,NA,NA,NA,NA,NA,NA
"1546","flanker_instructions","37","html-keyboard-response","149","1384503","0.0-3.0-92.0","2","2020-1-7 6:35:7","MOUSE",NA,NA,NA,NA,NA,NA,NA,NA,NA,NA,NA,NA,NA,NA
"731","flanker_test","37","image-keyboard-response","150","1386238","0.0-3.0-93.0-0.0","2","2020-1-7 6:35:7","MOUSE",NA,NA,NA,NA,NA,"congruent","left","TRUE",NA,NA,NA,NA,NA,NA
"777","flanker_test","39","image-keyboard-response","151","1387431","0.0-3.0-93.0-0.1","2","2020-1-7 6:35:7","MOUSE",NA,NA,NA,NA,NA,"incongruent","right","TRUE",NA,NA,NA,NA,NA,NA
"749","flanker_test","37","image-keyboard-response","152","1388696","0.0-3.0-93.0-0.2","2","2020-1-7 6:35:7","MOUSE",NA,NA,NA,NA,NA,"incongruent","left","TRUE",NA,NA,NA,NA,NA,NA
"498","flanker_test","39","image-keyboard-response","153","1389860","0.0-3.0-93.0-0.3","2","2020-1-7 6:35:7","MOUSE",NA,NA,NA,NA,NA,"congruent","right","TRUE",NA,NA,NA,NA,NA,NA
"51141","sort_trial",NA,"free-sort","154","1441778","0.0-3.0-94.0","2","2020-1-7 6:35:7","MOUSE",NA,NA,NA,NA,NA,NA,NA,NA,"[{""cat"":15,""src"":3,""x"":83,""y"":496},{""cat"":15,""src"":6,""x"":3,""y"":322},{""cat"":15,""src"":9,""x"":78,""y"":196},{""cat"":8,""src"":11,""x"":64,""y"":382},{""cat"":8,""src"":9,""x"":67,""y"":134},{""cat"":8,""src"":17,""x"":82,""y"":259},{""cat"":12,""src"":8,""x"":51,""y"":439},{""cat"":12,""src"":14,""x"":42,""y"":13},{""cat"":12,""src"":17,""x"":55,""y"":63}]","[{""cat"":""8"",""src"":""17"",""x"":0,""y"":0},{""cat"":""8"",""src"":""11"",""x"":0,""y"":0},{""cat"":""15"",""src"":""3"",""x"":117,""y"":289},{""cat"":""12"",""src"":""14"",""x"":0,""y"":0},{""cat"":""12"",""src"":""8"",""x"":81,""y"":377},{""cat"":""15"",""src"":""9"",""x"":0,""y"":0},{""cat"":""8"",""src"":""9"",""x"":0,""y"":0},{""cat"":""12"",""src"":""8"",""x"":103,""y"":374},{""cat"":""15"",""src"":""6"",""x"":0,""y"":0},{""cat"":""12"",""src"":""8"",""x"":0,""y"":0},{""cat"":""12"",""src"":""17"",""x"":0,""y"":0},{""cat"":""15"",""src"":""3"",""x"":0,""y"":0}]","[{""cat"":8,""src"":17,""loc"":2},{""cat"":8,""src"":11,""loc"":6},{""cat"":12,""src"":14,""loc"":1},{""cat"":15,""src"":9,""loc"":8},{""cat"":8,""src"":9,""loc"":3},{""cat"":15,""src"":6,""loc"":5},{""cat"":12,""src"":8,""loc"":4},{""cat"":12,""src"":17,""loc"":7},{""cat"":15,""src"":3,""loc"":0}]","7","15,12,8,8,12,15,8,12,15,3,14,17,9,8,6,11,17,9,0,1,2,3,4,5,6,7,8,8,2,0,4,6,5,1,7,3",NA
"2607","sort_feedback","32","html-keyboard-response","155","1444391","0.0-3.0-95.0","2","2020-1-7 6:35:7","MOUSE",NA,NA,NA,NA,NA,NA,NA,NA,NA,NA,NA,NA,NA,NA
"19944","setup3",NA,"animation","156","1464337","0.0-3.0-96.0","2","2020-1-7 6:35:7","MOUSE",NA,NA,"[{""cat"":6,""src"":6,""loc"":7},{""cat"":19,""src"":17,""loc"":0},{""cat"":32,""src"":17,""loc"":4},{""cat"":32,""src"":18,""loc"":5},{""cat"":19,""src"":16,""loc"":1},{""cat"":6,""src"":2,""loc"":6},{""cat"":19,""src"":12,""loc"":2},{""cat"":32,""src"":13,""loc"":3},{""cat"":6,""src"":10,""loc"":8}]","3","1107,1104,1103,1104,1105,1104,1103,1103,1104,10006",NA,NA,NA,NA,NA,NA,NA,NA,NA
"1683","flanker_instructions","37","html-keyboard-response","157","1466024","0.0-3.0-97.0","2","2020-1-7 6:35:7","MOUSE",NA,NA,NA,NA,NA,NA,NA,NA,NA,NA,NA,NA,NA,NA
"694","flanker_test","39","image-keyboard-response","158","1467723","0.0-3.0-98.0-0.0","2","2020-1-7 6:35:7","MOUSE",NA,NA,NA,NA,NA,"incongruent","right","TRUE",NA,NA,NA,NA,NA,NA
"560","flanker_test","37","image-keyboard-response","159","1469103","0.0-3.0-98.0-0.1","2","2020-1-7 6:35:7","MOUSE",NA,NA,NA,NA,NA,"congruent","left","TRUE",NA,NA,NA,NA,NA,NA
"605","flanker_test","39","image-keyboard-response","160","1470596","0.0-3.0-98.0-0.2","2","2020-1-7 6:35:7","MOUSE",NA,NA,NA,NA,NA,"congruent","right","TRUE",NA,NA,NA,NA,NA,NA
"604","flanker_test","37","image-keyboard-response","161","1471884","0.0-3.0-98.0-0.3","2","2020-1-7 6:35:7","MOUSE",NA,NA,NA,NA,NA,"incongruent","left","TRUE",NA,NA,NA,NA,NA,NA
"36935","sort_trial",NA,"free-sort","162","1509248","0.0-3.0-99.0","2","2020-1-7 6:35:7","MOUSE",NA,NA,NA,NA,NA,NA,NA,NA,"[{""cat"":6,""src"":6,""x"":35,""y"":268},{""cat"":19,""src"":17,""x"":66,""y"":70},{""cat"":32,""src"":17,""x"":42,""y"":189},{""cat"":32,""src"":18,""x"":27,""y"":501},{""cat"":19,""src"":16,""x"":80,""y"":434},{""cat"":6,""src"":2,""x"":43,""y"":23},{""cat"":19,""src"":12,""x"":74,""y"":324},{""cat"":32,""src"":13,""x"":18,""y"":132},{""cat"":6,""src"":10,""x"":69,""y"":383}]","[{""cat"":""32"",""src"":""17"",""x"":0,""y"":0},{""cat"":""19"",""src"":""16"",""x"":0,""y"":0},{""cat"":""6"",""src"":""10"",""x"":69,""y"":383},{""cat"":""19"",""src"":""12"",""x"":0,""y"":0},{""cat"":""6"",""src"":""10"",""x"":0,""y"":0},{""cat"":""6"",""src"":""2"",""x"":0,""y"":0},{""cat"":""6"",""src"":""6"",""x"":0,""y"":0},{""cat"":""32"",""src"":""18"",""x"":0,""y"":0},{""cat"":""19"",""src"":""17"",""x"":0,""y"":0},{""cat"":""32"",""src"":""13"",""x"":0,""y"":0}]","[{""cat"":32,""src"":17,""loc"":4},{""cat"":19,""src"":16,""loc"":1},{""cat"":19,""src"":12,""loc"":2},{""cat"":6,""src"":10,""loc"":6},{""cat"":6,""src"":2,""loc"":7},{""cat"":6,""src"":6,""loc"":8},{""cat"":32,""src"":18,""loc"":3},{""cat"":19,""src"":17,""loc"":0},{""cat"":32,""src"":13,""loc"":5}]","4","19,19,19,32,32,32,6,6,6,17,16,12,18,17,13,10,2,6,0,1,2,3,4,5,6,7,8,7,1,2,6,0,8,3,4,5",NA
"2018","sort_feedback","32","html-keyboard-response","163","1511272","0.0-3.0-100.0","2","2020-1-7 6:35:7","MOUSE",NA,NA,NA,NA,NA,NA,NA,NA,NA,NA,NA,NA,NA,NA
NA,"breakStart",NA,"html-keyboard-response","164","1541277","0.0-4.0-0.0","2","2020-1-7 6:35:7","MOUSE",NA,NA,NA,NA,NA,NA,NA,NA,NA,NA,NA,NA,NA,NA
"2778","breakEnd",NA,"html-button-response","165","1544061","0.0-4.0-1.0","2","2020-1-7 6:35:7","MOUSE","0",NA,NA,NA,NA,NA,NA,NA,NA,NA,NA,NA,NA,NA
"19939","setup4",NA,"animation","166","1564002","0.0-5.0-0.0","2","2020-1-7 6:35:7","MOUSE",NA,NA,"[{""cat"":32,""src"":19,""loc"":4},{""cat"":32,""src"":18,""loc"":2},{""cat"":32,""src"":10,""loc"":7},{""cat"":29,""src"":11,""loc"":6},{""cat"":29,""src"":8,""loc"":0},{""cat"":29,""src"":5,""loc"":3},{""cat"":26,""src"":13,""loc"":5},{""cat"":26,""src"":0,""loc"":8},{""cat"":26,""src"":19,""loc"":1}]","4","1106,1103,1103,1104,1104,1105,1104,1102,1104,10003",NA,NA,NA,NA,NA,NA,NA,NA,NA
"1356","flanker_instructions","39","html-keyboard-response","167","1565362","0.0-5.0-1.0","2","2020-1-7 6:35:7","MOUSE",NA,NA,NA,NA,NA,NA,NA,NA,NA,NA,NA,NA,NA,NA
"804","flanker_test","39","image-keyboard-response","168","1567171","0.0-5.0-2.0-0.0","2","2020-1-7 6:35:7","MOUSE",NA,NA,NA,NA,NA,"incongruent","right","TRUE",NA,NA,NA,NA,NA,NA
"533","flanker_test","39","image-keyboard-response","169","1568507","0.0-5.0-2.0-0.1","2","2020-1-7 6:35:7","MOUSE",NA,NA,NA,NA,NA,"congruent","right","TRUE",NA,NA,NA,NA,NA,NA
"557","flanker_test","37","image-keyboard-response","170","1569682","0.0-5.0-2.0-0.2","2","2020-1-7 6:35:7","MOUSE",NA,NA,NA,NA,NA,"congruent","left","TRUE",NA,NA,NA,NA,NA,NA
"725","flanker_test","37","image-keyboard-response","171","1571508","0.0-5.0-2.0-0.3","2","2020-1-7 6:35:7","MOUSE",NA,NA,NA,NA,NA,"incongruent","left","TRUE",NA,NA,NA,NA,NA,NA
"37571","sort_trial",NA,"free-sort","172","1609558","0.0-5.0-3.0","2","2020-1-7 6:35:7","MOUSE",NA,NA,NA,NA,NA,NA,NA,NA,"[{""cat"":32,""src"":19,""x"":24,""y"":495},{""cat"":32,""src"":18,""x"":8,""y"":183},{""cat"":32,""src"":10,""x"":12,""y"":73},{""cat"":29,""src"":11,""x"":5,""y"":139},{""cat"":29,""src"":8,""x"":32,""y"":7},{""cat"":29,""src"":5,""x"":18,""y"":318},{""cat"":26,""src"":13,""x"":32,""y"":369},{""cat"":26,""src"":0,""x"":41,""y"":247},{""cat"":26,""src"":19,""x"":79,""y"":438}]","[{""cat"":""26"",""src"":""0"",""x"":0,""y"":0},{""cat"":""26"",""src"":""13"",""x"":0,""y"":0},{""cat"":""32"",""src"":""19"",""x"":0,""y"":0},{""cat"":""29"",""src"":""5"",""x"":0,""y"":0},{""cat"":""26"",""src"":""19"",""x"":59,""y"":265},{""cat"":""32"",""src"":""10"",""x"":0,""y"":0},{""cat"":""29"",""src"":""11"",""x"":0,""y"":0},{""cat"":""26"",""src"":""19"",""x"":0,""y"":0},{""cat"":""29"",""src"":""8"",""x"":0,""y"":0},{""cat"":""32"",""src"":""18"",""x"":0,""y"":0}]","[{""cat"":26,""src"":0,""loc"":8},{""cat"":26,""src"":13,""loc"":5},{""cat"":32,""src"":19,""loc"":4},{""cat"":29,""src"":5,""loc"":3},{""cat"":32,""src"":10,""loc"":2},{""cat"":29,""src"":11,""loc"":0},{""cat"":26,""src"":19,""loc"":7},{""cat"":29,""src"":8,""loc"":6},{""cat"":32,""src"":18,""loc"":1}]","4","29,32,32,29,32,26,29,26,26,11,18,10,5,19,13,8,19,0,0,1,2,3,4,5,6,7,8,5,8,4,3,2,1,7,6,0",NA
"2089","sort_feedback","32","html-keyboard-response","173","1611651","0.0-5.0-4.0","2","2020-1-7 6:35:7","MOUSE",NA,NA,NA,NA,NA,NA,NA,NA,NA,NA,NA,NA,NA,NA
"19967","setup2",NA,"animation","174","1631620","0.0-5.0-5.0","2","2020-1-7 6:35:7","MOUSE",NA,NA,"[{""cat"":19,""src"":15,""loc"":7},{""cat"":28,""src"":12,""loc"":8},{""cat"":13,""src"":17,""loc"":6},{""cat"":13,""src"":4,""loc"":5},{""cat"":19,""src"":14,""loc"":4},{""cat"":28,""src"":4,""loc"":3},{""cat"":28,""src"":1,""loc"":1},{""cat"":13,""src"":9,""loc"":0},{""cat"":19,""src"":4,""loc"":2}]","2","1107,1103,1104,1103,1104,1103,1103,1104,1134,10002",NA,NA,NA,NA,NA,NA,NA,NA,NA
"1631","flanker_instructions","37","html-keyboard-response","175","1633259","0.0-5.0-6.0","2","2020-1-7 6:35:7","MOUSE",NA,NA,NA,NA,NA,NA,NA,NA,NA,NA,NA,NA,NA,NA
"670","flanker_test","39","image-keyboard-response","176","1634934","0.0-5.0-7.0-0.0","2","2020-1-7 6:35:7","MOUSE",NA,NA,NA,NA,NA,"incongruent","right","TRUE",NA,NA,NA,NA,NA,NA
"535","flanker_test","39","image-keyboard-response","177","1636213","0.0-5.0-7.0-0.1","2","2020-1-7 6:35:7","MOUSE",NA,NA,NA,NA,NA,"congruent","right","TRUE",NA,NA,NA,NA,NA,NA
"652","flanker_test","37","image-keyboard-response","178","1637295","0.0-5.0-7.0-0.2","2","2020-1-7 6:35:7","MOUSE",NA,NA,NA,NA,NA,"congruent","left","TRUE",NA,NA,NA,NA,NA,NA
"663","flanker_test","37","image-keyboard-response","179","1638800","0.0-5.0-7.0-0.3","2","2020-1-7 6:35:7","MOUSE",NA,NA,NA,NA,NA,"incongruent","left","TRUE",NA,NA,NA,NA,NA,NA
"36235","sort_trial",NA,"free-sort","180","1676235","0.0-5.0-8.0","2","2020-1-7 6:35:7","MOUSE",NA,NA,NA,NA,NA,NA,NA,NA,"[{""cat"":19,""src"":15,""x"":79,""y"":301},{""cat"":28,""src"":12,""x"":34,""y"":370},{""cat"":13,""src"":17,""x"":7,""y"":440},{""cat"":13,""src"":4,""x"":79,""y"":123},{""cat"":19,""src"":14,""x"":10,""y"":493},{""cat"":28,""src"":4,""x"":49,""y"":66},{""cat"":28,""src"":1,""x"":0,""y"":23},{""cat"":13,""src"":9,""x"":28,""y"":246},{""cat"":19,""src"":4,""x"":29,""y"":184}]","[{""cat"":""28"",""src"":""12"",""x"":0,""y"":0},{""cat"":""13"",""src"":""4"",""x"":0,""y"":0},{""cat"":""19"",""src"":""14"",""x"":0,""y"":0},{""cat"":""28"",""src"":""4"",""x"":0,""y"":0},{""cat"":""13"",""src"":""9"",""x"":0,""y"":0},{""cat"":""28"",""src"":""1"",""x"":0,""y"":0},{""cat"":""19"",""src"":""4"",""x"":0,""y"":0},{""cat"":""13"",""src"":""17"",""x"":0,""y"":0},{""cat"":""19"",""src"":""15"",""x"":0,""y"":0}]","[{""cat"":28,""src"":12,""loc"":8},{""cat"":13,""src"":4,""loc"":5},{""cat"":19,""src"":14,""loc"":4},{""cat"":28,""src"":4,""loc"":3},{""cat"":13,""src"":9,""loc"":0},{""cat"":28,""src"":1,""loc"":1},{""cat"":19,""src"":4,""loc"":2},{""cat"":13,""src"":17,""loc"":6},{""cat"":19,""src"":15,""loc"":7}]","9","13,28,19,28,19,13,13,19,28,9,1,4,4,14,4,17,15,12,0,1,2,3,4,5,6,7,8,4,5,6,3,2,1,7,8,0",NA
"2887","sort_feedback","32","html-keyboard-response","181","1679128","0.0-5.0-9.0","2","2020-1-7 6:35:7","MOUSE",NA,NA,NA,NA,NA,NA,NA,NA,NA,NA,NA,NA,NA,NA
"19967","setup1",NA,"animation","182","1699097","0.0-5.0-10.0","2","2020-1-7 6:35:7","MOUSE",NA,NA,"[{""cat"":0,""src"":8,""loc"":7},{""cat"":0,""src"":7,""loc"":6},{""cat"":0,""src"":11,""loc"":8},{""cat"":13,""src"":19,""loc"":5},{""cat"":13,""src"":3,""loc"":3},{""cat"":13,""src"":5,""loc"":4},{""cat"":3,""src"":13,""loc"":2},{""cat"":3,""src"":0,""loc"":0},{""cat"":3,""src"":8,""loc"":1}]","1","1105,1104,1105,1104,1103,1103,1133,1104,1103,10003",NA,NA,NA,NA,NA,NA,NA,NA,NA
"1696","flanker_instructions","37","html-keyboard-response","183","1700797","0.0-5.0-11.0","2","2020-1-7 6:35:7","MOUSE",NA,NA,NA,NA,NA,NA,NA,NA,NA,NA,NA,NA,NA,NA
NA,"flanker_test",NA,"image-keyboard-response","184","1702712","0.0-5.0-12.0-0.0","2","2020-1-7 6:35:7","MOUSE",NA,NA,NA,NA,NA,"incongruent","right","FALSE",NA,NA,NA,NA,NA,NA
"653","flanker_test","37","image-keyboard-response","185","1704356","0.0-5.0-12.0-0.1","2","2020-1-7 6:35:7","MOUSE",NA,NA,NA,NA,NA,"incongruent","left","TRUE",NA,NA,NA,NA,NA,NA
"440","flanker_test","39","image-keyboard-response","186","1705487","0.0-5.0-12.0-0.2","2","2020-1-7 6:35:7","MOUSE",NA,NA,NA,NA,NA,"congruent","right","TRUE",NA,NA,NA,NA,NA,NA
"617","flanker_test","37","image-keyboard-response","187","1706970","0.0-5.0-12.0-0.3","2","2020-1-7 6:35:7","MOUSE",NA,NA,NA,NA,NA,"congruent","left","TRUE",NA,NA,NA,NA,NA,NA
"33988","sort_trial",NA,"free-sort","188","1741621","0.0-5.0-13.0","2","2020-1-7 6:35:7","MOUSE",NA,NA,NA,NA,NA,NA,NA,NA,"[{""cat"":0,""src"":8,""x"":11,""y"":202},{""cat"":0,""src"":7,""x"":43,""y"":59},{""cat"":0,""src"":11,""x"":71,""y"":497},{""cat"":13,""src"":19,""x"":61,""y"":255},{""cat"":13,""src"":3,""x"":49,""y"":375},{""cat"":13,""src"":5,""x"":70,""y"":315},{""cat"":3,""src"":13,""x"":22,""y"":17},{""cat"":3,""src"":0,""x"":76,""y"":424},{""cat"":3,""src"":8,""x"":11,""y"":140}]","[{""cat"":""0"",""src"":""7"",""x"":0,""y"":0},{""cat"":""0"",""src"":""8"",""x"":0,""y"":0},{""cat"":""0"",""src"":""11"",""x"":0,""y"":0},{""cat"":""13"",""src"":""19"",""x"":0,""y"":0},{""cat"":""13"",""src"":""5"",""x"":0,""y"":0},{""cat"":""13"",""src"":""3"",""x"":0,""y"":0},{""cat"":""3"",""src"":""13"",""x"":0,""y"":0},{""cat"":""3"",""src"":""0"",""x"":0,""y"":0},{""cat"":""3"",""src"":""8"",""x"":0,""y"":0}]","[{""cat"":0,""src"":7,""loc"":8},{""cat"":0,""src"":8,""loc"":7},{""cat"":0,""src"":11,""loc"":6},{""cat"":13,""src"":19,""loc"":5},{""cat"":13,""src"":5,""loc"":4},{""cat"":13,""src"":3,""loc"":3},{""cat"":3,""src"":13,""loc"":2},{""cat"":3,""src"":0,""loc"":0},{""cat"":3,""src"":8,""loc"":1}]","7","3,3,3,13,13,13,0,0,0,0,8,13,3,5,19,11,8,7,0,1,2,3,4,5,6,7,8,7,8,6,5,4,3,2,1,0",NA
"2588","sort_feedback","32","html-keyboard-response","189","1744214","0.0-5.0-14.0","2","2020-1-7 6:35:7","MOUSE",NA,NA,NA,NA,NA,NA,NA,NA,NA,NA,NA,NA,NA,NA
"19960","setup3",NA,"animation","190","1764175","0.0-5.0-15.0","2","2020-1-7 6:35:7","MOUSE",NA,NA,"[{""cat"":14,""src"":13,""loc"":3},{""cat"":17,""src"":8,""loc"":2},{""cat"":15,""src"":1,""loc"":6},{""cat"":17,""src"":10,""loc"":1},{""cat"":15,""src"":10,""loc"":8},{""cat"":14,""src"":5,""loc"":4},{""cat"":17,""src"":4,""loc"":0},{""cat"":15,""src"":2,""loc"":7},{""cat"":14,""src"":18,""loc"":5}]","3","1106,1104,1104,1126,1103,1104,1104,1104,1103,10002",NA,NA,NA,NA,NA,NA,NA,NA,NA
"1590","flanker_instructions","39","html-keyboard-response","191","1765769","0.0-5.0-16.0","2","2020-1-7 6:35:7","MOUSE",NA,NA,NA,NA,NA,NA,NA,NA,NA,NA,NA,NA,NA,NA
"801","flanker_test","37","image-keyboard-response","192","1767576","0.0-5.0-17.0-0.0","2","2020-1-7 6:35:7","MOUSE",NA,NA,NA,NA,NA,"incongruent","left","TRUE",NA,NA,NA,NA,NA,NA
"573","flanker_test","39","image-keyboard-response","193","1769021","0.0-5.0-17.0-0.1","2","2020-1-7 6:35:7","MOUSE",NA,NA,NA,NA,NA,"congruent","right","TRUE",NA,NA,NA,NA,NA,NA
"669","flanker_test","39","image-keyboard-response","194","1770051","0.0-5.0-17.0-0.2","2","2020-1-7 6:35:7","MOUSE",NA,NA,NA,NA,NA,"incongruent","right","TRUE",NA,NA,NA,NA,NA,NA
"503","flanker_test","37","image-keyboard-response","195","1771329","0.0-5.0-17.0-0.3","2","2020-1-7 6:35:7","MOUSE",NA,NA,NA,NA,NA,"congruent","left","TRUE",NA,NA,NA,NA,NA,NA
"27350","sort_trial",NA,"free-sort","196","1799718","0.0-5.0-18.0","2","2020-1-7 6:35:7","MOUSE",NA,NA,NA,NA,NA,NA,NA,NA,"[{""cat"":14,""src"":13,""x"":27,""y"":260},{""cat"":17,""src"":8,""x"":6,""y"":77},{""cat"":15,""src"":1,""x"":38,""y"":313},{""cat"":17,""src"":10,""x"":37,""y"":5},{""cat"":15,""src"":10,""x"":22,""y"":368},{""cat"":14,""src"":5,""x"":0,""y"":485},{""cat"":17,""src"":4,""x"":33,""y"":195},{""cat"":15,""src"":2,""x"":10,""y"":427},{""cat"":14,""src"":18,""x"":29,""y"":129}]","[{""cat"":""14"",""src"":""18"",""x"":0,""y"":0},{""cat"":""14"",""src"":""5"",""x"":0,""y"":0},{""cat"":""14"",""src"":""13"",""x"":0,""y"":0},{""cat"":""17"",""src"":""8"",""x"":0,""y"":0},{""cat"":""17"",""src"":""10"",""x"":0,""y"":0},{""cat"":""17"",""src"":""4"",""x"":0,""y"":0},{""cat"":""15"",""src"":""1"",""x"":0,""y"":0},{""cat"":""15"",""src"":""10"",""x"":0,""y"":0},{""cat"":""15"",""src"":""2"",""x"":0,""y"":0}]","[{""cat"":14,""src"":18,""loc"":5},{""cat"":14,""src"":5,""loc"":4},{""cat"":14,""src"":13,""loc"":3},{""cat"":17,""src"":8,""loc"":1},{""cat"":17,""src"":10,""loc"":0},{""cat"":17,""src"":4,""loc"":2},{""cat"":15,""src"":1,""loc"":6},{""cat"":15,""src"":10,""loc"":8},{""cat"":15,""src"":2,""loc"":7}]","6","17,17,17,14,14,14,15,15,15,10,8,4,13,5,18,1,2,10,0,1,2,3,4,5,6,7,8,4,3,5,2,1,0,6,8,7",NA
"1908","sort_feedback","32","html-keyboard-response","197","1801632","0.0-5.0-19.0","2","2020-1-7 6:35:7","MOUSE",NA,NA,NA,NA,NA,NA,NA,NA,NA,NA,NA,NA,NA,NA
"19940","setup5",NA,"animation","198","1821574","0.0-5.0-20.0","2","2020-1-7 6:35:7","MOUSE",NA,NA,"[{""cat"":9,""src"":1,""loc"":2},{""cat"":1,""src"":0,""loc"":8},{""cat"":33,""src"":19,""loc"":3},{""cat"":33,""src"":7,""loc"":0},{""cat"":9,""src"":15,""loc"":6},{""cat"":1,""src"":2,""loc"":5},{""cat"":33,""src"":3,""loc"":7},{""cat"":9,""src"":5,""loc"":4},{""cat"":1,""src"":11,""loc"":1}]","5","1107,1104,1102,1104,1103,1103,1104,1104,1104,10004",NA,NA,NA,NA,NA,NA,NA,NA,NA
"2034","flanker_instructions","39","html-keyboard-response","199","1823613","0.0-5.0-21.0","2","2020-1-7 6:35:7","MOUSE",NA,NA,NA,NA,NA,NA,NA,NA,NA,NA,NA,NA,NA,NA
"525","flanker_test","39","image-keyboard-response","200","1825144","0.0-5.0-22.0-0.0","2","2020-1-7 6:35:7","MOUSE",NA,NA,NA,NA,NA,"congruent","right","TRUE",NA,NA,NA,NA,NA,NA
"597","flanker_test","37","image-keyboard-response","201","1826620","0.0-5.0-22.0-0.1","2","2020-1-7 6:35:7","MOUSE",NA,NA,NA,NA,NA,"congruent","left","TRUE",NA,NA,NA,NA,NA,NA
"738","flanker_test","37","image-keyboard-response","202","1827920","0.0-5.0-22.0-0.2","2","2020-1-7 6:35:7","MOUSE",NA,NA,NA,NA,NA,"incongruent","left","TRUE",NA,NA,NA,NA,NA,NA
"730","flanker_test","39","image-keyboard-response","203","1829523","0.0-5.0-22.0-0.3","2","2020-1-7 6:35:7","MOUSE",NA,NA,NA,NA,NA,"incongruent","right","TRUE",NA,NA,NA,NA,NA,NA
"40077","sort_trial",NA,"free-sort","204","1870392","0.0-5.0-23.0","2","2020-1-7 6:35:7","MOUSE",NA,NA,NA,NA,NA,NA,NA,NA,"[{""cat"":9,""src"":1,""x"":27,""y"":371},{""cat"":1,""src"":0,""x"":69,""y"":78},{""cat"":33,""src"":19,""x"":1,""y"":324},{""cat"":33,""src"":7,""x"":51,""y"":255},{""cat"":9,""src"":15,""x"":5,""y"":28},{""cat"":1,""src"":2,""x"":77,""y"":190},{""cat"":33,""src"":3,""x"":48,""y"":138},{""cat"":9,""src"":5,""x"":79,""y"":446},{""cat"":1,""src"":11,""x"":42,""y"":502}]","[{""cat"":""33"",""src"":""19"",""x"":0,""y"":0},{""cat"":""33"",""src"":""3"",""x"":0,""y"":0},{""cat"":""33"",""src"":""7"",""x"":0,""y"":0},{""cat"":""9"",""src"":""15"",""x"":0,""y"":0},{""cat"":""1"",""src"":""11"",""x"":0,""y"":0},{""cat"":""1"",""src"":""2"",""x"":0,""y"":0},{""cat"":""1"",""src"":""0"",""x"":0,""y"":0},{""cat"":""9"",""src"":""1"",""x"":0,""y"":0},{""cat"":""9"",""src"":""5"",""x"":0,""y"":0}]","[{""cat"":33,""src"":19,""loc"":3},{""cat"":33,""src"":3,""loc"":0},{""cat"":33,""src"":7,""loc"":7},{""cat"":9,""src"":15,""loc"":6},{""cat"":1,""src"":11,""loc"":1},{""cat"":1,""src"":2,""loc"":5},{""cat"":1,""src"":0,""loc"":8},{""cat"":9,""src"":1,""loc"":2},{""cat"":9,""src"":5,""loc"":4}]","7","33,1,9,33,9,1,9,33,1,3,11,1,19,5,2,15,7,0,0,1,2,3,4,5,6,7,8,1,4,7,0,8,5,3,2,6",NA
"2076","sort_feedback","32","html-keyboard-response","205","1872473","0.0-5.0-24.0","2","2020-1-7 6:35:7","MOUSE",NA,NA,NA,NA,NA,NA,NA,NA,NA,NA,NA,NA,NA,NA
"19944","setup2",NA,"animation","206","1892418","0.0-5.0-25.0","2","2020-1-7 6:35:7","MOUSE",NA,NA,"[{""cat"":19,""src"":8,""loc"":4},{""cat"":28,""src"":19,""loc"":5},{""cat"":12,""src"":0,""loc"":3},{""cat"":12,""src"":14,""loc"":0},{""cat"":28,""src"":11,""loc"":1},{""cat"":19,""src"":1,""loc"":2},{""cat"":12,""src"":6,""loc"":6},{""cat"":28,""src"":8,""loc"":7},{""cat"":19,""src"":14,""loc"":8}]","2","1108,1104,1106,1104,1104,1103,1103,1104,1104,10003",NA,NA,NA,NA,NA,NA,NA,NA,NA
"1640","flanker_instructions","39","html-keyboard-response","207","1894063","0.0-5.0-26.0","2","2020-1-7 6:35:7","MOUSE",NA,NA,NA,NA,NA,NA,NA,NA,NA,NA,NA,NA,NA,NA
"578","flanker_test","37","image-keyboard-response","208","1895647","0.0-5.0-27.0-0.0","2","2020-1-7 6:35:7","MOUSE",NA,NA,NA,NA,NA,"congruent","left","TRUE",NA,NA,NA,NA,NA,NA
"539","flanker_test","39","image-keyboard-response","209","1897005","0.0-5.0-27.0-0.1","2","2020-1-7 6:35:7","MOUSE",NA,NA,NA,NA,NA,"incongruent","right","TRUE",NA,NA,NA,NA,NA,NA
"634","flanker_test","37","image-keyboard-response","210","1898321","0.0-5.0-27.0-0.2","2","2020-1-7 6:35:7","MOUSE",NA,NA,NA,NA,NA,"incongruent","left","TRUE",NA,NA,NA,NA,NA,NA
"668","flanker_test","39","image-keyboard-response","211","1900056","0.0-5.0-27.0-0.3","2","2020-1-7 6:35:7","MOUSE",NA,NA,NA,NA,NA,"congruent","right","TRUE",NA,NA,NA,NA,NA,NA
"36888","sort_trial",NA,"free-sort","212","1937491","0.0-5.0-28.0","2","2020-1-7 6:35:7","MOUSE",NA,NA,NA,NA,NA,NA,NA,NA,"[{""cat"":19,""src"":8,""x"":66,""y"":366},{""cat"":28,""src"":19,""x"":5,""y"":305},{""cat"":12,""src"":0,""x"":57,""y"":502},{""cat"":12,""src"":14,""x"":22,""y"":146},{""cat"":28,""src"":11,""x"":30,""y"":28},{""cat"":19,""src"":1,""x"":30,""y"":72},{""cat"":12,""src"":6,""x"":53,""y"":206},{""cat"":28,""src"":8,""x"":26,""y"":433},{""cat"":19,""src"":14,""x"":13,""y"":260}]","[{""cat"":""28"",""src"":""8"",""x"":26,""y"":433},{""cat"":""12"",""src"":""6"",""x"":0,""y"":0},{""cat"":""28"",""src"":""19"",""x"":18,""y"":308},{""cat"":""19"",""src"":""8"",""x"":0,""y"":0},{""cat"":""28"",""src"":""8"",""x"":0,""y"":0},{""cat"":""12"",""src"":""0"",""x"":0,""y"":0},{""cat"":""28"",""src"":""11"",""x"":0,""y"":0},{""cat"":""12"",""src"":""14"",""x"":0,""y"":0},{""cat"":""19"",""src"":""1"",""x"":0,""y"":0},{""cat"":""19"",""src"":""14"",""x"":0,""y"":0},{""cat"":""28"",""src"":""19"",""x"":0,""y"":0}]","[{""cat"":12,""src"":6,""loc"":5},{""cat"":19,""src"":8,""loc"":4},{""cat"":28,""src"":8,""loc"":7},{""cat"":12,""src"":0,""loc"":8},{""cat"":28,""src"":11,""loc"":1},{""cat"":12,""src"":14,""loc"":0},{""cat"":19,""src"":1,""loc"":2},{""cat"":19,""src"":14,""loc"":6},{""cat"":28,""src"":19,""loc"":3}]","5","12,28,19,28,19,12,19,28,12,14,11,1,19,8,6,14,8,0,0,1,2,3,4,5,6,7,8,5,4,6,8,1,0,7,2,3",NA
"2608","sort_feedback","32","html-keyboard-response","213","1940104","0.0-5.0-29.0","2","2020-1-7 6:35:7","MOUSE",NA,NA,NA,NA,NA,NA,NA,NA,NA,NA,NA,NA,NA,NA
"19941","setup3",NA,"animation","214","1960046","0.0-5.0-30.0","2","2020-1-7 6:35:7","MOUSE",NA,NA,"[{""cat"":12,""src"":13,""loc"":6},{""cat"":17,""src"":19,""loc"":5},{""cat"":9,""src"":17,""loc"":1},{""cat"":12,""src"":15,""loc"":7},{""cat"":17,""src"":14,""loc"":4},{""cat"":9,""src"":5,""loc"":2},{""cat"":12,""src"":3,""loc"":8},{""cat"":9,""src"":12,""loc"":0},{""cat"":17,""src"":16,""loc"":3}]","3","1105,1104,1104,1104,1104,1105,1104,1104,1103,10004",NA,NA,NA,NA,NA,NA,NA,NA,NA
"1665","flanker_instructions","39","html-keyboard-response","215","1961716","0.0-5.0-31.0","2","2020-1-7 6:35:7","MOUSE",NA,NA,NA,NA,NA,NA,NA,NA,NA,NA,NA,NA,NA,NA
"540","flanker_test","39","image-keyboard-response","216","1963264","0.0-5.0-32.0-0.0","2","2020-1-7 6:35:7","MOUSE",NA,NA,NA,NA,NA,"congruent","right","TRUE",NA,NA,NA,NA,NA,NA
"477","flanker_test","39","image-keyboard-response","217","1964273","0.0-5.0-32.0-0.1","2","2020-1-7 6:35:7","MOUSE",NA,NA,NA,NA,NA,"incongruent","left","FALSE",NA,NA,NA,NA,NA,NA
"740","flanker_test","39","image-keyboard-response","218","1965690","0.0-5.0-32.0-0.2","2","2020-1-7 6:35:7","MOUSE",NA,NA,NA,NA,NA,"incongruent","right","TRUE",NA,NA,NA,NA,NA,NA
"548","flanker_test","37","image-keyboard-response","219","1967078","0.0-5.0-32.0-0.3","2","2020-1-7 6:35:7","MOUSE",NA,NA,NA,NA,NA,"congruent","left","TRUE",NA,NA,NA,NA,NA,NA
"42995","sort_trial",NA,"free-sort","220","2010410","0.0-5.0-33.0","2","2020-1-7 6:35:7","MOUSE",NA,NA,NA,NA,NA,NA,NA,NA,"[{""cat"":12,""src"":13,""x"":26,""y"":7},{""cat"":17,""src"":19,""x"":0,""y"":260},{""cat"":9,""src"":17,""x"":43,""y"":447},{""cat"":12,""src"":15,""x"":44,""y"":359},{""cat"":17,""src"":14,""x"":18,""y"":184},{""cat"":9,""src"":5,""x"":79,""y"":314},{""cat"":12,""src"":3,""x"":75,""y"":498},{""cat"":9,""src"":12,""x"":0,""y"":130},{""cat"":17,""src"":16,""x"":49,""y"":72}]","[{""cat"":""12"",""src"":""15"",""x"":0,""y"":0},{""cat"":""17"",""src"":""16"",""x"":0,""y"":0},{""cat"":""17"",""src"":""14"",""x"":0,""y"":0},{""cat"":""9"",""src"":""17"",""x"":0,""y"":0},{""cat"":""9"",""src"":""5"",""x"":0,""y"":0},{""cat"":""17"",""src"":""19"",""x"":0,""y"":0},{""cat"":""12"",""src"":""3"",""x"":0,""y"":0},{""cat"":""9"",""src"":""12"",""x"":0,""y"":0},{""cat"":""12"",""src"":""13"",""x"":0,""y"":0}]","[{""cat"":12,""src"":15,""loc"":7},{""cat"":17,""src"":16,""loc"":3},{""cat"":17,""src"":14,""loc"":8},{""cat"":9,""src"":17,""loc"":1},{""cat"":9,""src"":5,""loc"":6},{""cat"":17,""src"":19,""loc"":5},{""cat"":12,""src"":3,""loc"":0},{""cat"":9,""src"":12,""loc"":2},{""cat"":12,""src"":13,""loc"":4}]","4","12,9,9,17,12,17,9,12,17,3,17,12,16,13,19,5,15,14,0,1,2,3,4,5,6,7,8,6,3,7,1,8,5,4,0,2",NA
"4422","sort_feedback","32","html-keyboard-response","221","2014838","0.0-5.0-34.0","2","2020-1-7 6:35:7","MOUSE",NA,NA,NA,NA,NA,NA,NA,NA,NA,NA,NA,NA,NA,NA
"19938","setup4",NA,"animation","222","2034778","0.0-5.0-35.0","2","2020-1-7 6:35:7","MOUSE",NA,NA,"[{""cat"":8,""src"":8,""loc"":6},{""cat"":8,""src"":5,""loc"":5},{""cat"":8,""src"":6,""loc"":0},{""cat"":13,""src"":14,""loc"":3},{""cat"":13,""src"":1,""loc"":8},{""cat"":13,""src"":12,""loc"":1},{""cat"":11,""src"":12,""loc"":7},{""cat"":11,""src"":8,""loc"":4},{""cat"":11,""src"":1,""loc"":2}]","4","1106,1103,1102,1103,1104,1105,1104,1103,1104,10004",NA,NA,NA,NA,NA,NA,NA,NA,NA
"1614","flanker_instructions","37","html-keyboard-response","223","2036398","0.0-5.0-36.0","2","2020-1-7 6:35:7","MOUSE",NA,NA,NA,NA,NA,NA,NA,NA,NA,NA,NA,NA,NA,NA
"709","flanker_test","39","image-keyboard-response","224","2038113","0.0-5.0-37.0-0.0","2","2020-1-7 6:35:7","MOUSE",NA,NA,NA,NA,NA,"incongruent","right","TRUE",NA,NA,NA,NA,NA,NA
"665","flanker_test","37","image-keyboard-response","225","2039730","0.0-5.0-37.0-0.1","2","2020-1-7 6:35:7","MOUSE",NA,NA,NA,NA,NA,"congruent","left","TRUE",NA,NA,NA,NA,NA,NA
"758","flanker_test","37","image-keyboard-response","226","2041146","0.0-5.0-37.0-0.2","2","2020-1-7 6:35:7","MOUSE",NA,NA,NA,NA,NA,"incongruent","left","TRUE",NA,NA,NA,NA,NA,NA
"558","flanker_test","39","image-keyboard-response","227","2042303","0.0-5.0-37.0-0.3","2","2020-1-7 6:35:7","MOUSE",NA,NA,NA,NA,NA,"congruent","right","TRUE",NA,NA,NA,NA,NA,NA
"28829","sort_trial",NA,"free-sort","228","2071881","0.0-5.0-38.0","2","2020-1-7 6:35:7","MOUSE",NA,NA,NA,NA,NA,NA,NA,NA,"[{""cat"":8,""src"":8,""x"":23,""y"":128},{""cat"":8,""src"":5,""x"":34,""y"":490},{""cat"":8,""src"":6,""x"":56,""y"":202},{""cat"":13,""src"":14,""x"":18,""y"":327},{""cat"":13,""src"":1,""x"":57,""y"":377},{""cat"":13,""src"":12,""x"":61,""y"":2},{""cat"":11,""src"":12,""x"":77,""y"":443},{""cat"":11,""src"":8,""x"":65,""y"":240},{""cat"":11,""src"":1,""x"":33,""y"":69}]","[{""cat"":""13"",""src"":""12"",""x"":0,""y"":0},{""cat"":""8"",""src"":""6"",""x"":0,""y"":0},{""cat"":""11"",""src"":""1"",""x"":0,""y"":0},{""cat"":""8"",""src"":""8"",""x"":0,""y"":0},{""cat"":""13"",""src"":""14"",""x"":0,""y"":0},{""cat"":""13"",""src"":""1"",""x"":0,""y"":0},{""cat"":""11"",""src"":""8"",""x"":0,""y"":0},{""cat"":""11"",""src"":""12"",""x"":0,""y"":0},{""cat"":""8"",""src"":""5"",""x"":0,""y"":0}]","[{""cat"":13,""src"":12,""loc"":1},{""cat"":8,""src"":6,""loc"":0},{""cat"":11,""src"":1,""loc"":2},{""cat"":8,""src"":8,""loc"":6},{""cat"":13,""src"":14,""loc"":3},{""cat"":13,""src"":1,""loc"":8},{""cat"":11,""src"":8,""loc"":4},{""cat"":11,""src"":12,""loc"":5},{""cat"":8,""src"":5,""loc"":7}]","7","8,13,11,13,11,11,8,8,13,6,12,1,14,8,12,8,5,1,0,1,2,3,4,5,6,7,8,1,0,2,4,6,7,3,8,5",NA
"2434","sort_feedback","32","html-keyboard-response","229","2074322","0.0-5.0-39.0","2","2020-1-7 6:35:7","MOUSE",NA,NA,NA,NA,NA,NA,NA,NA,NA,NA,NA,NA,NA,NA
"19943","setup5",NA,"animation","230","2094267","0.0-5.0-40.0","2","2020-1-7 6:35:7","MOUSE",NA,NA,"[{""cat"":4,""src"":12,""loc"":6},{""cat"":33,""src"":14,""loc"":3},{""cat"":28,""src"":9,""loc"":0},{""cat"":33,""src"":6,""loc"":7},{""cat"":4,""src"":5,""loc"":1},{""cat"":28,""src"":2,""loc"":5},{""cat"":33,""src"":3,""loc"":2},{""cat"":28,""src"":6,""loc"":8},{""cat"":4,""src"":17,""loc"":4}]","5","1109,1104,1102,1105,1106,1104,1105,1104,1103,10001",NA,NA,NA,NA,NA,NA,NA,NA,NA
"1502","flanker_instructions","38","html-keyboard-response","231","2095773","0.0-5.0-41.0","2","2020-1-7 6:35:7","MOUSE",NA,NA,NA,NA,NA,NA,NA,NA,NA,NA,NA,NA,NA,NA
NA,"flanker_test",NA,"image-keyboard-response","232","2097680","0.0-5.0-42.0-0.0","2","2020-1-7 6:35:7","MOUSE",NA,NA,NA,NA,NA,"congruent","left","FALSE",NA,NA,NA,NA,NA,NA
"597","flanker_test","39","image-keyboard-response","233","2099418","0.0-5.0-42.0-0.1","2","2020-1-7 6:35:7","MOUSE",NA,NA,NA,NA,NA,"incongruent","right","TRUE",NA,NA,NA,NA,NA,NA
"691","flanker_test","37","image-keyboard-response","234","2100703","0.0-5.0-42.0-0.2","2","2020-1-7 6:35:7","MOUSE",NA,NA,NA,NA,NA,"incongruent","left","TRUE",NA,NA,NA,NA,NA,NA
"571","flanker_test","39","image-keyboard-response","235","2102287","0.0-5.0-42.0-0.3","2","2020-1-7 6:35:7","MOUSE",NA,NA,NA,NA,NA,"congruent","right","TRUE",NA,NA,NA,NA,NA,NA
"42899","sort_trial",NA,"free-sort","236","2146105","0.0-5.0-43.0","2","2020-1-7 6:35:7","MOUSE",NA,NA,NA,NA,NA,NA,NA,NA,"[{""cat"":4,""src"":12,""x"":47,""y"":194},{""cat"":33,""src"":14,""x"":81,""y"":81},{""cat"":28,""src"":9,""x"":17,""y"":132},{""cat"":33,""src"":6,""x"":41,""y"":420},{""cat"":4,""src"":5,""x"":53,""y"":255},{""cat"":28,""src"":2,""x"":48,""y"":27},{""cat"":33,""src"":3,""x"":67,""y"":305},{""cat"":28,""src"":6,""x"":44,""y"":488},{""cat"":4,""src"":17,""x"":73,""y"":367}]","[{""cat"":""4"",""src"":""12"",""x"":47,""y"":194},{""cat"":""4"",""src"":""17"",""x"":0,""y"":0},{""cat"":""4"",""src"":""5"",""x"":0,""y"":0},{""cat"":""33"",""src"":""6"",""x"":0,""y"":0},{""cat"":""33"",""src"":""14"",""x"":0,""y"":0},{""cat"":""33"",""src"":""3"",""x"":0,""y"":0},{""cat"":""4"",""src"":""12"",""x"":0,""y"":0},{""cat"":""28"",""src"":""9"",""x"":0,""y"":0},{""cat"":""28"",""src"":""2"",""x"":0,""y"":0},{""cat"":""28"",""src"":""6"",""x"":0,""y"":0}]","[{""cat"":4,""src"":17,""loc"":4},{""cat"":4,""src"":5,""loc"":1},{""cat"":33,""src"":6,""loc"":7},{""cat"":33,""src"":14,""loc"":3},{""cat"":33,""src"":3,""loc"":2},{""cat"":4,""src"":12,""loc"":8},{""cat"":28,""src"":9,""loc"":5},{""cat"":28,""src"":2,""loc"":6},{""cat"":28,""src"":6,""loc"":0}]","5","28,4,33,33,4,28,28,33,4,6,5,3,14,17,9,2,6,12,0,1,2,3,4,5,6,7,8,8,1,4,3,0,6,7,2,5",NA
"1651","sort_feedback","32","html-keyboard-response","237","2147761","0.0-5.0-44.0","2","2020-1-7 6:35:7","MOUSE",NA,NA,NA,NA,NA,NA,NA,NA,NA,NA,NA,NA,NA,NA
"19948","setup1",NA,"animation","238","2167710","0.0-5.0-45.0","2","2020-1-7 6:35:7","MOUSE",NA,NA,"[{""cat"":19,""src"":5,""loc"":6},{""cat"":19,""src"":6,""loc"":7},{""cat"":19,""src"":14,""loc"":8},{""cat"":26,""src"":18,""loc"":1},{""cat"":26,""src"":13,""loc"":2},{""cat"":26,""src"":9,""loc"":0},{""cat"":3,""src"":6,""loc"":4},{""cat"":3,""src"":14,""loc"":3},{""cat"":3,""src"":16,""loc"":5}]","1","1108,1104,1105,1103,1104,1104,1109,1105,1104,10002",NA,NA,NA,NA,NA,NA,NA,NA,NA
"2819","flanker_instructions","37","html-keyboard-response","239","2170533","0.0-5.0-46.0","2","2020-1-7 6:35:7","MOUSE",NA,NA,NA,NA,NA,NA,NA,NA,NA,NA,NA,NA,NA,NA
"650","flanker_test","39","image-keyboard-response","240","2172190","0.0-5.0-47.0-0.0","2","2020-1-7 6:35:7","MOUSE",NA,NA,NA,NA,NA,"congruent","right","TRUE",NA,NA,NA,NA,NA,NA
"657","flanker_test","39","image-keyboard-response","241","2173421","0.0-5.0-47.0-0.1","2","2020-1-7 6:35:7","MOUSE",NA,NA,NA,NA,NA,"incongruent","right","TRUE",NA,NA,NA,NA,NA,NA
"671","flanker_test","37","image-keyboard-response","242","2175210","0.0-5.0-47.0-0.2","2","2020-1-7 6:35:7","MOUSE",NA,NA,NA,NA,NA,"incongruent","left","TRUE",NA,NA,NA,NA,NA,NA
"514","flanker_test","37","image-keyboard-response","243","2176876","0.0-5.0-47.0-0.3","2","2020-1-7 6:35:7","MOUSE",NA,NA,NA,NA,NA,"congruent","left","TRUE",NA,NA,NA,NA,NA,NA
"45682","sort_trial",NA,"free-sort","244","2223092","0.0-5.0-48.0","2","2020-1-7 6:35:7","MOUSE",NA,NA,NA,NA,NA,NA,NA,NA,"[{""cat"":19,""src"":5,""x"":72,""y"":80},{""cat"":19,""src"":6,""x"":66,""y"":199},{""cat"":19,""src"":14,""x"":7,""y"":438},{""cat"":26,""src"":18,""x"":1,""y"":312},{""cat"":26,""src"":13,""x"":24,""y"":9},{""cat"":26,""src"":9,""x"":17,""y"":119},{""cat"":3,""src"":6,""x"":65,""y"":268},{""cat"":3,""src"":14,""x"":15,""y"":368},{""cat"":3,""src"":16,""x"":77,""y"":482}]","[{""cat"":""26"",""src"":""13"",""x"":0,""y"":0},{""cat"":""19"",""src"":""5"",""x"":0,""y"":0},{""cat"":""19"",""src"":""6"",""x"":0,""y"":0},{""cat"":""19"",""src"":""14"",""x"":0,""y"":0},{""cat"":""3"",""src"":""14"",""x"":15,""y"":368},{""cat"":""26"",""src"":""9"",""x"":0,""y"":0},{""cat"":""26"",""src"":""18"",""x"":1,""y"":312},{""cat"":""3"",""src"":""6"",""x"":0,""y"":0},{""cat"":""3"",""src"":""16"",""x"":0,""y"":0},{""cat"":""26"",""src"":""18"",""x"":0,""y"":0},{""cat"":""3"",""src"":""14"",""x"":0,""y"":0}]","[{""cat"":26,""src"":13,""loc"":2},{""cat"":19,""src"":5,""loc"":6},{""cat"":19,""src"":6,""loc"":8},{""cat"":19,""src"":14,""loc"":7},{""cat"":26,""src"":9,""loc"":0},{""cat"":3,""src"":6,""loc"":4},{""cat"":3,""src"":16,""loc"":3},{""cat"":26,""src"":18,""loc"":1},{""cat"":3,""src"":14,""loc"":5}]","5","26,26,26,3,3,3,19,19,19,9,18,13,16,6,14,5,14,6,0,1,2,3,4,5,6,7,8,4,7,0,6,5,8,1,3,2",NA
"2969","sort_feedback","32","html-keyboard-response","245","2226067","0.0-5.0-49.0","2","2020-1-7 6:35:7","MOUSE",NA,NA,NA,NA,NA,NA,NA,NA,NA,NA,NA,NA,NA,NA
"3096","demographics",NA,"html-button-response","246","2229168","0.0-6.0-0.0","2","2020-1-7 6:35:7","MOUSE","0",NA,NA,NA,NA,NA,NA,NA,NA,NA,NA,NA,NA,NA
"14479","workerID",NA,"survey-text","247","2243651","0.0-6.0-1.0","2","2020-1-7 6:35:7","MOUSE",NA,NA,NA,NA,NA,NA,NA,NA,NA,NA,NA,NA,NA,"{""Q0"":""AOS2PVHT2HYTL""}"
"15149","attn_check",NA,"survey-multi-choice","248","2258819","0.0-6.0-2.0","2","2020-1-7 6:35:7","MOUSE",NA,NA,NA,NA,NA,NA,NA,NA,NA,NA,NA,NA,NA,"{""Q0"":""MOUSE""}"
"6408","age",NA,"survey-text","249","2265234","0.0-6.0-3.0","2","2020-1-7 6:35:7","MOUSE",NA,NA,NA,NA,NA,NA,NA,NA,NA,NA,NA,NA,NA,"{""Q0"":""65""}"
"3075","gender",NA,"survey-multi-choice","250","2268317","0.0-6.0-4.0","2","2020-1-7 6:35:7","MOUSE",NA,NA,NA,NA,NA,NA,NA,NA,NA,NA,NA,NA,NA,"{""Q0"":""Female""}"
"3500","ethnic",NA,"survey-multi-choice","251","2271825","0.0-6.0-5.0","2","2020-1-7 6:35:7","MOUSE",NA,NA,NA,NA,NA,NA,NA,NA,NA,NA,NA,NA,NA,"{""Q0"":""Not Hispanic or Latino""}"
"3640","race",NA,"survey-multi-select","252","2275477","0.0-6.0-6.0","2","2020-1-7 6:35:7","MOUSE",NA,NA,NA,NA,NA,NA,NA,NA,NA,NA,NA,NA,NA,"{""Q0"":[""White""]}"
"2999","english",NA,"survey-multi-choice","253","2278483","0.0-6.0-7.0","2","2020-1-7 6:35:7","MOUSE",NA,NA,NA,NA,NA,NA,NA,NA,NA,NA,NA,NA,NA,"{""Q0"":""Yes""}"
"3972","understand",NA,"survey-multi-choice","254","2282462","0.0-6.0-8.0","2","2020-1-7 6:35:7","MOUSE",NA,NA,NA,NA,NA,NA,NA,NA,NA,NA,NA,NA,NA,"{""Q0"":""No""}"
"43450","strategies",NA,"survey-text","255","2325917","0.0-6.0-9.0","2","2020-1-7 6:35:7","MOUSE",NA,NA,NA,NA,NA,NA,NA,NA,NA,NA,NA,NA,NA,"{""Q0"":""Thought of the rooms separately and repeated the words to myself.  Tried to group words.""}"
"22678","comments",NA,"survey-text","256","2348599","0.0-6.0-10.0","2","2020-1-7 6:35:7","MOUSE",NA,NA,NA,NA,NA,NA,NA,NA,NA,NA,NA,NA,NA,"{""Q0"":""I get nervous because I feel like I am competing with myself!!!!""}"
"2465","study_end",NA,"html-button-response","257","2351069","0.0-7.0","2","2020-1-7 6:35:7","MOUSE","0",NA,NA,NA,NA,NA,NA,NA,NA,NA,NA,NA,NA,NA
