"rt","stimulus","key_press","trial_type","trial_index","time_elapsed","internal_node_id","session","startTime","attn_word","button_pressed","view_history","animation_sequence","condition","time_sequence","stim_type","direction","correct","init_locations","moves","final_locations","sort_correct","finalLocations","responses"
"106906","welcome","32","html-keyboard-response","0","106917","0.0-0.0","2","2020-1-7 8:47:44","SEAL",NA,NA,NA,NA,NA,NA,NA,NA,NA,NA,NA,NA,NA,NA
"6818","consent",NA,"html-button-response","1","113739","0.0-1.0","2","2020-1-7 8:47:44","SEAL","0",NA,NA,NA,NA,NA,NA,NA,NA,NA,NA,NA,NA,NA
"97580","instructions",NA,"instructions","2","211321","0.0-2.0","2","2020-1-7 8:47:44","SEAL",NA,"[{""page_index"":0,""viewing_time"":21139},{""page_index"":1,""viewing_time"":8523},{""page_index"":2,""viewing_time"":8940},{""page_index"":3,""viewing_time"":4914},{""page_index"":4,""viewing_time"":8086},{""page_index"":5,""viewing_time"":45977}]",NA,NA,NA,NA,NA,NA,NA,NA,NA,NA,NA,NA
"6049","finalInstructions",NA,"html-button-response","3","217374","0.0-3.0-0.0","2","2020-1-7 8:47:44","SEAL","0",NA,NA,NA,NA,NA,NA,NA,NA,NA,NA,NA,NA,NA
"19987","setup1",NA,"animation","4","237363","0.0-3.0-1.0","2","2020-1-7 8:47:44","SEAL",NA,NA,"[{""cat"":5,""src"":15,""loc"":8},{""cat"":5,""src"":4,""loc"":7},{""cat"":5,""src"":6,""loc"":6},{""cat"":25,""src"":6,""loc"":4},{""cat"":25,""src"":0,""loc"":5},{""cat"":25,""src"":7,""loc"":3},{""cat"":9,""src"":4,""loc"":2},{""cat"":9,""src"":0,""loc"":1},{""cat"":9,""src"":1,""loc"":0}]","1","1105,1104,1103,1104,1103,1108,1117,1120,1115,10008",NA,NA,NA,NA,NA,NA,NA,NA,NA
"3629","flanker_instructions","37","html-keyboard-response","5","240998","0.0-3.0-2.0","2","2020-1-7 8:47:44","SEAL",NA,NA,NA,NA,NA,NA,NA,NA,NA,NA,NA,NA,NA,NA
"777","flanker_test","37","image-keyboard-response","6","242781","0.0-3.0-3.0-0.0","2","2020-1-7 8:47:44","SEAL",NA,NA,NA,NA,NA,"incongruent","left","TRUE",NA,NA,NA,NA,NA,NA
"589","flanker_test","39","image-keyboard-response","7","244473","0.0-3.0-3.0-0.1","2","2020-1-7 8:47:44","SEAL",NA,NA,NA,NA,NA,"congruent","right","TRUE",NA,NA,NA,NA,NA,NA
"670","flanker_test","37","image-keyboard-response","8","246253","0.0-3.0-3.0-0.2","2","2020-1-7 8:47:44","SEAL",NA,NA,NA,NA,NA,"congruent","left","TRUE",NA,NA,NA,NA,NA,NA
"659","flanker_test","39","image-keyboard-response","9","247754","0.0-3.0-3.0-0.3","2","2020-1-7 8:47:44","SEAL",NA,NA,NA,NA,NA,"incongruent","right","TRUE",NA,NA,NA,NA,NA,NA
"50214","sort_trial",NA,"free-sort","10","298641","0.0-3.0-4.0","2","2020-1-7 8:47:44","SEAL",NA,NA,NA,NA,NA,NA,NA,NA,"[{""cat"":5,""src"":15,""x"":58,""y"":317},{""cat"":5,""src"":4,""x"":53,""y"":25},{""cat"":5,""src"":6,""x"":3,""y"":88},{""cat"":25,""src"":6,""x"":74,""y"":369},{""cat"":25,""src"":0,""x"":26,""y"":189},{""cat"":25,""src"":7,""x"":41,""y"":438},{""cat"":9,""src"":4,""x"":27,""y"":120},{""cat"":9,""src"":0,""x"":20,""y"":266},{""cat"":9,""src"":1,""x"":36,""y"":487}]","[{""cat"":""9"",""src"":""0"",""x"":0,""y"":0},{""cat"":""9"",""src"":""1"",""x"":0,""y"":0},{""cat"":""9"",""src"":""4"",""x"":0,""y"":0},{""cat"":""25"",""src"":""0"",""x"":0,""y"":0},{""cat"":""25"",""src"":""6"",""x"":0,""y"":0},{""cat"":""25"",""src"":""7"",""x"":96,""y"":436},{""cat"":""25"",""src"":""7"",""x"":732,""y"":235},{""cat"":""25"",""src"":""7"",""x"":0,""y"":0},{""cat"":""5"",""src"":""15"",""x"":122,""y"":351},{""cat"":""5"",""src"":""15"",""x"":0,""y"":0},{""cat"":""5"",""src"":""6"",""x"":0,""y"":0},{""cat"":""5"",""src"":""4"",""x"":0,""y"":0}]","[{""cat"":9,""src"":0,""loc"":1},{""cat"":9,""src"":1,""loc"":0},{""cat"":9,""src"":4,""loc"":2},{""cat"":25,""src"":0,""loc"":5},{""cat"":25,""src"":6,""loc"":4},{""cat"":25,""src"":7,""loc"":3},{""cat"":5,""src"":15,""loc"":8},{""cat"":5,""src"":6,""loc"":6},{""cat"":5,""src"":4,""loc"":7}]","9","9,9,9,25,25,25,5,5,5,1,0,4,7,6,0,6,4,15,0,1,2,3,4,5,6,7,8,1,0,2,5,4,3,7,8,6",NA
"19329","sort_feedback","32","html-keyboard-response","11","317975","0.0-3.0-5.0","2","2020-1-7 8:47:44","SEAL",NA,NA,NA,NA,NA,NA,NA,NA,NA,NA,NA,NA,NA,NA
"19994","setup5",NA,"animation","12","337975","0.0-3.0-6.0","2","2020-1-7 8:47:44","SEAL",NA,NA,"[{""cat"":24,""src"":19,""loc"":7},{""cat"":27,""src"":6,""loc"":4},{""cat"":10,""src"":1,""loc"":2},{""cat"":27,""src"":7,""loc"":8},{""cat"":10,""src"":0,""loc"":5},{""cat"":24,""src"":9,""loc"":1},{""cat"":27,""src"":5,""loc"":0},{""cat"":10,""src"":5,""loc"":6},{""cat"":24,""src"":3,""loc"":3}]","5","1120,1102,1119,1103,1115,1103,1116,1108,1103,10005",NA,NA,NA,NA,NA,NA,NA,NA,NA
"3029","flanker_instructions","37","html-keyboard-response","13","341009","0.0-3.0-7.0","2","2020-1-7 8:47:44","SEAL",NA,NA,NA,NA,NA,NA,NA,NA,NA,NA,NA,NA,NA,NA
"641","flanker_test","37","image-keyboard-response","14","342671","0.0-3.0-8.0-0.0","2","2020-1-7 8:47:44","SEAL",NA,NA,NA,NA,NA,"incongruent","left","TRUE",NA,NA,NA,NA,NA,NA
"624","flanker_test","39","image-keyboard-response","15","343682","0.0-3.0-8.0-0.1","2","2020-1-7 8:47:44","SEAL",NA,NA,NA,NA,NA,"incongruent","right","TRUE",NA,NA,NA,NA,NA,NA
"516","flanker_test","37","image-keyboard-response","16","344938","0.0-3.0-8.0-0.2","2","2020-1-7 8:47:44","SEAL",NA,NA,NA,NA,NA,"congruent","left","TRUE",NA,NA,NA,NA,NA,NA
"514","flanker_test","39","image-keyboard-response","17","345877","0.0-3.0-8.0-0.3","2","2020-1-7 8:47:44","SEAL",NA,NA,NA,NA,NA,"congruent","right","TRUE",NA,NA,NA,NA,NA,NA
"49957","sort_trial",NA,"free-sort","18","396695","0.0-3.0-9.0","2","2020-1-7 8:47:44","SEAL",NA,NA,NA,NA,NA,NA,NA,NA,"[{""cat"":24,""src"":19,""x"":46,""y"":508},{""cat"":27,""src"":6,""x"":81,""y"":145},{""cat"":10,""src"":1,""x"":13,""y"":265},{""cat"":27,""src"":7,""x"":64,""y"":423},{""cat"":10,""src"":0,""x"":35,""y"":26},{""cat"":24,""src"":9,""x"":75,""y"":70},{""cat"":27,""src"":5,""x"":29,""y"":308},{""cat"":10,""src"":5,""x"":49,""y"":203},{""cat"":24,""src"":3,""x"":12,""y"":376}]","[{""cat"":""24"",""src"":""9"",""x"":0,""y"":0},{""cat"":""27"",""src"":""5"",""x"":0,""y"":0},{""cat"":""10"",""src"":""1"",""x"":0,""y"":0},{""cat"":""24"",""src"":""19"",""x"":0,""y"":0},{""cat"":""10"",""src"":""5"",""x"":0,""y"":0},{""cat"":""27"",""src"":""7"",""x"":0,""y"":0},{""cat"":""10"",""src"":""0"",""x"":0,""y"":0},{""cat"":""27"",""src"":""6"",""x"":0,""y"":0},{""cat"":""24"",""src"":""3"",""x"":0,""y"":0}]","[{""cat"":24,""src"":9,""loc"":1},{""cat"":27,""src"":5,""loc"":0},{""cat"":10,""src"":1,""loc"":2},{""cat"":24,""src"":19,""loc"":7},{""cat"":10,""src"":5,""loc"":6},{""cat"":27,""src"":7,""loc"":8},{""cat"":10,""src"":0,""loc"":5},{""cat"":27,""src"":6,""loc"":4},{""cat"":24,""src"":3,""loc"":3}]","9","27,24,10,24,27,10,10,24,27,5,9,1,3,6,0,5,19,7,0,1,2,3,4,5,6,7,8,1,0,2,8,7,6,4,3,5",NA
"15018","sort_feedback","32","html-keyboard-response","19","411716","0.0-3.0-10.0","2","2020-1-7 8:47:44","SEAL",NA,NA,NA,NA,NA,NA,NA,NA,NA,NA,NA,NA,NA,NA
"19991","setup3",NA,"animation","20","431710","0.0-3.0-11.0","2","2020-1-7 8:47:44","SEAL",NA,NA,"[{""cat"":9,""src"":19,""loc"":1},{""cat"":23,""src"":7,""loc"":5},{""cat"":25,""src"":4,""loc"":7},{""cat"":25,""src"":13,""loc"":8},{""cat"":23,""src"":18,""loc"":3},{""cat"":9,""src"":6,""loc"":0},{""cat"":25,""src"":2,""loc"":6},{""cat"":23,""src"":16,""loc"":4},{""cat"":9,""src"":7,""loc"":2}]","3","1114,1114,1107,1119,1104,1106,1107,1104,1106,10010",NA,NA,NA,NA,NA,NA,NA,NA,NA
"999","flanker_instructions","37","html-keyboard-response","21","432713","0.0-3.0-12.0","2","2020-1-7 8:47:44","SEAL",NA,NA,NA,NA,NA,NA,NA,NA,NA,NA,NA,NA,NA,NA
"729","flanker_test","37","image-keyboard-response","22","434445","0.0-3.0-13.0-0.0","2","2020-1-7 8:47:44","SEAL",NA,NA,NA,NA,NA,"incongruent","left","TRUE",NA,NA,NA,NA,NA,NA
"540","flanker_test","39","image-keyboard-response","23","435608","0.0-3.0-13.0-0.1","2","2020-1-7 8:47:44","SEAL",NA,NA,NA,NA,NA,"incongruent","right","TRUE",NA,NA,NA,NA,NA,NA
"557","flanker_test","37","image-keyboard-response","24","437167","0.0-3.0-13.0-0.2","2","2020-1-7 8:47:44","SEAL",NA,NA,NA,NA,NA,"congruent","left","TRUE",NA,NA,NA,NA,NA,NA
"621","flanker_test","39","image-keyboard-response","25","438794","0.0-3.0-13.0-0.3","2","2020-1-7 8:47:44","SEAL",NA,NA,NA,NA,NA,"congruent","right","TRUE",NA,NA,NA,NA,NA,NA
"46383","sort_trial",NA,"free-sort","26","485851","0.0-3.0-14.0","2","2020-1-7 8:47:44","SEAL",NA,NA,NA,NA,NA,NA,NA,NA,"[{""cat"":9,""src"":19,""x"":19,""y"":9},{""cat"":23,""src"":7,""x"":12,""y"":242},{""cat"":25,""src"":4,""x"":64,""y"":137},{""cat"":25,""src"":13,""x"":81,""y"":189},{""cat"":23,""src"":18,""x"":68,""y"":492},{""cat"":9,""src"":6,""x"":0,""y"":320},{""cat"":25,""src"":2,""x"":56,""y"":80},{""cat"":23,""src"":16,""x"":16,""y"":430},{""cat"":9,""src"":7,""x"":31,""y"":384}]","[{""cat"":""9"",""src"":""19"",""x"":0,""y"":0},{""cat"":""9"",""src"":""6"",""x"":0,""y"":0},{""cat"":""9"",""src"":""7"",""x"":0,""y"":0},{""cat"":""23"",""src"":""7"",""x"":0,""y"":0},{""cat"":""23"",""src"":""16"",""x"":0,""y"":0},{""cat"":""23"",""src"":""18"",""x"":0,""y"":0},{""cat"":""25"",""src"":""2"",""x"":395,""y"":298},{""cat"":""25"",""src"":""2"",""x"":0,""y"":0},{""cat"":""25"",""src"":""4"",""x"":0,""y"":0},{""cat"":""25"",""src"":""13"",""x"":0,""y"":0}]","[{""cat"":9,""src"":19,""loc"":1},{""cat"":9,""src"":6,""loc"":0},{""cat"":9,""src"":7,""loc"":2},{""cat"":23,""src"":7,""loc"":5},{""cat"":23,""src"":16,""loc"":4},{""cat"":23,""src"":18,""loc"":3},{""cat"":25,""src"":2,""loc"":6},{""cat"":25,""src"":4,""loc"":7},{""cat"":25,""src"":13,""loc"":8}]","9","9,9,9,23,23,23,25,25,25,6,19,7,18,16,7,2,4,13,0,1,2,3,4,5,6,7,8,1,0,2,5,4,3,6,7,8",NA
"8291","sort_feedback","32","html-keyboard-response","27","494145","0.0-3.0-15.0","2","2020-1-7 8:47:44","SEAL",NA,NA,NA,NA,NA,NA,NA,NA,NA,NA,NA,NA,NA,NA
"20001","setup2",NA,"animation","28","514151","0.0-3.0-16.0","2","2020-1-7 8:47:44","SEAL",NA,NA,"[{""cat"":19,""src"":10,""loc"":2},{""cat"":0,""src"":2,""loc"":0},{""cat"":15,""src"":11,""loc"":1},{""cat"":19,""src"":4,""loc"":4},{""cat"":0,""src"":15,""loc"":5},{""cat"":15,""src"":8,""loc"":3},{""cat"":19,""src"":3,""loc"":8},{""cat"":0,""src"":11,""loc"":6},{""cat"":15,""src"":13,""loc"":7}]","2","1109,1110,1103,1117,1103,1112,1117,1110,1116,10004",NA,NA,NA,NA,NA,NA,NA,NA,NA
"6723","flanker_instructions","37","html-keyboard-response","29","520879","0.0-3.0-17.0","2","2020-1-7 8:47:44","SEAL",NA,NA,NA,NA,NA,NA,NA,NA,NA,NA,NA,NA,NA,NA
"642","flanker_test","37","image-keyboard-response","30","522526","0.0-3.0-18.0-0.0","2","2020-1-7 8:47:44","SEAL",NA,NA,NA,NA,NA,"congruent","left","TRUE",NA,NA,NA,NA,NA,NA
"642","flanker_test","37","image-keyboard-response","31","524057","0.0-3.0-18.0-0.1","2","2020-1-7 8:47:44","SEAL",NA,NA,NA,NA,NA,"incongruent","left","TRUE",NA,NA,NA,NA,NA,NA
"658","flanker_test","39","image-keyboard-response","32","525700","0.0-3.0-18.0-0.2","2","2020-1-7 8:47:44","SEAL",NA,NA,NA,NA,NA,"congruent","right","TRUE",NA,NA,NA,NA,NA,NA
"734","flanker_test","39","image-keyboard-response","33","527169","0.0-3.0-18.0-0.3","2","2020-1-7 8:47:44","SEAL",NA,NA,NA,NA,NA,"incongruent","right","TRUE",NA,NA,NA,NA,NA,NA
"48548","sort_trial",NA,"free-sort","34","576120","0.0-3.0-19.0","2","2020-1-7 8:47:44","SEAL",NA,NA,NA,NA,NA,NA,NA,NA,"[{""cat"":19,""src"":10,""x"":62,""y"":182},{""cat"":0,""src"":2,""x"":21,""y"":366},{""cat"":15,""src"":11,""x"":48,""y"":63},{""cat"":19,""src"":4,""x"":9,""y"":245},{""cat"":0,""src"":15,""x"":60,""y"":319},{""cat"":15,""src"":8,""x"":9,""y"":441},{""cat"":19,""src"":3,""x"":64,""y"":23},{""cat"":0,""src"":11,""x"":18,""y"":493},{""cat"":15,""src"":13,""x"":41,""y"":132}]","[{""cat"":""15"",""src"":""11"",""x"":0,""y"":0},{""cat"":""0"",""src"":""2"",""x"":0,""y"":0},{""cat"":""19"",""src"":""10"",""x"":0,""y"":0},{""cat"":""0"",""src"":""15"",""x"":0,""y"":0},{""cat"":""19"",""src"":""4"",""x"":0,""y"":0},{""cat"":""15"",""src"":""8"",""x"":0,""y"":0},{""cat"":""15"",""src"":""13"",""x"":0,""y"":0},{""cat"":""19"",""src"":""3"",""x"":0,""y"":0},{""cat"":""0"",""src"":""11"",""x"":0,""y"":0}]","[{""cat"":15,""src"":11,""loc"":1},{""cat"":0,""src"":2,""loc"":0},{""cat"":19,""src"":10,""loc"":2},{""cat"":0,""src"":15,""loc"":4},{""cat"":19,""src"":4,""loc"":5},{""cat"":15,""src"":8,""loc"":3},{""cat"":15,""src"":13,""loc"":7},{""cat"":19,""src"":3,""loc"":8},{""cat"":0,""src"":11,""loc"":6}]","7","0,15,19,15,0,19,0,15,19,2,11,10,8,15,4,11,13,3,0,1,2,3,4,5,6,7,8,1,0,2,5,3,4,8,6,7",NA
"12047","sort_feedback","32","html-keyboard-response","35","588172","0.0-3.0-20.0","2","2020-1-7 8:47:44","SEAL",NA,NA,NA,NA,NA,NA,NA,NA,NA,NA,NA,NA,NA,NA
"19986","setup4",NA,"animation","36","608159","0.0-3.0-21.0","2","2020-1-7 8:47:44","SEAL",NA,NA,"[{""cat"":10,""src"":14,""loc"":3},{""cat"":10,""src"":5,""loc"":8},{""cat"":10,""src"":3,""loc"":2},{""cat"":18,""src"":14,""loc"":5},{""cat"":18,""src"":9,""loc"":0},{""cat"":18,""src"":8,""loc"":6},{""cat"":20,""src"":14,""loc"":1},{""cat"":20,""src"":12,""loc"":7},{""cat"":20,""src"":0,""loc"":4}]","4","1109,1103,1103,1112,1110,1116,1104,1114,1113,10001",NA,NA,NA,NA,NA,NA,NA,NA,NA
"2694","flanker_instructions","39","html-keyboard-response","37","610858","0.0-3.0-22.0","2","2020-1-7 8:47:44","SEAL",NA,NA,NA,NA,NA,NA,NA,NA,NA,NA,NA,NA,NA,NA
"568","flanker_test","39","image-keyboard-response","38","612445","0.0-3.0-23.0-0.0","2","2020-1-7 8:47:44","SEAL",NA,NA,NA,NA,NA,"congruent","right","TRUE",NA,NA,NA,NA,NA,NA
"512","flanker_test","37","image-keyboard-response","39","613704","0.0-3.0-23.0-0.1","2","2020-1-7 8:47:44","SEAL",NA,NA,NA,NA,NA,"incongruent","left","TRUE",NA,NA,NA,NA,NA,NA
"673","flanker_test","37","image-keyboard-response","40","615221","0.0-3.0-23.0-0.2","2","2020-1-7 8:47:44","SEAL",NA,NA,NA,NA,NA,"incongruent","right","FALSE",NA,NA,NA,NA,NA,NA
"622","flanker_test","39","image-keyboard-response","41","617042","0.0-3.0-23.0-0.3","2","2020-1-7 8:47:44","SEAL",NA,NA,NA,NA,NA,"congruent","left","FALSE",NA,NA,NA,NA,NA,NA
"49743","sort_trial",NA,"free-sort","42","667864","0.0-3.0-24.0","2","2020-1-7 8:47:44","SEAL",NA,NA,NA,NA,NA,NA,NA,NA,"[{""cat"":10,""src"":14,""x"":69,""y"":323},{""cat"":10,""src"":5,""x"":17,""y"":25},{""cat"":10,""src"":3,""x"":81,""y"":425},{""cat"":18,""src"":14,""x"":13,""y"":253},{""cat"":18,""src"":9,""x"":24,""y"":122},{""cat"":18,""src"":8,""x"":69,""y"":482},{""cat"":20,""src"":14,""x"":58,""y"":387},{""cat"":20,""src"":12,""x"":12,""y"":84},{""cat"":20,""src"":0,""x"":80,""y"":197}]","[{""cat"":""20"",""src"":""14"",""x"":0,""y"":0},{""cat"":""18"",""src"":""9"",""x"":0,""y"":0},{""cat"":""10"",""src"":""3"",""x"":0,""y"":0},{""cat"":""18"",""src"":""8"",""x"":0,""y"":0},{""cat"":""18"",""src"":""14"",""x"":0,""y"":0},{""cat"":""20"",""src"":""0"",""x"":0,""y"":0},{""cat"":""10"",""src"":""14"",""x"":0,""y"":0},{""cat"":""20"",""src"":""12"",""x"":0,""y"":0},{""cat"":""10"",""src"":""5"",""x"":0,""y"":0}]","[{""cat"":20,""src"":14,""loc"":1},{""cat"":18,""src"":9,""loc"":0},{""cat"":10,""src"":3,""loc"":2},{""cat"":18,""src"":8,""loc"":6},{""cat"":18,""src"":14,""loc"":5},{""cat"":20,""src"":0,""loc"":4},{""cat"":10,""src"":14,""loc"":3},{""cat"":20,""src"":12,""loc"":7},{""cat"":10,""src"":5,""loc"":8}]","9","18,20,10,10,20,18,18,20,10,9,14,3,14,0,14,8,12,5,0,1,2,3,4,5,6,7,8,1,0,2,6,5,4,3,7,8",NA
"11230","sort_feedback","32","html-keyboard-response","43","679097","0.0-3.0-25.0","2","2020-1-7 8:47:44","SEAL",NA,NA,NA,NA,NA,NA,NA,NA,NA,NA,NA,NA,NA,NA
"19985","setup2",NA,"animation","44","699084","0.0-3.0-26.0","2","2020-1-7 8:47:44","SEAL",NA,NA,"[{""cat"":7,""src"":10,""loc"":4},{""cat"":20,""src"":9,""loc"":3},{""cat"":12,""src"":14,""loc"":5},{""cat"":12,""src"":0,""loc"":2},{""cat"":20,""src"":6,""loc"":1},{""cat"":7,""src"":12,""loc"":0},{""cat"":7,""src"":5,""loc"":6},{""cat"":12,""src"":11,""loc"":7},{""cat"":20,""src"":19,""loc"":8}]","2","1108,1112,1106,1104,1110,1109,1104,1107,1114,10010",NA,NA,NA,NA,NA,NA,NA,NA,NA
"7659","flanker_instructions","37","html-keyboard-response","45","706747","0.0-3.0-27.0","2","2020-1-7 8:47:44","SEAL",NA,NA,NA,NA,NA,NA,NA,NA,NA,NA,NA,NA,NA,NA
"661","flanker_test","39","image-keyboard-response","46","708421","0.0-3.0-28.0-0.0","2","2020-1-7 8:47:44","SEAL",NA,NA,NA,NA,NA,"congruent","right","TRUE",NA,NA,NA,NA,NA,NA
"890","flanker_test","39","image-keyboard-response","47","709845","0.0-3.0-28.0-0.1","2","2020-1-7 8:47:44","SEAL",NA,NA,NA,NA,NA,"incongruent","right","TRUE",NA,NA,NA,NA,NA,NA
"618","flanker_test","37","image-keyboard-response","48","711626","0.0-3.0-28.0-0.2","2","2020-1-7 8:47:44","SEAL",NA,NA,NA,NA,NA,"incongruent","left","TRUE",NA,NA,NA,NA,NA,NA
"605","flanker_test","37","image-keyboard-response","49","713140","0.0-3.0-28.0-0.3","2","2020-1-7 8:47:44","SEAL",NA,NA,NA,NA,NA,"congruent","left","TRUE",NA,NA,NA,NA,NA,NA
"48263","sort_trial",NA,"free-sort","50","761777","0.0-3.0-29.0","2","2020-1-7 8:47:44","SEAL",NA,NA,NA,NA,NA,NA,NA,NA,"[{""cat"":7,""src"":10,""x"":83,""y"":84},{""cat"":20,""src"":9,""x"":19,""y"":204},{""cat"":12,""src"":14,""x"":32,""y"":140},{""cat"":12,""src"":0,""x"":15,""y"":325},{""cat"":20,""src"":6,""x"":39,""y"":24},{""cat"":7,""src"":12,""x"":34,""y"":434},{""cat"":7,""src"":5,""x"":41,""y"":258},{""cat"":12,""src"":11,""x"":60,""y"":506},{""cat"":20,""src"":19,""x"":48,""y"":368}]","[{""cat"":""20"",""src"":""6"",""x"":68,""y"":23},{""cat"":""20"",""src"":""6"",""x"":416,""y"":51},{""cat"":""20"",""src"":""6"",""x"":0,""y"":0},{""cat"":""7"",""src"":""12"",""x"":0,""y"":0},{""cat"":""12"",""src"":""0"",""x"":0,""y"":0},{""cat"":""12"",""src"":""14"",""x"":0,""y"":0},{""cat"":""7"",""src"":""10"",""x"":0,""y"":0},{""cat"":""20"",""src"":""9"",""x"":153,""y"":176},{""cat"":""20"",""src"":""9"",""x"":0,""y"":0},{""cat"":""7"",""src"":""5"",""x"":0,""y"":0},{""cat"":""20"",""src"":""19"",""x"":146,""y"":423},{""cat"":""20"",""src"":""19"",""x"":0,""y"":0},{""cat"":""12"",""src"":""11"",""x"":0,""y"":0}]","[{""cat"":20,""src"":6,""loc"":1},{""cat"":7,""src"":12,""loc"":0},{""cat"":12,""src"":0,""loc"":2},{""cat"":12,""src"":14,""loc"":5},{""cat"":7,""src"":10,""loc"":4},{""cat"":20,""src"":9,""loc"":3},{""cat"":7,""src"":5,""loc"":6},{""cat"":20,""src"":19,""loc"":8},{""cat"":12,""src"":11,""loc"":7}]","9","7,20,12,20,7,12,7,12,20,12,6,0,9,10,14,5,11,19,0,1,2,3,4,5,6,7,8,1,0,2,5,4,3,6,8,7",NA
"9976","sort_feedback","32","html-keyboard-response","51","771756","0.0-3.0-30.0","2","2020-1-7 8:47:44","SEAL",NA,NA,NA,NA,NA,NA,NA,NA,NA,NA,NA,NA,NA,NA
"19998","setup4",NA,"animation","52","791756","0.0-3.0-31.0","2","2020-1-7 8:47:44","SEAL",NA,NA,"[{""cat"":16,""src"":8,""loc"":1},{""cat"":16,""src"":2,""loc"":5},{""cat"":16,""src"":10,""loc"":6},{""cat"":31,""src"":4,""loc"":0},{""cat"":31,""src"":1,""loc"":4},{""cat"":31,""src"":8,""loc"":8},{""cat"":7,""src"":9,""loc"":3},{""cat"":7,""src"":15,""loc"":7},{""cat"":7,""src"":18,""loc"":2}]","4","1112,1110,1109,1111,1104,1112,1112,1103,1118,10006",NA,NA,NA,NA,NA,NA,NA,NA,NA
"3265","flanker_instructions","37","html-keyboard-response","53","795025","0.0-3.0-32.0","2","2020-1-7 8:47:44","SEAL",NA,NA,NA,NA,NA,NA,NA,NA,NA,NA,NA,NA,NA,NA
"703","flanker_test","37","image-keyboard-response","54","796740","0.0-3.0-33.0-0.0","2","2020-1-7 8:47:44","SEAL",NA,NA,NA,NA,NA,"incongruent","left","TRUE",NA,NA,NA,NA,NA,NA
"562","flanker_test","39","image-keyboard-response","55","798155","0.0-3.0-33.0-0.1","2","2020-1-7 8:47:44","SEAL",NA,NA,NA,NA,NA,"incongruent","right","TRUE",NA,NA,NA,NA,NA,NA
"602","flanker_test","37","image-keyboard-response","56","799516","0.0-3.0-33.0-0.2","2","2020-1-7 8:47:44","SEAL",NA,NA,NA,NA,NA,"congruent","left","TRUE",NA,NA,NA,NA,NA,NA
"625","flanker_test","39","image-keyboard-response","57","800487","0.0-3.0-33.0-0.3","2","2020-1-7 8:47:44","SEAL",NA,NA,NA,NA,NA,"congruent","right","TRUE",NA,NA,NA,NA,NA,NA
"59185","sort_trial",NA,"free-sort","58","860480","0.0-3.0-34.0","2","2020-1-7 8:47:44","SEAL",NA,NA,NA,NA,NA,NA,NA,NA,"[{""cat"":16,""src"":8,""x"":79,""y"":146},{""cat"":16,""src"":2,""x"":50,""y"":321},{""cat"":16,""src"":10,""x"":0,""y"":77},{""cat"":31,""src"":4,""x"":37,""y"":377},{""cat"":31,""src"":1,""x"":46,""y"":500},{""cat"":31,""src"":8,""x"":83,""y"":201},{""cat"":7,""src"":9,""x"":17,""y"":447},{""cat"":7,""src"":15,""x"":80,""y"":28},{""cat"":7,""src"":18,""x"":52,""y"":262}]","[{""cat"":""16"",""src"":""8"",""x"":0,""y"":0},{""cat"":""7"",""src"":""18"",""x"":0,""y"":0},{""cat"":""31"",""src"":""4"",""x"":0,""y"":0},{""cat"":""31"",""src"":""8"",""x"":192,""y"":378},{""cat"":""31"",""src"":""8"",""x"":83,""y"":202},{""cat"":""16"",""src"":""2"",""x"":0,""y"":0},{""cat"":""31"",""src"":""1"",""x"":0,""y"":0},{""cat"":""7"",""src"":""9"",""x"":0,""y"":0},{""cat"":""31"",""src"":""8"",""x"":269,""y"":399},{""cat"":""31"",""src"":""8"",""x"":0,""y"":0},{""cat"":""7"",""src"":""15"",""x"":46,""y"":193},{""cat"":""7"",""src"":""15"",""x"":0,""y"":0},{""cat"":""16"",""src"":""10"",""x"":0,""y"":0}]","[{""cat"":16,""src"":8,""loc"":1},{""cat"":7,""src"":18,""loc"":2},{""cat"":31,""src"":4,""loc"":0},{""cat"":16,""src"":2,""loc"":5},{""cat"":31,""src"":1,""loc"":4},{""cat"":7,""src"":9,""loc"":3},{""cat"":31,""src"":8,""loc"":7},{""cat"":7,""src"":15,""loc"":8},{""cat"":16,""src"":10,""loc"":6}]","7","31,16,7,7,31,16,16,31,7,4,8,18,9,1,2,10,8,15,0,1,2,3,4,5,6,7,8,2,0,1,5,4,3,8,6,7",NA
"25596","sort_feedback","32","html-keyboard-response","59","886080","0.0-3.0-35.0","2","2020-1-7 8:47:44","SEAL",NA,NA,NA,NA,NA,NA,NA,NA,NA,NA,NA,NA,NA,NA
"19990","setup1",NA,"animation","60","906071","0.0-3.0-36.0","2","2020-1-7 8:47:44","SEAL",NA,NA,"[{""cat"":0,""src"":19,""loc"":5},{""cat"":0,""src"":2,""loc"":4},{""cat"":0,""src"":0,""loc"":3},{""cat"":13,""src"":1,""loc"":7},{""cat"":13,""src"":5,""loc"":8},{""cat"":13,""src"":9,""loc"":6},{""cat"":27,""src"":13,""loc"":0},{""cat"":27,""src"":5,""loc"":1},{""cat"":27,""src"":17,""loc"":2}]","1","1105,1116,1102,1116,1102,1114,1113,1104,1103,10015",NA,NA,NA,NA,NA,NA,NA,NA,NA
"3275","flanker_instructions","37","html-keyboard-response","61","909352","0.0-3.0-37.0","2","2020-1-7 8:47:44","SEAL",NA,NA,NA,NA,NA,NA,NA,NA,NA,NA,NA,NA,NA,NA
"743","flanker_test","37","image-keyboard-response","62","911110","0.0-3.0-38.0-0.0","2","2020-1-7 8:47:44","SEAL",NA,NA,NA,NA,NA,"incongruent","left","TRUE",NA,NA,NA,NA,NA,NA
"500","flanker_test","39","image-keyboard-response","63","912523","0.0-3.0-38.0-0.1","2","2020-1-7 8:47:44","SEAL",NA,NA,NA,NA,NA,"congruent","right","TRUE",NA,NA,NA,NA,NA,NA
"727","flanker_test","39","image-keyboard-response","64","913869","0.0-3.0-38.0-0.2","2","2020-1-7 8:47:44","SEAL",NA,NA,NA,NA,NA,"incongruent","right","TRUE",NA,NA,NA,NA,NA,NA
"597","flanker_test","37","image-keyboard-response","65","914903","0.0-3.0-38.0-0.3","2","2020-1-7 8:47:44","SEAL",NA,NA,NA,NA,NA,"congruent","left","TRUE",NA,NA,NA,NA,NA,NA
"53024","sort_trial",NA,"free-sort","66","968797","0.0-3.0-39.0","2","2020-1-7 8:47:44","SEAL",NA,NA,NA,NA,NA,NA,NA,NA,"[{""cat"":0,""src"":19,""x"":21,""y"":362},{""cat"":0,""src"":2,""x"":83,""y"":8},{""cat"":0,""src"":0,""x"":40,""y"":265},{""cat"":13,""src"":1,""x"":49,""y"":189},{""cat"":13,""src"":5,""x"":14,""y"":326},{""cat"":13,""src"":9,""x"":28,""y"":498},{""cat"":27,""src"":13,""x"":33,""y"":138},{""cat"":27,""src"":5,""x"":83,""y"":436},{""cat"":27,""src"":17,""x"":29,""y"":67}]","[{""cat"":""27"",""src"":""5"",""x"":0,""y"":0},{""cat"":""27"",""src"":""13"",""x"":0,""y"":0},{""cat"":""27"",""src"":""17"",""x"":0,""y"":0},{""cat"":""0"",""src"":""2"",""x"":459,""y"":7},{""cat"":""0"",""src"":""2"",""x"":0,""y"":0},{""cat"":""0"",""src"":""0"",""x"":0,""y"":0},{""cat"":""0"",""src"":""19"",""x"":0,""y"":0},{""cat"":""13"",""src"":""1"",""x"":0,""y"":0},{""cat"":""13"",""src"":""5"",""x"":0,""y"":0},{""cat"":""13"",""src"":""9"",""x"":68,""y"":460},{""cat"":""13"",""src"":""9"",""x"":35,""y"":493},{""cat"":""13"",""src"":""9"",""x"":0,""y"":0}]","[{""cat"":27,""src"":5,""loc"":1},{""cat"":27,""src"":13,""loc"":0},{""cat"":27,""src"":17,""loc"":2},{""cat"":0,""src"":2,""loc"":4},{""cat"":0,""src"":0,""loc"":3},{""cat"":0,""src"":19,""loc"":5},{""cat"":13,""src"":1,""loc"":7},{""cat"":13,""src"":5,""loc"":8},{""cat"":13,""src"":9,""loc"":6}]","9","27,27,27,0,0,0,13,13,13,13,5,17,0,2,19,9,1,5,0,1,2,3,4,5,6,7,8,1,0,2,4,3,5,8,6,7",NA
"9314","sort_feedback","32","html-keyboard-response","67","978114","0.0-3.0-40.0","2","2020-1-7 8:47:44","SEAL",NA,NA,NA,NA,NA,NA,NA,NA,NA,NA,NA,NA,NA,NA
"20022","setup3",NA,"animation","68","998138","0.0-3.0-41.0","2","2020-1-7 8:47:44","SEAL",NA,NA,"[{""cat"":7,""src"":19,""loc"":7},{""cat"":31,""src"":17,""loc"":0},{""cat"":12,""src"":0,""loc"":3},{""cat"":7,""src"":13,""loc"":6},{""cat"":12,""src"":14,""loc"":4},{""cat"":31,""src"":12,""loc"":2},{""cat"":12,""src"":1,""loc"":5},{""cat"":7,""src"":10,""loc"":8},{""cat"":31,""src"":18,""loc"":1}]","3","1106,1114,1117,1119,1114,1116,1116,1111,1108,10001",NA,NA,NA,NA,NA,NA,NA,NA,NA
"2565","flanker_instructions","37","html-keyboard-response","69","1000706","0.0-3.0-42.0","2","2020-1-7 8:47:44","SEAL",NA,NA,NA,NA,NA,NA,NA,NA,NA,NA,NA,NA,NA,NA
NA,"flanker_test",NA,"image-keyboard-response","70","1002620","0.0-3.0-43.0-0.0","2","2020-1-7 8:47:44","SEAL",NA,NA,NA,NA,NA,"incongruent","right","FALSE",NA,NA,NA,NA,NA,NA
"474","flanker_test","37","image-keyboard-response","71","1004267","0.0-3.0-43.0-0.1","2","2020-1-7 8:47:44","SEAL",NA,NA,NA,NA,NA,"congruent","left","TRUE",NA,NA,NA,NA,NA,NA
"594","flanker_test","39","image-keyboard-response","72","1006052","0.0-3.0-43.0-0.2","2","2020-1-7 8:47:44","SEAL",NA,NA,NA,NA,NA,"congruent","right","TRUE",NA,NA,NA,NA,NA,NA
"569","flanker_test","37","image-keyboard-response","73","1007782","0.0-3.0-43.0-0.3","2","2020-1-7 8:47:44","SEAL",NA,NA,NA,NA,NA,"incongruent","left","TRUE",NA,NA,NA,NA,NA,NA
"47456","sort_trial",NA,"free-sort","74","1055999","0.0-3.0-44.0","2","2020-1-7 8:47:44","SEAL",NA,NA,NA,NA,NA,NA,NA,NA,"[{""cat"":7,""src"":19,""x"":23,""y"":441},{""cat"":31,""src"":17,""x"":61,""y"":241},{""cat"":12,""src"":0,""x"":23,""y"":19},{""cat"":7,""src"":13,""x"":0,""y"":299},{""cat"":12,""src"":14,""x"":79,""y"":147},{""cat"":31,""src"":12,""x"":18,""y"":370},{""cat"":12,""src"":1,""x"":79,""y"":482},{""cat"":7,""src"":10,""x"":9,""y"":186},{""cat"":31,""src"":18,""x"":18,""y"":88}]","[{""cat"":""31"",""src"":""18"",""x"":0,""y"":0},{""cat"":""31"",""src"":""17"",""x"":0,""y"":0},{""cat"":""31"",""src"":""12"",""x"":0,""y"":0},{""cat"":""12"",""src"":""1"",""x"":570,""y"":472},{""cat"":""12"",""src"":""1"",""x"":599,""y"":412},{""cat"":""12"",""src"":""1"",""x"":0,""y"":0},{""cat"":""12"",""src"":""14"",""x"":0,""y"":0},{""cat"":""12"",""src"":""0"",""x"":0,""y"":0},{""cat"":""7"",""src"":""10"",""x"":0,""y"":0},{""cat"":""7"",""src"":""19"",""x"":0,""y"":0},{""cat"":""7"",""src"":""13"",""x"":0,""y"":0}]","[{""cat"":31,""src"":18,""loc"":1},{""cat"":31,""src"":17,""loc"":0},{""cat"":31,""src"":12,""loc"":2},{""cat"":12,""src"":1,""loc"":5},{""cat"":12,""src"":14,""loc"":4},{""cat"":12,""src"":0,""loc"":3},{""cat"":7,""src"":10,""loc"":8},{""cat"":7,""src"":19,""loc"":6},{""cat"":7,""src"":13,""loc"":7}]","7","31,31,31,12,12,12,7,7,7,17,18,12,0,14,1,19,13,10,0,1,2,3,4,5,6,7,8,1,0,2,5,4,3,7,8,6",NA
"12395","sort_feedback","32","html-keyboard-response","75","1068398","0.0-3.0-45.0","2","2020-1-7 8:47:44","SEAL",NA,NA,NA,NA,NA,NA,NA,NA,NA,NA,NA,NA,NA,NA
"20038","setup5",NA,"animation","76","1088438","0.0-3.0-46.0","2","2020-1-7 8:47:44","SEAL",NA,NA,"[{""cat"":5,""src"":1,""loc"":6},{""cat"":21,""src"":3,""loc"":5},{""cat"":32,""src"":1,""loc"":2},{""cat"":5,""src"":0,""loc"":4},{""cat"":32,""src"":10,""loc"":8},{""cat"":21,""src"":16,""loc"":1},{""cat"":21,""src"":10,""loc"":7},{""cat"":5,""src"":5,""loc"":0},{""cat"":32,""src"":4,""loc"":3}]","5","1124,1115,1101,1111,1117,1117,1117,1117,1117,10002",NA,NA,NA,NA,NA,NA,NA,NA,NA
"1019","flanker_instructions","37","html-keyboard-response","77","1089460","0.0-3.0-47.0","2","2020-1-7 8:47:44","SEAL",NA,NA,NA,NA,NA,NA,NA,NA,NA,NA,NA,NA,NA,NA
"703","flanker_test","37","image-keyboard-response","78","1091167","0.0-3.0-48.0-0.0","2","2020-1-7 8:47:44","SEAL",NA,NA,NA,NA,NA,"incongruent","left","TRUE",NA,NA,NA,NA,NA,NA
"606","flanker_test","39","image-keyboard-response","79","1092516","0.0-3.0-48.0-0.1","2","2020-1-7 8:47:44","SEAL",NA,NA,NA,NA,NA,"incongruent","right","TRUE",NA,NA,NA,NA,NA,NA
"643","flanker_test","39","image-keyboard-response","80","1093537","0.0-3.0-48.0-0.2","2","2020-1-7 8:47:44","SEAL",NA,NA,NA,NA,NA,"congruent","right","TRUE",NA,NA,NA,NA,NA,NA
"488","flanker_test","37","image-keyboard-response","81","1095132","0.0-3.0-48.0-0.3","2","2020-1-7 8:47:44","SEAL",NA,NA,NA,NA,NA,"congruent","left","TRUE",NA,NA,NA,NA,NA,NA
"45821","sort_trial",NA,"free-sort","82","1141560","0.0-3.0-49.0","2","2020-1-7 8:47:44","SEAL",NA,NA,NA,NA,NA,NA,NA,NA,"[{""cat"":5,""src"":1,""x"":79,""y"":123},{""cat"":21,""src"":3,""x"":15,""y"":182},{""cat"":32,""src"":1,""x"":27,""y"":448},{""cat"":5,""src"":0,""x"":67,""y"":321},{""cat"":32,""src"":10,""x"":42,""y"":72},{""cat"":21,""src"":16,""x"":76,""y"":378},{""cat"":21,""src"":10,""x"":26,""y"":260},{""cat"":5,""src"":5,""x"":12,""y"":1},{""cat"":32,""src"":4,""x"":76,""y"":507}]","[{""cat"":""21"",""src"":""16"",""x"":0,""y"":0},{""cat"":""5"",""src"":""5"",""x"":0,""y"":0},{""cat"":""32"",""src"":""1"",""x"":0,""y"":0},{""cat"":""21"",""src"":""3"",""x"":0,""y"":0},{""cat"":""5"",""src"":""0"",""x"":0,""y"":0},{""cat"":""32"",""src"":""4"",""x"":0,""y"":0},{""cat"":""5"",""src"":""1"",""x"":0,""y"":0},{""cat"":""21"",""src"":""10"",""x"":0,""y"":0},{""cat"":""32"",""src"":""10"",""x"":0,""y"":0}]","[{""cat"":21,""src"":16,""loc"":1},{""cat"":5,""src"":5,""loc"":0},{""cat"":32,""src"":1,""loc"":2},{""cat"":21,""src"":3,""loc"":5},{""cat"":5,""src"":0,""loc"":4},{""cat"":32,""src"":4,""loc"":3},{""cat"":5,""src"":1,""loc"":6},{""cat"":21,""src"":10,""loc"":7},{""cat"":32,""src"":10,""loc"":8}]","9","5,21,32,32,5,21,5,21,32,5,16,1,4,0,3,1,10,10,0,1,2,3,4,5,6,7,8,1,0,2,5,4,3,6,7,8",NA
"144657","sort_feedback","32","html-keyboard-response","83","1286220","0.0-3.0-50.0","2","2020-1-7 8:47:44","SEAL",NA,NA,NA,NA,NA,NA,NA,NA,NA,NA,NA,NA,NA,NA
"19943","setup2",NA,"animation","84","1306166","0.0-3.0-51.0","2","2020-1-7 8:47:44","SEAL",NA,NA,"[{""cat"":4,""src"":17,""loc"":6},{""cat"":19,""src"":6,""loc"":7},{""cat"":12,""src"":8,""loc"":8},{""cat"":19,""src"":10,""loc"":0},{""cat"":4,""src"":15,""loc"":1},{""cat"":12,""src"":3,""loc"":2},{""cat"":12,""src"":15,""loc"":5},{""cat"":19,""src"":16,""loc"":3},{""cat"":4,""src"":6,""loc"":4}]","2","1105,1104,1104,1103,1102,1104,1104,1107,1106,10004",NA,NA,NA,NA,NA,NA,NA,NA,NA
"1492","flanker_instructions","39","html-keyboard-response","85","1307662","0.0-3.0-52.0","2","2020-1-7 8:47:44","SEAL",NA,NA,NA,NA,NA,NA,NA,NA,NA,NA,NA,NA,NA,NA
"812","flanker_test","39","image-keyboard-response","86","1309480","0.0-3.0-53.0-0.0","2","2020-1-7 8:47:44","SEAL",NA,NA,NA,NA,NA,"incongruent","right","TRUE",NA,NA,NA,NA,NA,NA
"725","flanker_test","39","image-keyboard-response","87","1310804","0.0-3.0-53.0-0.1","2","2020-1-7 8:47:44","SEAL",NA,NA,NA,NA,NA,"congruent","right","TRUE",NA,NA,NA,NA,NA,NA
"536","flanker_test","37","image-keyboard-response","88","1312391","0.0-3.0-53.0-0.2","2","2020-1-7 8:47:44","SEAL",NA,NA,NA,NA,NA,"incongruent","left","TRUE",NA,NA,NA,NA,NA,NA
"565","flanker_test","37","image-keyboard-response","89","1313653","0.0-3.0-53.0-0.3","2","2020-1-7 8:47:44","SEAL",NA,NA,NA,NA,NA,"congruent","left","TRUE",NA,NA,NA,NA,NA,NA
"49138","sort_trial",NA,"free-sort","90","1363222","0.0-3.0-54.0","2","2020-1-7 8:47:44","SEAL",NA,NA,NA,NA,NA,NA,NA,NA,"[{""cat"":4,""src"":17,""x"":62,""y"":88},{""cat"":19,""src"":6,""x"":32,""y"":6},{""cat"":12,""src"":8,""x"":44,""y"":185},{""cat"":19,""src"":10,""x"":63,""y"":261},{""cat"":4,""src"":15,""x"":21,""y"":314},{""cat"":12,""src"":3,""x"":56,""y"":424},{""cat"":12,""src"":15,""x"":19,""y"":367},{""cat"":19,""src"":16,""x"":82,""y"":479},{""cat"":4,""src"":6,""x"":32,""y"":149}]","[{""cat"":""4"",""src"":""15"",""x"":0,""y"":0},{""cat"":""19"",""src"":""10"",""x"":0,""y"":0},{""cat"":""12"",""src"":""3"",""x"":0,""y"":0},{""cat"":""12"",""src"":""15"",""x"":0,""y"":0},{""cat"":""4"",""src"":""17"",""x"":0,""y"":0},{""cat"":""4"",""src"":""6"",""x"":0,""y"":0},{""cat"":""19"",""src"":""16"",""x"":0,""y"":0},{""cat"":""12"",""src"":""8"",""x"":0,""y"":0},{""cat"":""19"",""src"":""6"",""x"":0,""y"":0}]","[{""cat"":4,""src"":15,""loc"":1},{""cat"":19,""src"":10,""loc"":0},{""cat"":12,""src"":3,""loc"":2},{""cat"":12,""src"":15,""loc"":5},{""cat"":4,""src"":17,""loc"":6},{""cat"":4,""src"":6,""loc"":4},{""cat"":19,""src"":16,""loc"":3},{""cat"":12,""src"":8,""loc"":8},{""cat"":19,""src"":6,""loc"":7}]","9","19,4,12,19,4,12,4,19,12,10,15,3,16,6,15,17,6,8,0,1,2,3,4,5,6,7,8,1,0,2,6,5,3,4,8,7",NA
"9544","sort_feedback","32","html-keyboard-response","91","1372769","0.0-3.0-55.0","2","2020-1-7 8:47:44","SEAL",NA,NA,NA,NA,NA,NA,NA,NA,NA,NA,NA,NA,NA,NA
"20018","setup3",NA,"animation","92","1392789","0.0-3.0-56.0","2","2020-1-7 8:47:44","SEAL",NA,NA,"[{""cat"":9,""src"":6,""loc"":3},{""cat"":7,""src"":10,""loc"":1},{""cat"":29,""src"":16,""loc"":8},{""cat"":29,""src"":13,""loc"":6},{""cat"":9,""src"":16,""loc"":4},{""cat"":7,""src"":15,""loc"":2},{""cat"":29,""src"":4,""loc"":7},{""cat"":9,""src"":8,""loc"":5},{""cat"":7,""src"":4,""loc"":0}]","3","1106,1104,1105,1182,1104,1101,1104,1103,1105,10004",NA,NA,NA,NA,NA,NA,NA,NA,NA
"2797","flanker_instructions","39","html-keyboard-response","93","1395590","0.0-3.0-57.0","2","2020-1-7 8:47:44","SEAL",NA,NA,NA,NA,NA,NA,NA,NA,NA,NA,NA,NA,NA,NA
"747","flanker_test","39","image-keyboard-response","94","1397341","0.0-3.0-58.0-0.0","2","2020-1-7 8:47:44","SEAL",NA,NA,NA,NA,NA,"congruent","right","TRUE",NA,NA,NA,NA,NA,NA
"471","flanker_test","37","image-keyboard-response","95","1398818","0.0-3.0-58.0-0.1","2","2020-1-7 8:47:44","SEAL",NA,NA,NA,NA,NA,"congruent","left","TRUE",NA,NA,NA,NA,NA,NA
"762","flanker_test","39","image-keyboard-response","96","1400171","0.0-3.0-58.0-0.2","2","2020-1-7 8:47:44","SEAL",NA,NA,NA,NA,NA,"incongruent","right","TRUE",NA,NA,NA,NA,NA,NA
"467","flanker_test","37","image-keyboard-response","97","1401323","0.0-3.0-58.0-0.3","2","2020-1-7 8:47:44","SEAL",NA,NA,NA,NA,NA,"incongruent","left","TRUE",NA,NA,NA,NA,NA,NA
"52595","sort_trial",NA,"free-sort","98","1454473","0.0-3.0-59.0","2","2020-1-7 8:47:44","SEAL",NA,NA,NA,NA,NA,NA,NA,NA,"[{""cat"":9,""src"":6,""x"":14,""y"":130},{""cat"":7,""src"":10,""x"":59,""y"":364},{""cat"":29,""src"":16,""x"":32,""y"":195},{""cat"":29,""src"":13,""x"":54,""y"":82},{""cat"":9,""src"":16,""x"":44,""y"":483},{""cat"":7,""src"":15,""x"":62,""y"":305},{""cat"":29,""src"":4,""x"":71,""y"":265},{""cat"":9,""src"":8,""x"":32,""y"":444},{""cat"":7,""src"":4,""x"":75,""y"":20}]","[{""cat"":""7"",""src"":""10"",""x"":297,""y"":181},{""cat"":""7"",""src"":""10"",""x"":0,""y"":0},{""cat"":""7"",""src"":""4"",""x"":0,""y"":0},{""cat"":""7"",""src"":""15"",""x"":0,""y"":0},{""cat"":""9"",""src"":""8"",""x"":0,""y"":0},{""cat"":""9"",""src"":""16"",""x"":0,""y"":0},{""cat"":""9"",""src"":""6"",""x"":0,""y"":0},{""cat"":""29"",""src"":""13"",""x"":0,""y"":0},{""cat"":""29"",""src"":""16"",""x"":0,""y"":0},{""cat"":""29"",""src"":""4"",""x"":287,""y"":398},{""cat"":""29"",""src"":""4"",""x"":0,""y"":0}]","[{""cat"":7,""src"":10,""loc"":1},{""cat"":7,""src"":4,""loc"":0},{""cat"":7,""src"":15,""loc"":2},{""cat"":9,""src"":8,""loc"":5},{""cat"":9,""src"":16,""loc"":4},{""cat"":9,""src"":6,""loc"":3},{""cat"":29,""src"":13,""loc"":6},{""cat"":29,""src"":16,""loc"":8},{""cat"":29,""src"":4,""loc"":7}]","9","7,7,7,9,9,9,29,29,29,4,10,15,6,16,8,13,4,16,0,1,2,3,4,5,6,7,8,1,0,2,5,4,3,6,8,7",NA
"9192","sort_feedback","32","html-keyboard-response","99","1463669","0.0-3.0-60.0","2","2020-1-7 8:47:44","SEAL",NA,NA,NA,NA,NA,NA,NA,NA,NA,NA,NA,NA,NA,NA
"19938","setup4",NA,"animation","100","1483608","0.0-3.0-61.0","2","2020-1-7 8:47:44","SEAL",NA,NA,"[{""cat"":24,""src"":11,""loc"":3},{""cat"":24,""src"":1,""loc"":1},{""cat"":24,""src"":5,""loc"":6},{""cat"":9,""src"":4,""loc"":5},{""cat"":9,""src"":12,""loc"":0},{""cat"":9,""src"":17,""loc"":7},{""cat"":29,""src"":12,""loc"":8},{""cat"":29,""src"":9,""loc"":4},{""cat"":29,""src"":3,""loc"":2}]","4","1102,1102,1104,1103,1105,1105,1104,1105,1105,10003",NA,NA,NA,NA,NA,NA,NA,NA,NA
"7800","flanker_instructions","39","html-keyboard-response","101","1491413","0.0-3.0-62.0","2","2020-1-7 8:47:44","SEAL",NA,NA,NA,NA,NA,NA,NA,NA,NA,NA,NA,NA,NA,NA
"698","flanker_test","39","image-keyboard-response","102","1493116","0.0-3.0-63.0-0.0","2","2020-1-7 8:47:44","SEAL",NA,NA,NA,NA,NA,"congruent","right","TRUE",NA,NA,NA,NA,NA,NA
"613","flanker_test","37","image-keyboard-response","103","1494078","0.0-3.0-63.0-0.1","2","2020-1-7 8:47:44","SEAL",NA,NA,NA,NA,NA,"congruent","left","TRUE",NA,NA,NA,NA,NA,NA
"741","flanker_test","37","image-keyboard-response","104","1495591","0.0-3.0-63.0-0.2","2","2020-1-7 8:47:44","SEAL",NA,NA,NA,NA,NA,"incongruent","left","TRUE",NA,NA,NA,NA,NA,NA
"519","flanker_test","39","image-keyboard-response","105","1496681","0.0-3.0-63.0-0.3","2","2020-1-7 8:47:44","SEAL",NA,NA,NA,NA,NA,"incongruent","right","TRUE",NA,NA,NA,NA,NA,NA
"47913","sort_trial",NA,"free-sort","106","1545507","0.0-3.0-64.0","2","2020-1-7 8:47:44","SEAL",NA,NA,NA,NA,NA,NA,NA,NA,"[{""cat"":24,""src"":11,""x"":11,""y"":379},{""cat"":24,""src"":1,""x"":13,""y"":187},{""cat"":24,""src"":5,""x"":70,""y"":244},{""cat"":9,""src"":4,""x"":15,""y"":22},{""cat"":9,""src"":12,""x"":58,""y"":299},{""cat"":9,""src"":17,""x"":83,""y"":66},{""cat"":29,""src"":12,""x"":4,""y"":128},{""cat"":29,""src"":9,""x"":41,""y"":429},{""cat"":29,""src"":3,""x"":82,""y"":506}]","[{""cat"":""24"",""src"":""1"",""x"":0,""y"":0},{""cat"":""9"",""src"":""12"",""x"":0,""y"":0},{""cat"":""29"",""src"":""3"",""x"":0,""y"":0},{""cat"":""9"",""src"":""4"",""x"":0,""y"":0},{""cat"":""29"",""src"":""9"",""x"":0,""y"":0},{""cat"":""24"",""src"":""11"",""x"":0,""y"":0},{""cat"":""24"",""src"":""5"",""x"":0,""y"":0},{""cat"":""9"",""src"":""17"",""x"":0,""y"":0},{""cat"":""29"",""src"":""12"",""x"":0,""y"":0}]","[{""cat"":24,""src"":1,""loc"":1},{""cat"":9,""src"":12,""loc"":0},{""cat"":29,""src"":3,""loc"":2},{""cat"":9,""src"":4,""loc"":5},{""cat"":29,""src"":9,""loc"":4},{""cat"":24,""src"":11,""loc"":3},{""cat"":24,""src"":5,""loc"":6},{""cat"":9,""src"":17,""loc"":7},{""cat"":29,""src"":12,""loc"":8}]","9","9,24,29,24,29,9,24,9,29,12,1,3,11,9,4,5,17,12,0,1,2,3,4,5,6,7,8,1,0,2,5,4,3,6,7,8",NA
"8726","sort_feedback","32","html-keyboard-response","107","1554236","0.0-3.0-65.0","2","2020-1-7 8:47:44","SEAL",NA,NA,NA,NA,NA,NA,NA,NA,NA,NA,NA,NA,NA,NA
"19941","setup5",NA,"animation","108","1574179","0.0-3.0-66.0","2","2020-1-7 8:47:44","SEAL",NA,NA,"[{""cat"":7,""src"":10,""loc"":2},{""cat"":16,""src"":12,""loc"":8},{""cat"":15,""src"":9,""loc"":4},{""cat"":15,""src"":13,""loc"":0},{""cat"":16,""src"":6,""loc"":5},{""cat"":7,""src"":7,""loc"":7},{""cat"":16,""src"":4,""loc"":1},{""cat"":7,""src"":17,""loc"":3},{""cat"":15,""src"":14,""loc"":6}]","5","1104,1102,1103,1104,1105,1103,1103,1105,1108,10004",NA,NA,NA,NA,NA,NA,NA,NA,NA
"42983","flanker_instructions","37","html-keyboard-response","109","1617166","0.0-3.0-67.0","2","2020-1-7 8:47:44","SEAL",NA,NA,NA,NA,NA,NA,NA,NA,NA,NA,NA,NA,NA,NA
"803","flanker_test","37","image-keyboard-response","110","1618975","0.0-3.0-68.0-0.0","2","2020-1-7 8:47:44","SEAL",NA,NA,NA,NA,NA,"incongruent","left","TRUE",NA,NA,NA,NA,NA,NA
"676","flanker_test","39","image-keyboard-response","111","1620158","0.0-3.0-68.0-0.1","2","2020-1-7 8:47:44","SEAL",NA,NA,NA,NA,NA,"congruent","right","TRUE",NA,NA,NA,NA,NA,NA
"497","flanker_test","37","image-keyboard-response","112","1621725","0.0-3.0-68.0-0.2","2","2020-1-7 8:47:44","SEAL",NA,NA,NA,NA,NA,"congruent","left","TRUE",NA,NA,NA,NA,NA,NA
"577","flanker_test","39","image-keyboard-response","113","1623419","0.0-3.0-68.0-0.3","2","2020-1-7 8:47:44","SEAL",NA,NA,NA,NA,NA,"incongruent","right","TRUE",NA,NA,NA,NA,NA,NA
"44678","sort_trial",NA,"free-sort","114","1669196","0.0-3.0-69.0","2","2020-1-7 8:47:44","SEAL",NA,NA,NA,NA,NA,NA,NA,NA,"[{""cat"":7,""src"":10,""x"":36,""y"":268},{""cat"":16,""src"":12,""x"":47,""y"":143},{""cat"":15,""src"":9,""x"":41,""y"":24},{""cat"":15,""src"":13,""x"":79,""y"":180},{""cat"":16,""src"":6,""x"":73,""y"":426},{""cat"":7,""src"":7,""x"":42,""y"":491},{""cat"":16,""src"":4,""x"":28,""y"":360},{""cat"":7,""src"":17,""x"":27,""y"":312},{""cat"":15,""src"":14,""x"":44,""y"":66}]","[{""cat"":""16"",""src"":""4"",""x"":0,""y"":0},{""cat"":""15"",""src"":""13"",""x"":0,""y"":0},{""cat"":""7"",""src"":""10"",""x"":0,""y"":0},{""cat"":""16"",""src"":""6"",""x"":0,""y"":0},{""cat"":""15"",""src"":""9"",""x"":667,""y"":47},{""cat"":""15"",""src"":""9"",""x"":0,""y"":0},{""cat"":""7"",""src"":""17"",""x"":0,""y"":0},{""cat"":""15"",""src"":""14"",""x"":0,""y"":0},{""cat"":""16"",""src"":""12"",""x"":0,""y"":0},{""cat"":""7"",""src"":""7"",""x"":0,""y"":0}]","[{""cat"":16,""src"":4,""loc"":1},{""cat"":15,""src"":13,""loc"":0},{""cat"":7,""src"":10,""loc"":2},{""cat"":16,""src"":6,""loc"":5},{""cat"":15,""src"":9,""loc"":4},{""cat"":7,""src"":17,""loc"":3},{""cat"":15,""src"":14,""loc"":6},{""cat"":16,""src"":12,""loc"":8},{""cat"":7,""src"":7,""loc"":7}]","9","15,16,7,7,15,16,15,7,16,13,4,10,17,9,6,14,7,12,0,1,2,3,4,5,6,7,8,1,0,2,5,4,3,6,8,7",NA
"9040","sort_feedback","32","html-keyboard-response","115","1678250","0.0-3.0-70.0","2","2020-1-7 8:47:44","SEAL",NA,NA,NA,NA,NA,NA,NA,NA,NA,NA,NA,NA,NA,NA
"19934","setup1",NA,"animation","116","1698185","0.0-3.0-71.0","2","2020-1-7 8:47:44","SEAL",NA,NA,"[{""cat"":13,""src"":2,""loc"":8},{""cat"":13,""src"":14,""loc"":6},{""cat"":13,""src"":3,""loc"":7},{""cat"":8,""src"":0,""loc"":2},{""cat"":8,""src"":12,""loc"":0},{""cat"":8,""src"":19,""loc"":1},{""cat"":20,""src"":1,""loc"":3},{""cat"":20,""src"":16,""loc"":5},{""cat"":20,""src"":17,""loc"":4}]","1","1104,1103,1103,1104,1103,1104,1103,1103,1103,10004",NA,NA,NA,NA,NA,NA,NA,NA,NA
"10088","flanker_instructions","37","html-keyboard-response","117","1708277","0.0-3.0-72.0","2","2020-1-7 8:47:44","SEAL",NA,NA,NA,NA,NA,NA,NA,NA,NA,NA,NA,NA,NA,NA
"694","flanker_test","37","image-keyboard-response","118","1709975","0.0-3.0-73.0-0.0","2","2020-1-7 8:47:44","SEAL",NA,NA,NA,NA,NA,"incongruent","left","TRUE",NA,NA,NA,NA,NA,NA
"561","flanker_test","39","image-keyboard-response","119","1711032","0.0-3.0-73.0-0.1","2","2020-1-7 8:47:44","SEAL",NA,NA,NA,NA,NA,"incongruent","right","TRUE",NA,NA,NA,NA,NA,NA
"518","flanker_test","39","image-keyboard-response","120","1711994","0.0-3.0-73.0-0.2","2","2020-1-7 8:47:44","SEAL",NA,NA,NA,NA,NA,"congruent","right","TRUE",NA,NA,NA,NA,NA,NA
"485","flanker_test","37","image-keyboard-response","121","1713005","0.0-3.0-73.0-0.3","2","2020-1-7 8:47:44","SEAL",NA,NA,NA,NA,NA,"congruent","left","TRUE",NA,NA,NA,NA,NA,NA
"58196","sort_trial",NA,"free-sort","122","1772240","0.0-3.0-74.0","2","2020-1-7 8:47:44","SEAL",NA,NA,NA,NA,NA,NA,NA,NA,"[{""cat"":13,""src"":2,""x"":53,""y"":314},{""cat"":13,""src"":14,""x"":45,""y"":256},{""cat"":13,""src"":3,""x"":57,""y"":135},{""cat"":8,""src"":0,""x"":76,""y"":480},{""cat"":8,""src"":12,""x"":54,""y"":67},{""cat"":8,""src"":19,""x"":25,""y"":373},{""cat"":20,""src"":1,""x"":32,""y"":203},{""cat"":20,""src"":16,""x"":52,""y"":419},{""cat"":20,""src"":17,""x"":1,""y"":25}]","[{""cat"":""8"",""src"":""19"",""x"":0,""y"":0},{""cat"":""8"",""src"":""12"",""x"":0,""y"":0},{""cat"":""8"",""src"":""0"",""x"":285,""y"":224},{""cat"":""8"",""src"":""0"",""x"":0,""y"":0},{""cat"":""20"",""src"":""16"",""x"":0,""y"":0},{""cat"":""20"",""src"":""17"",""x"":748,""y"":87},{""cat"":""20"",""src"":""17"",""x"":0,""y"":0},{""cat"":""20"",""src"":""1"",""x"":0,""y"":0},{""cat"":""13"",""src"":""14"",""x"":0,""y"":0},{""cat"":""13"",""src"":""2"",""x"":0,""y"":0},{""cat"":""13"",""src"":""3"",""x"":0,""y"":0}]","[{""cat"":8,""src"":19,""loc"":1},{""cat"":8,""src"":12,""loc"":0},{""cat"":8,""src"":0,""loc"":2},{""cat"":20,""src"":16,""loc"":5},{""cat"":20,""src"":17,""loc"":4},{""cat"":20,""src"":1,""loc"":3},{""cat"":13,""src"":14,""loc"":6},{""cat"":13,""src"":2,""loc"":8},{""cat"":13,""src"":3,""loc"":7}]","9","8,8,8,20,20,20,13,13,13,12,19,0,1,17,16,14,3,2,0,1,2,3,4,5,6,7,8,1,0,2,5,4,3,6,8,7",NA
"2739","sort_feedback","32","html-keyboard-response","123","1774983","0.0-3.0-75.0","2","2020-1-7 8:47:44","SEAL",NA,NA,NA,NA,NA,NA,NA,NA,NA,NA,NA,NA,NA,NA
"19935","setup4",NA,"animation","124","1794919","0.0-3.0-76.0","2","2020-1-7 8:47:44","SEAL",NA,NA,"[{""cat"":32,""src"":18,""loc"":3},{""cat"":32,""src"":2,""loc"":2},{""cat"":32,""src"":0,""loc"":8},{""cat"":12,""src"":1,""loc"":4},{""cat"":12,""src"":7,""loc"":0},{""cat"":12,""src"":4,""loc"":6},{""cat"":3,""src"":6,""loc"":5},{""cat"":3,""src"":11,""loc"":1},{""cat"":3,""src"":10,""loc"":7}]","4","1104,1104,1104,1102,1104,1104,1104,1105,1102,10001",NA,NA,NA,NA,NA,NA,NA,NA,NA
"2579","flanker_instructions","39","html-keyboard-response","125","1797504","0.0-3.0-77.0","2","2020-1-7 8:47:44","SEAL",NA,NA,NA,NA,NA,NA,NA,NA,NA,NA,NA,NA,NA,NA
"593","flanker_test","37","image-keyboard-response","126","1799101","0.0-3.0-78.0-0.0","2","2020-1-7 8:47:44","SEAL",NA,NA,NA,NA,NA,"congruent","left","TRUE",NA,NA,NA,NA,NA,NA
"637","flanker_test","39","image-keyboard-response","127","1800731","0.0-3.0-78.0-0.1","2","2020-1-7 8:47:44","SEAL",NA,NA,NA,NA,NA,"incongruent","right","TRUE",NA,NA,NA,NA,NA,NA
"639","flanker_test","39","image-keyboard-response","128","1802466","0.0-3.0-78.0-0.2","2","2020-1-7 8:47:44","SEAL",NA,NA,NA,NA,NA,"congruent","right","TRUE",NA,NA,NA,NA,NA,NA
"610","flanker_test","37","image-keyboard-response","129","1803706","0.0-3.0-78.0-0.3","2","2020-1-7 8:47:44","SEAL",NA,NA,NA,NA,NA,"incongruent","left","TRUE",NA,NA,NA,NA,NA,NA
"44718","sort_trial",NA,"free-sort","130","1848726","0.0-3.0-79.0","2","2020-1-7 8:47:44","SEAL",NA,NA,NA,NA,NA,NA,NA,NA,"[{""cat"":32,""src"":18,""x"":45,""y"":383},{""cat"":32,""src"":2,""x"":27,""y"":328},{""cat"":32,""src"":0,""x"":22,""y"":436},{""cat"":12,""src"":1,""x"":39,""y"":78},{""cat"":12,""src"":7,""x"":46,""y"":149},{""cat"":12,""src"":4,""x"":48,""y"":481},{""cat"":3,""src"":6,""x"":51,""y"":208},{""cat"":3,""src"":11,""x"":8,""y"":6},{""cat"":3,""src"":10,""x"":43,""y"":252}]","[{""cat"":""3"",""src"":""11"",""x"":0,""y"":0},{""cat"":""12"",""src"":""7"",""x"":0,""y"":0},{""cat"":""32"",""src"":""2"",""x"":0,""y"":0},{""cat"":""3"",""src"":""6"",""x"":0,""y"":0},{""cat"":""12"",""src"":""1"",""x"":0,""y"":0},{""cat"":""32"",""src"":""18"",""x"":0,""y"":0},{""cat"":""12"",""src"":""4"",""x"":0,""y"":0},{""cat"":""3"",""src"":""10"",""x"":0,""y"":0},{""cat"":""32"",""src"":""0"",""x"":0,""y"":0}]","[{""cat"":3,""src"":11,""loc"":1},{""cat"":12,""src"":7,""loc"":0},{""cat"":32,""src"":2,""loc"":2},{""cat"":3,""src"":6,""loc"":5},{""cat"":12,""src"":1,""loc"":4},{""cat"":32,""src"":18,""loc"":3},{""cat"":12,""src"":4,""loc"":6},{""cat"":3,""src"":10,""loc"":7},{""cat"":32,""src"":0,""loc"":8}]","9","12,3,32,32,12,3,12,3,32,7,11,2,18,1,6,4,10,0,0,1,2,3,4,5,6,7,8,1,0,2,5,4,3,6,7,8",NA
"22367","sort_feedback","32","html-keyboard-response","131","1871097","0.0-3.0-80.0","2","2020-1-7 8:47:44","SEAL",NA,NA,NA,NA,NA,NA,NA,NA,NA,NA,NA,NA,NA,NA
"19938","setup5",NA,"animation","132","1891037","0.0-3.0-81.0","2","2020-1-7 8:47:44","SEAL",NA,NA,"[{""cat"":24,""src"":8,""loc"":0},{""cat"":13,""src"":12,""loc"":5},{""cat"":15,""src"":18,""loc"":7},{""cat"":15,""src"":15,""loc"":1},{""cat"":13,""src"":5,""loc"":8},{""cat"":24,""src"":1,""loc"":3},{""cat"":13,""src"":10,""loc"":2},{""cat"":15,""src"":9,""loc"":4},{""cat"":24,""src"":2,""loc"":6}]","5","1106,1102,1103,1101,1104,1105,1102,1105,1104,10006",NA,NA,NA,NA,NA,NA,NA,NA,NA
"1476","flanker_instructions","39","html-keyboard-response","133","1892517","0.0-3.0-82.0","2","2020-1-7 8:47:44","SEAL",NA,NA,NA,NA,NA,NA,NA,NA,NA,NA,NA,NA,NA,NA
"822","flanker_test","37","image-keyboard-response","134","1894343","0.0-3.0-83.0-0.0","2","2020-1-7 8:47:44","SEAL",NA,NA,NA,NA,NA,"incongruent","left","TRUE",NA,NA,NA,NA,NA,NA
"531","flanker_test","37","image-keyboard-response","135","1896031","0.0-3.0-83.0-0.1","2","2020-1-7 8:47:44","SEAL",NA,NA,NA,NA,NA,"congruent","left","TRUE",NA,NA,NA,NA,NA,NA
"533","flanker_test","39","image-keyboard-response","136","1897715","0.0-3.0-83.0-0.2","2","2020-1-7 8:47:44","SEAL",NA,NA,NA,NA,NA,"incongruent","right","TRUE",NA,NA,NA,NA,NA,NA
"457","flanker_test","39","image-keyboard-response","137","1899337","0.0-3.0-83.0-0.3","2","2020-1-7 8:47:44","SEAL",NA,NA,NA,NA,NA,"congruent","right","TRUE",NA,NA,NA,NA,NA,NA
"58451","sort_trial",NA,"free-sort","138","1958843","0.0-3.0-84.0","2","2020-1-7 8:47:44","SEAL",NA,NA,NA,NA,NA,NA,NA,NA,"[{""cat"":24,""src"":8,""x"":30,""y"":129},{""cat"":13,""src"":12,""x"":73,""y"":64},{""cat"":15,""src"":18,""x"":30,""y"":483},{""cat"":15,""src"":15,""x"":27,""y"":314},{""cat"":13,""src"":5,""x"":80,""y"":180},{""cat"":24,""src"":1,""x"":64,""y"":370},{""cat"":13,""src"":10,""x"":33,""y"":435},{""cat"":15,""src"":9,""x"":21,""y"":24},{""cat"":24,""src"":2,""x"":17,""y"":245}]","[{""cat"":""15"",""src"":""15"",""x"":0,""y"":0},{""cat"":""24"",""src"":""8"",""x"":120,""y"":122},{""cat"":""24"",""src"":""8"",""x"":0,""y"":0},{""cat"":""13"",""src"":""10"",""x"":0,""y"":0},{""cat"":""13"",""src"":""12"",""x"":0,""y"":0},{""cat"":""15"",""src"":""9"",""x"":0,""y"":0},{""cat"":""24"",""src"":""1"",""x"":0,""y"":0},{""cat"":""24"",""src"":""2"",""x"":0,""y"":0},{""cat"":""13"",""src"":""5"",""x"":0,""y"":0},{""cat"":""15"",""src"":""18"",""x"":0,""y"":0}]","[{""cat"":15,""src"":15,""loc"":1},{""cat"":24,""src"":8,""loc"":0},{""cat"":13,""src"":10,""loc"":2},{""cat"":13,""src"":12,""loc"":5},{""cat"":15,""src"":9,""loc"":4},{""cat"":24,""src"":1,""loc"":3},{""cat"":24,""src"":2,""loc"":6},{""cat"":13,""src"":5,""loc"":8},{""cat"":15,""src"":18,""loc"":7}]","9","24,15,13,24,15,13,24,15,13,8,15,10,1,9,12,2,18,5,0,1,2,3,4,5,6,7,8,1,0,2,5,4,3,6,8,7",NA
"1975","sort_feedback","32","html-keyboard-response","139","1960822","0.0-3.0-85.0","2","2020-1-7 8:47:44","SEAL",NA,NA,NA,NA,NA,NA,NA,NA,NA,NA,NA,NA,NA,NA
"19933","setup2",NA,"animation","140","1980757","0.0-3.0-86.0","2","2020-1-7 8:47:44","SEAL",NA,NA,"[{""cat"":8,""src"":7,""loc"":2},{""cat"":22,""src"":12,""loc"":0},{""cat"":30,""src"":19,""loc"":1},{""cat"":22,""src"":16,""loc"":3},{""cat"":30,""src"":1,""loc"":5},{""cat"":8,""src"":1,""loc"":4},{""cat"":22,""src"":5,""loc"":6},{""cat"":30,""src"":6,""loc"":8},{""cat"":8,""src"":12,""loc"":7}]","2","1104,1104,1103,1103,1103,1104,1104,1102,1105,10001",NA,NA,NA,NA,NA,NA,NA,NA,NA
"2326","flanker_instructions","39","html-keyboard-response","141","1983088","0.0-3.0-87.0","2","2020-1-7 8:47:44","SEAL",NA,NA,NA,NA,NA,NA,NA,NA,NA,NA,NA,NA,NA,NA
"612","flanker_test","39","image-keyboard-response","142","1984705","0.0-3.0-88.0-0.0","2","2020-1-7 8:47:44","SEAL",NA,NA,NA,NA,NA,"congruent","right","TRUE",NA,NA,NA,NA,NA,NA
"548","flanker_test","37","image-keyboard-response","143","1986177","0.0-3.0-88.0-0.1","2","2020-1-7 8:47:44","SEAL",NA,NA,NA,NA,NA,"congruent","left","TRUE",NA,NA,NA,NA,NA,NA
"571","flanker_test","39","image-keyboard-response","144","1987919","0.0-3.0-88.0-0.2","2","2020-1-7 8:47:44","SEAL",NA,NA,NA,NA,NA,"incongruent","right","TRUE",NA,NA,NA,NA,NA,NA
"662","flanker_test","37","image-keyboard-response","145","1989768","0.0-3.0-88.0-0.3","2","2020-1-7 8:47:44","SEAL",NA,NA,NA,NA,NA,"incongruent","left","TRUE",NA,NA,NA,NA,NA,NA
"47902","sort_trial",NA,"free-sort","146","2038602","0.0-3.0-89.0","2","2020-1-7 8:47:44","SEAL",NA,NA,NA,NA,NA,NA,NA,NA,"[{""cat"":8,""src"":7,""x"":35,""y"":8},{""cat"":22,""src"":12,""x"":71,""y"":368},{""cat"":30,""src"":19,""x"":35,""y"":121},{""cat"":22,""src"":16,""x"":2,""y"":484},{""cat"":30,""src"":1,""x"":54,""y"":443},{""cat"":8,""src"":1,""x"":1,""y"":72},{""cat"":22,""src"":5,""x"":83,""y"":250},{""cat"":30,""src"":6,""x"":6,""y"":316},{""cat"":8,""src"":12,""x"":78,""y"":180}]","[{""cat"":""30"",""src"":""19"",""x"":0,""y"":0},{""cat"":""8"",""src"":""7"",""x"":85,""y"":7},{""cat"":""8"",""src"":""7"",""x"":37,""y"":8},{""cat"":""8"",""src"":""7"",""x"":0,""y"":0},{""cat"":""22"",""src"":""12"",""x"":0,""y"":0},{""cat"":""30"",""src"":""1"",""x"":0,""y"":0},{""cat"":""8"",""src"":""1"",""x"":0,""y"":0},{""cat"":""22"",""src"":""16"",""x"":0,""y"":0},{""cat"":""22"",""src"":""5"",""x"":0,""y"":0},{""cat"":""30"",""src"":""6"",""x"":0,""y"":0},{""cat"":""8"",""src"":""12"",""x"":0,""y"":0}]","[{""cat"":30,""src"":19,""loc"":1},{""cat"":8,""src"":7,""loc"":2},{""cat"":22,""src"":12,""loc"":0},{""cat"":30,""src"":1,""loc"":5},{""cat"":8,""src"":1,""loc"":4},{""cat"":22,""src"":16,""loc"":3},{""cat"":22,""src"":5,""loc"":7},{""cat"":30,""src"":6,""loc"":6},{""cat"":8,""src"":12,""loc"":8}]","6","22,30,8,22,8,30,30,22,8,12,19,7,16,1,1,6,5,12,0,1,2,3,4,5,6,7,8,2,0,1,5,4,3,7,6,8",NA
"8447","sort_feedback","32","html-keyboard-response","147","2047054","0.0-3.0-90.0","2","2020-1-7 8:47:44","SEAL",NA,NA,NA,NA,NA,NA,NA,NA,NA,NA,NA,NA,NA,NA
"19940","setup3",NA,"animation","148","2066995","0.0-3.0-91.0","2","2020-1-7 8:47:44","SEAL",NA,NA,"[{""cat"":29,""src"":4,""loc"":2},{""cat"":28,""src"":2,""loc"":6},{""cat"":1,""src"":4,""loc"":4},{""cat"":1,""src"":17,""loc"":5},{""cat"":28,""src"":7,""loc"":7},{""cat"":29,""src"":10,""loc"":0},{""cat"":28,""src"":16,""loc"":8},{""cat"":29,""src"":11,""loc"":1},{""cat"":1,""src"":8,""loc"":3}]","3","1104,1103,1104,1105,1104,1104,1106,1103,1104,10002",NA,NA,NA,NA,NA,NA,NA,NA,NA
"1718","flanker_instructions","37","html-keyboard-response","149","2068717","0.0-3.0-92.0","2","2020-1-7 8:47:44","SEAL",NA,NA,NA,NA,NA,NA,NA,NA,NA,NA,NA,NA,NA,NA
"794","flanker_test","37","image-keyboard-response","150","2070517","0.0-3.0-93.0-0.0","2","2020-1-7 8:47:44","SEAL",NA,NA,NA,NA,NA,"incongruent","left","TRUE",NA,NA,NA,NA,NA,NA
"552","flanker_test","39","image-keyboard-response","151","2072182","0.0-3.0-93.0-0.1","2","2020-1-7 8:47:44","SEAL",NA,NA,NA,NA,NA,"congruent","right","TRUE",NA,NA,NA,NA,NA,NA
"654","flanker_test","37","image-keyboard-response","152","2073359","0.0-3.0-93.0-0.2","2","2020-1-7 8:47:44","SEAL",NA,NA,NA,NA,NA,"congruent","left","TRUE",NA,NA,NA,NA,NA,NA
"646","flanker_test","39","image-keyboard-response","153","2074578","0.0-3.0-93.0-0.3","2","2020-1-7 8:47:44","SEAL",NA,NA,NA,NA,NA,"incongruent","right","TRUE",NA,NA,NA,NA,NA,NA
"47011","sort_trial",NA,"free-sort","154","2122657","0.0-3.0-94.0","2","2020-1-7 8:47:44","SEAL",NA,NA,NA,NA,NA,NA,NA,NA,"[{""cat"":29,""src"":4,""x"":15,""y"":303},{""cat"":28,""src"":2,""x"":79,""y"":133},{""cat"":1,""src"":4,""x"":9,""y"":86},{""cat"":1,""src"":17,""x"":54,""y"":449},{""cat"":28,""src"":7,""x"":37,""y"":386},{""cat"":29,""src"":10,""x"":44,""y"":180},{""cat"":28,""src"":16,""x"":76,""y"":2},{""cat"":29,""src"":11,""x"":55,""y"":494},{""cat"":1,""src"":8,""x"":77,""y"":246}]","[{""cat"":""29"",""src"":""11"",""x"":414,""y"":133},{""cat"":""29"",""src"":""11"",""x"":0,""y"":0},{""cat"":""29"",""src"":""10"",""x"":0,""y"":0},{""cat"":""29"",""src"":""4"",""x"":0,""y"":0},{""cat"":""1"",""src"":""17"",""x"":0,""y"":0},{""cat"":""1"",""src"":""4"",""x"":567,""y"":65},{""cat"":""1"",""src"":""4"",""x"":0,""y"":0},{""cat"":""1"",""src"":""8"",""x"":0,""y"":0},{""cat"":""28"",""src"":""2"",""x"":0,""y"":0},{""cat"":""28"",""src"":""7"",""x"":0,""y"":0},{""cat"":""28"",""src"":""16"",""x"":0,""y"":0}]","[{""cat"":29,""src"":11,""loc"":1},{""cat"":29,""src"":10,""loc"":0},{""cat"":29,""src"":4,""loc"":2},{""cat"":1,""src"":17,""loc"":5},{""cat"":1,""src"":4,""loc"":4},{""cat"":1,""src"":8,""loc"":3},{""cat"":28,""src"":2,""loc"":6},{""cat"":28,""src"":7,""loc"":7},{""cat"":28,""src"":16,""loc"":8}]","9","29,29,29,1,1,1,28,28,28,10,11,4,8,4,17,2,7,16,0,1,2,3,4,5,6,7,8,1,0,2,5,4,3,6,7,8",NA
"5559","sort_feedback","32","html-keyboard-response","155","2128219","0.0-3.0-95.0","2","2020-1-7 8:47:44","SEAL",NA,NA,NA,NA,NA,NA,NA,NA,NA,NA,NA,NA,NA,NA
"19931","setup1",NA,"animation","156","2148151","0.0-3.0-96.0","2","2020-1-7 8:47:44","SEAL",NA,NA,"[{""cat"":20,""src"":3,""loc"":6},{""cat"":20,""src"":17,""loc"":7},{""cat"":20,""src"":9,""loc"":8},{""cat"":24,""src"":19,""loc"":0},{""cat"":24,""src"":18,""loc"":2},{""cat"":24,""src"":14,""loc"":1},{""cat"":5,""src"":5,""loc"":3},{""cat"":5,""src"":3,""loc"":5},{""cat"":5,""src"":15,""loc"":4}]","1","1104,1104,1104,1103,1101,1103,1103,1103,1104,10002",NA,NA,NA,NA,NA,NA,NA,NA,NA
"2316","flanker_instructions","37","html-keyboard-response","157","2150473","0.0-3.0-97.0","2","2020-1-7 8:47:44","SEAL",NA,NA,NA,NA,NA,NA,NA,NA,NA,NA,NA,NA,NA,NA
NA,"flanker_test",NA,"image-keyboard-response","158","2152379","0.0-3.0-98.0-0.0","2","2020-1-7 8:47:44","SEAL",NA,NA,NA,NA,NA,"incongruent","right","FALSE",NA,NA,NA,NA,NA,NA
"562","flanker_test","39","image-keyboard-response","159","2153582","0.0-3.0-98.0-0.1","2","2020-1-7 8:47:44","SEAL",NA,NA,NA,NA,NA,"congruent","right","TRUE",NA,NA,NA,NA,NA,NA
"509","flanker_test","37","image-keyboard-response","160","2155055","0.0-3.0-98.0-0.2","2","2020-1-7 8:47:44","SEAL",NA,NA,NA,NA,NA,"congruent","left","TRUE",NA,NA,NA,NA,NA,NA
"570","flanker_test","37","image-keyboard-response","161","2156805","0.0-3.0-98.0-0.3","2","2020-1-7 8:47:44","SEAL",NA,NA,NA,NA,NA,"incongruent","left","TRUE",NA,NA,NA,NA,NA,NA
"55217","sort_trial",NA,"free-sort","162","2212332","0.0-3.0-99.0","2","2020-1-7 8:47:44","SEAL",NA,NA,NA,NA,NA,NA,NA,NA,"[{""cat"":20,""src"":3,""x"":41,""y"":301},{""cat"":20,""src"":17,""x"":49,""y"":256},{""cat"":20,""src"":9,""x"":7,""y"":498},{""cat"":24,""src"":19,""x"":14,""y"":385},{""cat"":24,""src"":18,""x"":71,""y"":196},{""cat"":24,""src"":14,""x"":13,""y"":83},{""cat"":5,""src"":5,""x"":35,""y"":12},{""cat"":5,""src"":3,""x"":82,""y"":128},{""cat"":5,""src"":15,""x"":7,""y"":447}]","[{""cat"":""5"",""src"":""3"",""x"":0,""y"":0},{""cat"":""5"",""src"":""15"",""x"":433,""y"":472},{""cat"":""5"",""src"":""15"",""x"":841,""y"":390},{""cat"":""5"",""src"":""15"",""x"":0,""y"":0},{""cat"":""5"",""src"":""5"",""x"":0,""y"":0},{""cat"":""20"",""src"":""3"",""x"":0,""y"":0},{""cat"":""20"",""src"":""9"",""x"":513,""y"":407},{""cat"":""20"",""src"":""9"",""x"":0,""y"":0},{""cat"":""20"",""src"":""17"",""x"":0,""y"":0},{""cat"":""24"",""src"":""14"",""x"":0,""y"":0},{""cat"":""24"",""src"":""18"",""x"":0,""y"":0},{""cat"":""24"",""src"":""19"",""x"":0,""y"":0}]","[{""cat"":5,""src"":3,""loc"":5},{""cat"":5,""src"":15,""loc"":4},{""cat"":5,""src"":5,""loc"":3},{""cat"":20,""src"":3,""loc"":6},{""cat"":20,""src"":9,""loc"":8},{""cat"":20,""src"":17,""loc"":7},{""cat"":24,""src"":14,""loc"":1},{""cat"":24,""src"":18,""loc"":2},{""cat"":24,""src"":19,""loc"":0}]","9","24,24,24,5,5,5,20,20,20,19,14,18,5,15,3,3,17,9,0,1,2,3,4,5,6,7,8,8,6,7,2,1,0,3,5,4",NA
"1856","sort_feedback","32","html-keyboard-response","163","2214191","0.0-3.0-100.0","2","2020-1-7 8:47:44","SEAL",NA,NA,NA,NA,NA,NA,NA,NA,NA,NA,NA,NA,NA,NA
NA,"breakStart",NA,"html-keyboard-response","164","2244196","0.0-4.0-0.0","2","2020-1-7 8:47:44","SEAL",NA,NA,NA,NA,NA,NA,NA,NA,NA,NA,NA,NA,NA,NA
"1873","breakEnd",NA,"html-button-response","165","2246073","0.0-4.0-1.0","2","2020-1-7 8:47:44","SEAL","0",NA,NA,NA,NA,NA,NA,NA,NA,NA,NA,NA,NA,NA
"19932","setup1",NA,"animation","166","2266006","0.0-5.0-0.0","2","2020-1-7 8:47:44","SEAL",NA,NA,"[{""cat"":4,""src"":10,""loc"":3},{""cat"":4,""src"":18,""loc"":5},{""cat"":4,""src"":3,""loc"":4},{""cat"":22,""src"":0,""loc"":1},{""cat"":22,""src"":3,""loc"":2},{""cat"":22,""src"":6,""loc"":0},{""cat"":19,""src"":10,""loc"":7},{""cat"":19,""src"":12,""loc"":6},{""cat"":19,""src"":0,""loc"":8}]","1","1103,1102,1104,1103,1103,1103,1104,1103,1103,10004",NA,NA,NA,NA,NA,NA,NA,NA,NA
"885","flanker_instructions","39","html-keyboard-response","167","2266896","0.0-5.0-1.0","2","2020-1-7 8:47:44","SEAL",NA,NA,NA,NA,NA,NA,NA,NA,NA,NA,NA,NA,NA,NA
"723","flanker_test","37","image-keyboard-response","168","2268626","0.0-5.0-2.0-0.0","2","2020-1-7 8:47:44","SEAL",NA,NA,NA,NA,NA,"incongruent","left","TRUE",NA,NA,NA,NA,NA,NA
"553","flanker_test","37","image-keyboard-response","169","2269648","0.0-5.0-2.0-0.1","2","2020-1-7 8:47:44","SEAL",NA,NA,NA,NA,NA,"congruent","left","TRUE",NA,NA,NA,NA,NA,NA
"454","flanker_test","39","image-keyboard-response","170","2270797","0.0-5.0-2.0-0.2","2","2020-1-7 8:47:44","SEAL",NA,NA,NA,NA,NA,"incongruent","right","TRUE",NA,NA,NA,NA,NA,NA
"520","flanker_test","39","image-keyboard-response","171","2271837","0.0-5.0-2.0-0.3","2","2020-1-7 8:47:44","SEAL",NA,NA,NA,NA,NA,"congruent","right","TRUE",NA,NA,NA,NA,NA,NA
"53408","sort_trial",NA,"free-sort","172","2326178","0.0-5.0-3.0","2","2020-1-7 8:47:44","SEAL",NA,NA,NA,NA,NA,NA,NA,NA,"[{""cat"":4,""src"":10,""x"":81,""y"":130},{""cat"":4,""src"":18,""x"":70,""y"":325},{""cat"":4,""src"":3,""x"":6,""y"":258},{""cat"":22,""src"":0,""x"":48,""y"":485},{""cat"":22,""src"":3,""x"":9,""y"":366},{""cat"":22,""src"":6,""x"":12,""y"":28},{""cat"":19,""src"":10,""x"":34,""y"":437},{""cat"":19,""src"":12,""x"":42,""y"":201},{""cat"":19,""src"":0,""x"":39,""y"":70}]","[{""cat"":""22"",""src"":""0"",""x"":0,""y"":0},{""cat"":""22"",""src"":""6"",""x"":0,""y"":0},{""cat"":""22"",""src"":""3"",""x"":0,""y"":0},{""cat"":""4"",""src"":""18"",""x"":0,""y"":0},{""cat"":""4"",""src"":""3"",""x"":0,""y"":0},{""cat"":""4"",""src"":""10"",""x"":0,""y"":0},{""cat"":""19"",""src"":""0"",""x"":0,""y"":0},{""cat"":""19"",""src"":""12"",""x"":91,""y"":218},{""cat"":""19"",""src"":""12"",""x"":423,""y"":284},{""cat"":""19"",""src"":""12"",""x"":0,""y"":0},{""cat"":""19"",""src"":""10"",""x"":0,""y"":0}]","[{""cat"":22,""src"":0,""loc"":1},{""cat"":22,""src"":6,""loc"":0},{""cat"":22,""src"":3,""loc"":2},{""cat"":4,""src"":18,""loc"":5},{""cat"":4,""src"":3,""loc"":4},{""cat"":4,""src"":10,""loc"":3},{""cat"":19,""src"":0,""loc"":8},{""cat"":19,""src"":12,""loc"":6},{""cat"":19,""src"":10,""loc"":7}]","9","22,22,22,4,4,4,19,19,19,6,0,3,10,3,18,12,10,0,0,1,2,3,4,5,6,7,8,1,0,2,5,4,3,7,8,6",NA
"4825","sort_feedback","32","html-keyboard-response","173","2331006","0.0-5.0-4.0","2","2020-1-7 8:47:44","SEAL",NA,NA,NA,NA,NA,NA,NA,NA,NA,NA,NA,NA,NA,NA
"19938","setup5",NA,"animation","174","2350946","0.0-5.0-5.0","2","2020-1-7 8:47:44","SEAL",NA,NA,"[{""cat"":30,""src"":5,""loc"":6},{""cat"":26,""src"":9,""loc"":4},{""cat"":33,""src"":11,""loc"":2},{""cat"":30,""src"":1,""loc"":1},{""cat"":33,""src"":8,""loc"":3},{""cat"":26,""src"":3,""loc"":7},{""cat"":33,""src"":13,""loc"":8},{""cat"":26,""src"":18,""loc"":0},{""cat"":30,""src"":7,""loc"":5}]","5","1106,1103,1104,1104,1103,1104,1103,1104,1103,10004",NA,NA,NA,NA,NA,NA,NA,NA,NA
"2528","flanker_instructions","37","html-keyboard-response","175","2353478","0.0-5.0-6.0","2","2020-1-7 8:47:44","SEAL",NA,NA,NA,NA,NA,NA,NA,NA,NA,NA,NA,NA,NA,NA
"583","flanker_test","39","image-keyboard-response","176","2355066","0.0-5.0-7.0-0.0","2","2020-1-7 8:47:44","SEAL",NA,NA,NA,NA,NA,"congruent","right","TRUE",NA,NA,NA,NA,NA,NA
"622","flanker_test","37","image-keyboard-response","177","2356658","0.0-5.0-7.0-0.1","2","2020-1-7 8:47:44","SEAL",NA,NA,NA,NA,NA,"incongruent","left","TRUE",NA,NA,NA,NA,NA,NA
"526","flanker_test","39","image-keyboard-response","178","2358092","0.0-5.0-7.0-0.2","2","2020-1-7 8:47:44","SEAL",NA,NA,NA,NA,NA,"incongruent","right","TRUE",NA,NA,NA,NA,NA,NA
"455","flanker_test","37","image-keyboard-response","179","2359543","0.0-5.0-7.0-0.3","2","2020-1-7 8:47:44","SEAL",NA,NA,NA,NA,NA,"congruent","left","TRUE",NA,NA,NA,NA,NA,NA
"45888","sort_trial",NA,"free-sort","180","2406579","0.0-5.0-8.0","2","2020-1-7 8:47:44","SEAL",NA,NA,NA,NA,NA,NA,NA,NA,"[{""cat"":30,""src"":5,""x"":79,""y"":120},{""cat"":26,""src"":9,""x"":11,""y"":195},{""cat"":33,""src"":11,""x"":27,""y"":427},{""cat"":30,""src"":1,""x"":26,""y"":60},{""cat"":33,""src"":8,""x"":73,""y"":325},{""cat"":26,""src"":3,""x"":57,""y"":479},{""cat"":33,""src"":13,""x"":46,""y"":13},{""cat"":26,""src"":18,""x"":69,""y"":367},{""cat"":30,""src"":7,""x"":29,""y"":251}]","[{""cat"":""30"",""src"":""1"",""x"":0,""y"":0},{""cat"":""26"",""src"":""18"",""x"":0,""y"":0},{""cat"":""33"",""src"":""11"",""x"":52,""y"":412},{""cat"":""33"",""src"":""11"",""x"":28,""y"":427},{""cat"":""33"",""src"":""11"",""x"":0,""y"":0},{""cat"":""30"",""src"":""7"",""x"":0,""y"":0},{""cat"":""26"",""src"":""9"",""x"":0,""y"":0},{""cat"":""33"",""src"":""8"",""x"":0,""y"":0},{""cat"":""30"",""src"":""5"",""x"":0,""y"":0},{""cat"":""33"",""src"":""13"",""x"":0,""y"":0},{""cat"":""26"",""src"":""3"",""x"":0,""y"":0}]","[{""cat"":30,""src"":1,""loc"":1},{""cat"":26,""src"":18,""loc"":0},{""cat"":33,""src"":11,""loc"":2},{""cat"":30,""src"":7,""loc"":5},{""cat"":26,""src"":9,""loc"":4},{""cat"":33,""src"":8,""loc"":3},{""cat"":30,""src"":5,""loc"":6},{""cat"":33,""src"":13,""loc"":8},{""cat"":26,""src"":3,""loc"":7}]","9","26,30,33,33,26,30,30,26,33,18,1,11,8,9,7,5,3,13,0,1,2,3,4,5,6,7,8,1,0,2,5,4,3,6,8,7",NA
"5001","sort_feedback","32","html-keyboard-response","181","2411583","0.0-5.0-9.0","2","2020-1-7 8:47:44","SEAL",NA,NA,NA,NA,NA,NA,NA,NA,NA,NA,NA,NA,NA,NA
"19937","setup2",NA,"animation","182","2431523","0.0-5.0-10.0","2","2020-1-7 8:47:44","SEAL",NA,NA,"[{""cat"":17,""src"":3,""loc"":8},{""cat"":6,""src"":1,""loc"":7},{""cat"":16,""src"":6,""loc"":6},{""cat"":16,""src"":14,""loc"":0},{""cat"":17,""src"":6,""loc"":2},{""cat"":6,""src"":12,""loc"":1},{""cat"":17,""src"":12,""loc"":4},{""cat"":16,""src"":1,""loc"":3},{""cat"":6,""src"":14,""loc"":5}]","2","1105,1103,1104,1103,1104,1104,1104,1103,1104,10003",NA,NA,NA,NA,NA,NA,NA,NA,NA
"1167","flanker_instructions","37","html-keyboard-response","183","2432695","0.0-5.0-11.0","2","2020-1-7 8:47:44","SEAL",NA,NA,NA,NA,NA,NA,NA,NA,NA,NA,NA,NA,NA,NA
"542","flanker_test","39","image-keyboard-response","184","2434241","0.0-5.0-12.0-0.0","2","2020-1-7 8:47:44","SEAL",NA,NA,NA,NA,NA,"incongruent","right","TRUE",NA,NA,NA,NA,NA,NA
"594","flanker_test","39","image-keyboard-response","185","2435668","0.0-5.0-12.0-0.1","2","2020-1-7 8:47:44","SEAL",NA,NA,NA,NA,NA,"congruent","right","TRUE",NA,NA,NA,NA,NA,NA
"535","flanker_test","37","image-keyboard-response","186","2436822","0.0-5.0-12.0-0.2","2","2020-1-7 8:47:44","SEAL",NA,NA,NA,NA,NA,"incongruent","left","TRUE",NA,NA,NA,NA,NA,NA
"523","flanker_test","37","image-keyboard-response","187","2438130","0.0-5.0-12.0-0.3","2","2020-1-7 8:47:44","SEAL",NA,NA,NA,NA,NA,"congruent","left","TRUE",NA,NA,NA,NA,NA,NA
"56273","sort_trial",NA,"free-sort","188","2495164","0.0-5.0-13.0","2","2020-1-7 8:47:44","SEAL",NA,NA,NA,NA,NA,NA,NA,NA,"[{""cat"":17,""src"":3,""x"":44,""y"":490},{""cat"":6,""src"":1,""x"":30,""y"":248},{""cat"":16,""src"":6,""x"":17,""y"":367},{""cat"":16,""src"":14,""x"":13,""y"":129},{""cat"":17,""src"":6,""x"":13,""y"":440},{""cat"":6,""src"":12,""x"":42,""y"":63},{""cat"":17,""src"":12,""x"":34,""y"":314},{""cat"":16,""src"":1,""x"":64,""y"":12},{""cat"":6,""src"":14,""x"":52,""y"":180}]","[{""cat"":""6"",""src"":""12"",""x"":0,""y"":0},{""cat"":""16"",""src"":""14"",""x"":0,""y"":0},{""cat"":""17"",""src"":""6"",""x"":215,""y"":283},{""cat"":""17"",""src"":""6"",""x"":0,""y"":0},{""cat"":""6"",""src"":""14"",""x"":560,""y"":120},{""cat"":""6"",""src"":""14"",""x"":0,""y"":0},{""cat"":""17"",""src"":""12"",""x"":0,""y"":0},{""cat"":""16"",""src"":""1"",""x"":0,""y"":0},{""cat"":""16"",""src"":""6"",""x"":0,""y"":0},{""cat"":""6"",""src"":""1"",""x"":0,""y"":0},{""cat"":""17"",""src"":""3"",""x"":51,""y"":490},{""cat"":""17"",""src"":""3"",""x"":532,""y"":331},{""cat"":""17"",""src"":""3"",""x"":0,""y"":0}]","[{""cat"":6,""src"":12,""loc"":1},{""cat"":16,""src"":14,""loc"":0},{""cat"":17,""src"":6,""loc"":2},{""cat"":6,""src"":14,""loc"":5},{""cat"":17,""src"":12,""loc"":4},{""cat"":16,""src"":1,""loc"":3},{""cat"":16,""src"":6,""loc"":6},{""cat"":6,""src"":1,""loc"":7},{""cat"":17,""src"":3,""loc"":8}]","9","16,6,17,16,17,6,16,6,17,14,12,6,1,12,14,6,1,3,0,1,2,3,4,5,6,7,8,1,0,2,5,4,3,6,7,8",NA
"6726","sort_feedback","32","html-keyboard-response","189","2501893","0.0-5.0-14.0","2","2020-1-7 8:47:44","SEAL",NA,NA,NA,NA,NA,NA,NA,NA,NA,NA,NA,NA,NA,NA
"19934","setup3",NA,"animation","190","2521829","0.0-5.0-15.0","2","2020-1-7 8:47:44","SEAL",NA,NA,"[{""cat"":8,""src"":15,""loc"":8},{""cat"":19,""src"":16,""loc"":3},{""cat"":21,""src"":16,""loc"":1},{""cat"":8,""src"":14,""loc"":6},{""cat"":19,""src"":19,""loc"":5},{""cat"":21,""src"":3,""loc"":0},{""cat"":21,""src"":8,""loc"":2},{""cat"":8,""src"":12,""loc"":7},{""cat"":19,""src"":7,""loc"":4}]","3","1103,1103,1103,1103,1103,1104,1103,1103,1106,10003",NA,NA,NA,NA,NA,NA,NA,NA,NA
"4593","flanker_instructions","39","html-keyboard-response","191","2526428","0.0-5.0-16.0","2","2020-1-7 8:47:44","SEAL",NA,NA,NA,NA,NA,NA,NA,NA,NA,NA,NA,NA,NA,NA
"462","flanker_test","37","image-keyboard-response","192","2527895","0.0-5.0-17.0-0.0","2","2020-1-7 8:47:44","SEAL",NA,NA,NA,NA,NA,"congruent","left","TRUE",NA,NA,NA,NA,NA,NA
"566","flanker_test","37","image-keyboard-response","193","2529530","0.0-5.0-17.0-0.1","2","2020-1-7 8:47:44","SEAL",NA,NA,NA,NA,NA,"incongruent","left","TRUE",NA,NA,NA,NA,NA,NA
"468","flanker_test","39","image-keyboard-response","194","2530720","0.0-5.0-17.0-0.2","2","2020-1-7 8:47:44","SEAL",NA,NA,NA,NA,NA,"incongruent","right","TRUE",NA,NA,NA,NA,NA,NA
"515","flanker_test","39","image-keyboard-response","195","2531621","0.0-5.0-17.0-0.3","2","2020-1-7 8:47:44","SEAL",NA,NA,NA,NA,NA,"congruent","right","TRUE",NA,NA,NA,NA,NA,NA
"51957","sort_trial",NA,"free-sort","196","2584256","0.0-5.0-18.0","2","2020-1-7 8:47:44","SEAL",NA,NA,NA,NA,NA,NA,NA,NA,"[{""cat"":8,""src"":15,""x"":83,""y"":426},{""cat"":19,""src"":16,""x"":18,""y"":505},{""cat"":21,""src"":16,""x"":52,""y"":381},{""cat"":8,""src"":14,""x"":10,""y"":24},{""cat"":19,""src"":19,""x"":65,""y"":70},{""cat"":21,""src"":3,""x"":75,""y"":188},{""cat"":21,""src"":8,""x"":12,""y"":149},{""cat"":8,""src"":12,""x"":51,""y"":302},{""cat"":19,""src"":7,""x"":7,""y"":268}]","[{""cat"":""21"",""src"":""16"",""x"":0,""y"":0},{""cat"":""21"",""src"":""3"",""x"":0,""y"":0},{""cat"":""21"",""src"":""8"",""x"":0,""y"":0},{""cat"":""19"",""src"":""19"",""x"":0,""y"":0},{""cat"":""19"",""src"":""7"",""x"":0,""y"":0},{""cat"":""19"",""src"":""16"",""x"":0,""y"":0},{""cat"":""8"",""src"":""14"",""x"":0,""y"":0},{""cat"":""8"",""src"":""12"",""x"":0,""y"":0},{""cat"":""8"",""src"":""15"",""x"":0,""y"":0}]","[{""cat"":21,""src"":16,""loc"":1},{""cat"":21,""src"":3,""loc"":0},{""cat"":21,""src"":8,""loc"":2},{""cat"":19,""src"":19,""loc"":5},{""cat"":19,""src"":7,""loc"":4},{""cat"":19,""src"":16,""loc"":3},{""cat"":8,""src"":14,""loc"":6},{""cat"":8,""src"":12,""loc"":7},{""cat"":8,""src"":15,""loc"":8}]","9","21,21,21,19,19,19,8,8,8,3,16,8,16,7,19,14,12,15,0,1,2,3,4,5,6,7,8,1,0,2,5,4,3,6,7,8",NA
"1672","sort_feedback","32","html-keyboard-response","197","2585931","0.0-5.0-19.0","2","2020-1-7 8:47:44","SEAL",NA,NA,NA,NA,NA,NA,NA,NA,NA,NA,NA,NA,NA,NA
"19935","setup4",NA,"animation","198","2605868","0.0-5.0-20.0","2","2020-1-7 8:47:44","SEAL",NA,NA,"[{""cat"":8,""src"":17,""loc"":7},{""cat"":8,""src"":6,""loc"":5},{""cat"":8,""src"":9,""loc"":0},{""cat"":23,""src"":9,""loc"":8},{""cat"":23,""src"":18,""loc"":3},{""cat"":23,""src"":3,""loc"":1},{""cat"":31,""src"":2,""loc"":4},{""cat"":31,""src"":11,""loc"":6},{""cat"":31,""src"":19,""loc"":2}]","4","1105,1102,1104,1103,1103,1103,1104,1105,1103,10003",NA,NA,NA,NA,NA,NA,NA,NA,NA
"2311","flanker_instructions","39","html-keyboard-response","199","2608182","0.0-5.0-21.0","2","2020-1-7 8:47:44","SEAL",NA,NA,NA,NA,NA,NA,NA,NA,NA,NA,NA,NA,NA,NA
"656","flanker_test","39","image-keyboard-response","200","2609843","0.0-5.0-22.0-0.0","2","2020-1-7 8:47:44","SEAL",NA,NA,NA,NA,NA,"incongruent","right","TRUE",NA,NA,NA,NA,NA,NA
"546","flanker_test","37","image-keyboard-response","201","2610875","0.0-5.0-22.0-0.1","2","2020-1-7 8:47:44","SEAL",NA,NA,NA,NA,NA,"incongruent","left","TRUE",NA,NA,NA,NA,NA,NA
"528","flanker_test","37","image-keyboard-response","202","2612226","0.0-5.0-22.0-0.2","2","2020-1-7 8:47:44","SEAL",NA,NA,NA,NA,NA,"congruent","left","TRUE",NA,NA,NA,NA,NA,NA
"424","flanker_test","39","image-keyboard-response","203","2613242","0.0-5.0-22.0-0.3","2","2020-1-7 8:47:44","SEAL",NA,NA,NA,NA,NA,"congruent","right","TRUE",NA,NA,NA,NA,NA,NA
"49560","sort_trial",NA,"free-sort","204","2663821","0.0-5.0-23.0","2","2020-1-7 8:47:44","SEAL",NA,NA,NA,NA,NA,NA,NA,NA,"[{""cat"":8,""src"":17,""x"":56,""y"":363},{""cat"":8,""src"":6,""x"":38,""y"":129},{""cat"":8,""src"":9,""x"":70,""y"":432},{""cat"":23,""src"":9,""x"":82,""y"":491},{""cat"":23,""src"":18,""x"":8,""y"":70},{""cat"":23,""src"":3,""x"":5,""y"":13},{""cat"":31,""src"":2,""x"":73,""y"":325},{""cat"":31,""src"":11,""x"":55,""y"":254},{""cat"":31,""src"":19,""x"":35,""y"":197}]","[{""cat"":""8"",""src"":""6"",""x"":0,""y"":0},{""cat"":""31"",""src"":""2"",""x"":0,""y"":0},{""cat"":""23"",""src"":""18"",""x"":0,""y"":0},{""cat"":""23"",""src"":""9"",""x"":82,""y"":491},{""cat"":""23"",""src"":""9"",""x"":128,""y"":478},{""cat"":""23"",""src"":""9"",""x"":0,""y"":0},{""cat"":""31"",""src"":""11"",""x"":0,""y"":0},{""cat"":""8"",""src"":""17"",""x"":90,""y"":363},{""cat"":""8"",""src"":""17"",""x"":57,""y"":363},{""cat"":""8"",""src"":""17"",""x"":0,""y"":0},{""cat"":""31"",""src"":""19"",""x"":0,""y"":0},{""cat"":""8"",""src"":""9"",""x"":0,""y"":0},{""cat"":""23"",""src"":""3"",""x"":0,""y"":0}]","[{""cat"":8,""src"":6,""loc"":5},{""cat"":31,""src"":2,""loc"":4},{""cat"":23,""src"":18,""loc"":3},{""cat"":23,""src"":9,""loc"":8},{""cat"":31,""src"":11,""loc"":6},{""cat"":8,""src"":17,""loc"":7},{""cat"":31,""src"":19,""loc"":2},{""cat"":8,""src"":9,""loc"":0},{""cat"":23,""src"":3,""loc"":1}]","9","8,23,31,23,31,8,31,8,23,9,3,19,18,2,6,11,17,9,0,1,2,3,4,5,6,7,8,7,8,6,2,1,0,4,5,3",NA
"1513","sort_feedback","32","html-keyboard-response","205","2665338","0.0-5.0-24.0","2","2020-1-7 8:47:44","SEAL",NA,NA,NA,NA,NA,NA,NA,NA,NA,NA,NA,NA,NA,NA
"19935","setup3",NA,"animation","206","2685275","0.0-5.0-25.0","2","2020-1-7 8:47:44","SEAL",NA,NA,"[{""cat"":31,""src"":11,""loc"":1},{""cat"":13,""src"":14,""loc"":5},{""cat"":10,""src"":0,""loc"":8},{""cat"":13,""src"":2,""loc"":3},{""cat"":10,""src"":11,""loc"":7},{""cat"":31,""src"":17,""loc"":2},{""cat"":31,""src"":4,""loc"":0},{""cat"":10,""src"":15,""loc"":6},{""cat"":13,""src"":9,""loc"":4}]","3","1105,1102,1104,1103,1103,1103,1105,1103,1103,10003",NA,NA,NA,NA,NA,NA,NA,NA,NA
"2193","flanker_instructions","39","html-keyboard-response","207","2687471","0.0-5.0-26.0","2","2020-1-7 8:47:44","SEAL",NA,NA,NA,NA,NA,NA,NA,NA,NA,NA,NA,NA,NA,NA
"584","flanker_test","39","image-keyboard-response","208","2689059","0.0-5.0-27.0-0.0","2","2020-1-7 8:47:44","SEAL",NA,NA,NA,NA,NA,"congruent","right","TRUE",NA,NA,NA,NA,NA,NA
"703","flanker_test","39","image-keyboard-response","209","2690556","0.0-5.0-27.0-0.1","2","2020-1-7 8:47:44","SEAL",NA,NA,NA,NA,NA,"incongruent","right","TRUE",NA,NA,NA,NA,NA,NA
"498","flanker_test","37","image-keyboard-response","210","2691630","0.0-5.0-27.0-0.2","2","2020-1-7 8:47:44","SEAL",NA,NA,NA,NA,NA,"congruent","left","TRUE",NA,NA,NA,NA,NA,NA
"406","flanker_test","37","image-keyboard-response","211","2692886","0.0-5.0-27.0-0.3","2","2020-1-7 8:47:44","SEAL",NA,NA,NA,NA,NA,"incongruent","left","TRUE",NA,NA,NA,NA,NA,NA
"48610","sort_trial",NA,"free-sort","212","2742147","0.0-5.0-28.0","2","2020-1-7 8:47:44","SEAL",NA,NA,NA,NA,NA,NA,NA,NA,"[{""cat"":31,""src"":11,""x"":49,""y"":8},{""cat"":13,""src"":14,""x"":27,""y"":182},{""cat"":10,""src"":0,""x"":8,""y"":130},{""cat"":13,""src"":2,""x"":65,""y"":304},{""cat"":10,""src"":11,""x"":19,""y"":494},{""cat"":31,""src"":17,""x"":38,""y"":265},{""cat"":31,""src"":4,""x"":15,""y"":73},{""cat"":10,""src"":15,""x"":36,""y"":434},{""cat"":13,""src"":9,""x"":15,""y"":362}]","[{""cat"":""31"",""src"":""11"",""x"":0,""y"":0},{""cat"":""31"",""src"":""4"",""x"":0,""y"":0},{""cat"":""31"",""src"":""17"",""x"":0,""y"":0},{""cat"":""13"",""src"":""14"",""x"":0,""y"":0},{""cat"":""13"",""src"":""9"",""x"":0,""y"":0},{""cat"":""13"",""src"":""2"",""x"":0,""y"":0},{""cat"":""10"",""src"":""15"",""x"":0,""y"":0},{""cat"":""10"",""src"":""0"",""x"":0,""y"":0},{""cat"":""10"",""src"":""11"",""x"":0,""y"":0}]","[{""cat"":31,""src"":11,""loc"":1},{""cat"":31,""src"":4,""loc"":0},{""cat"":31,""src"":17,""loc"":2},{""cat"":13,""src"":14,""loc"":5},{""cat"":13,""src"":9,""loc"":4},{""cat"":13,""src"":2,""loc"":3},{""cat"":10,""src"":15,""loc"":6},{""cat"":10,""src"":0,""loc"":8},{""cat"":10,""src"":11,""loc"":7}]","9","31,31,31,13,13,13,10,10,10,4,11,17,2,9,14,15,11,0,0,1,2,3,4,5,6,7,8,1,0,2,5,4,3,6,8,7",NA
"1824","sort_feedback","32","html-keyboard-response","213","2743975","0.0-5.0-29.0","2","2020-1-7 8:47:44","SEAL",NA,NA,NA,NA,NA,NA,NA,NA,NA,NA,NA,NA,NA,NA
"19937","setup1",NA,"animation","214","2763914","0.0-5.0-30.0","2","2020-1-7 8:47:44","SEAL",NA,NA,"[{""cat"":5,""src"":1,""loc"":2},{""cat"":5,""src"":15,""loc"":1},{""cat"":5,""src"":14,""loc"":0},{""cat"":6,""src"":3,""loc"":5},{""cat"":6,""src"":2,""loc"":4},{""cat"":6,""src"":10,""loc"":3},{""cat"":18,""src"":10,""loc"":8},{""cat"":18,""src"":2,""loc"":7},{""cat"":18,""src"":5,""loc"":6}]","1","1104,1103,1103,1103,1104,1103,1104,1105,1104,10004",NA,NA,NA,NA,NA,NA,NA,NA,NA
"6212","flanker_instructions","37","html-keyboard-response","215","2770131","0.0-5.0-31.0","2","2020-1-7 8:47:44","SEAL",NA,NA,NA,NA,NA,NA,NA,NA,NA,NA,NA,NA,NA,NA
"826","flanker_test","39","image-keyboard-response","216","2771962","0.0-5.0-32.0-0.0","2","2020-1-7 8:47:44","SEAL",NA,NA,NA,NA,NA,"congruent","right","TRUE",NA,NA,NA,NA,NA,NA
"483","flanker_test","37","image-keyboard-response","217","2773089","0.0-5.0-32.0-0.1","2","2020-1-7 8:47:44","SEAL",NA,NA,NA,NA,NA,"congruent","left","TRUE",NA,NA,NA,NA,NA,NA
"634","flanker_test","39","image-keyboard-response","218","2774192","0.0-5.0-32.0-0.2","2","2020-1-7 8:47:44","SEAL",NA,NA,NA,NA,NA,"incongruent","right","TRUE",NA,NA,NA,NA,NA,NA
"472","flanker_test","37","image-keyboard-response","219","2775665","0.0-5.0-32.0-0.3","2","2020-1-7 8:47:44","SEAL",NA,NA,NA,NA,NA,"incongruent","left","TRUE",NA,NA,NA,NA,NA,NA
"55941","sort_trial",NA,"free-sort","220","2832082","0.0-5.0-33.0","2","2020-1-7 8:47:44","SEAL",NA,NA,NA,NA,NA,NA,NA,NA,"[{""cat"":5,""src"":1,""x"":26,""y"":194},{""cat"":5,""src"":15,""x"":30,""y"":368},{""cat"":5,""src"":14,""x"":43,""y"":264},{""cat"":6,""src"":3,""x"":57,""y"":488},{""cat"":6,""src"":2,""x"":2,""y"":307},{""cat"":6,""src"":10,""x"":6,""y"":24},{""cat"":18,""src"":10,""x"":45,""y"":63},{""cat"":18,""src"":2,""x"":14,""y"":438},{""cat"":18,""src"":5,""x"":30,""y"":147}]","[{""cat"":""5"",""src"":""15"",""x"":0,""y"":0},{""cat"":""5"",""src"":""14"",""x"":0,""y"":0},{""cat"":""5"",""src"":""1"",""x"":0,""y"":0},{""cat"":""6"",""src"":""3"",""x"":0,""y"":0},{""cat"":""6"",""src"":""2"",""x"":0,""y"":0},{""cat"":""6"",""src"":""10"",""x"":7,""y"":22},{""cat"":""6"",""src"":""10"",""x"":733,""y"":242},{""cat"":""6"",""src"":""10"",""x"":0,""y"":0},{""cat"":""18"",""src"":""5"",""x"":0,""y"":0},{""cat"":""18"",""src"":""2"",""x"":0,""y"":0},{""cat"":""18"",""src"":""10"",""x"":0,""y"":0}]","[{""cat"":5,""src"":15,""loc"":1},{""cat"":5,""src"":14,""loc"":0},{""cat"":5,""src"":1,""loc"":2},{""cat"":6,""src"":3,""loc"":5},{""cat"":6,""src"":2,""loc"":4},{""cat"":6,""src"":10,""loc"":3},{""cat"":18,""src"":5,""loc"":6},{""cat"":18,""src"":2,""loc"":7},{""cat"":18,""src"":10,""loc"":8}]","9","5,5,5,6,6,6,18,18,18,14,15,1,10,2,3,5,2,10,0,1,2,3,4,5,6,7,8,1,0,2,5,4,3,6,7,8",NA
"1891","sort_feedback","32","html-keyboard-response","221","2833977","0.0-5.0-34.0","2","2020-1-7 8:47:44","SEAL",NA,NA,NA,NA,NA,NA,NA,NA,NA,NA,NA,NA,NA,NA
"19931","setup4",NA,"animation","222","2853910","0.0-5.0-35.0","2","2020-1-7 8:47:44","SEAL",NA,NA,"[{""cat"":24,""src"":12,""loc"":6},{""cat"":24,""src"":5,""loc"":3},{""cat"":24,""src"":18,""loc"":2},{""cat"":14,""src"":3,""loc"":8},{""cat"":14,""src"":4,""loc"":4},{""cat"":14,""src"":7,""loc"":0},{""cat"":31,""src"":9,""loc"":5},{""cat"":31,""src"":13,""loc"":7},{""cat"":31,""src"":10,""loc"":1}]","4","1103,1103,1102,1103,1102,1103,1104,1103,1104,10003",NA,NA,NA,NA,NA,NA,NA,NA,NA
"2366","flanker_instructions","39","html-keyboard-response","223","2856279","0.0-5.0-36.0","2","2020-1-7 8:47:44","SEAL",NA,NA,NA,NA,NA,NA,NA,NA,NA,NA,NA,NA,NA,NA
"701","flanker_test","37","image-keyboard-response","224","2857987","0.0-5.0-37.0-0.0","2","2020-1-7 8:47:44","SEAL",NA,NA,NA,NA,NA,"incongruent","left","TRUE",NA,NA,NA,NA,NA,NA
"491","flanker_test","39","image-keyboard-response","225","2858988","0.0-5.0-37.0-0.1","2","2020-1-7 8:47:44","SEAL",NA,NA,NA,NA,NA,"congruent","right","TRUE",NA,NA,NA,NA,NA,NA
"572","flanker_test","37","image-keyboard-response","226","2860401","0.0-5.0-37.0-0.2","2","2020-1-7 8:47:44","SEAL",NA,NA,NA,NA,NA,"congruent","left","TRUE",NA,NA,NA,NA,NA,NA
"453","flanker_test","39","image-keyboard-response","227","2861554","0.0-5.0-37.0-0.3","2","2020-1-7 8:47:44","SEAL",NA,NA,NA,NA,NA,"incongruent","right","TRUE",NA,NA,NA,NA,NA,NA
"45759","sort_trial",NA,"free-sort","228","2907933","0.0-5.0-38.0","2","2020-1-7 8:47:44","SEAL",NA,NA,NA,NA,NA,NA,NA,NA,"[{""cat"":24,""src"":12,""x"":38,""y"":88},{""cat"":24,""src"":5,""x"":7,""y"":122},{""cat"":24,""src"":18,""x"":34,""y"":443},{""cat"":14,""src"":3,""x"":30,""y"":186},{""cat"":14,""src"":4,""x"":27,""y"":388},{""cat"":14,""src"":7,""x"":59,""y"":15},{""cat"":31,""src"":9,""x"":3,""y"":261},{""cat"":31,""src"":13,""x"":33,""y"":320},{""cat"":31,""src"":10,""x"":81,""y"":495}]","[{""cat"":""31"",""src"":""10"",""x"":0,""y"":0},{""cat"":""14"",""src"":""7"",""x"":0,""y"":0},{""cat"":""24"",""src"":""18"",""x"":0,""y"":0},{""cat"":""31"",""src"":""9"",""x"":0,""y"":0},{""cat"":""14"",""src"":""4"",""x"":0,""y"":0},{""cat"":""24"",""src"":""5"",""x"":0,""y"":0},{""cat"":""24"",""src"":""12"",""x"":0,""y"":0},{""cat"":""14"",""src"":""3"",""x"":394,""y"":283},{""cat"":""14"",""src"":""3"",""x"":33,""y"":186},{""cat"":""14"",""src"":""3"",""x"":0,""y"":0},{""cat"":""31"",""src"":""13"",""x"":0,""y"":0}]","[{""cat"":31,""src"":10,""loc"":1},{""cat"":14,""src"":7,""loc"":0},{""cat"":24,""src"":18,""loc"":2},{""cat"":31,""src"":9,""loc"":5},{""cat"":14,""src"":4,""loc"":4},{""cat"":24,""src"":5,""loc"":3},{""cat"":24,""src"":12,""loc"":6},{""cat"":14,""src"":3,""loc"":8},{""cat"":31,""src"":13,""loc"":7}]","9","14,31,24,24,14,31,24,31,14,7,10,18,5,4,9,12,13,3,0,1,2,3,4,5,6,7,8,1,0,2,5,4,3,6,8,7",NA
"3736","sort_feedback","32","html-keyboard-response","229","2911671","0.0-5.0-39.0","2","2020-1-7 8:47:44","SEAL",NA,NA,NA,NA,NA,NA,NA,NA,NA,NA,NA,NA,NA,NA
"19931","setup2",NA,"animation","230","2931603","0.0-5.0-40.0","2","2020-1-7 8:47:44","SEAL",NA,NA,"[{""cat"":10,""src"":17,""loc"":3},{""cat"":13,""src"":7,""loc"":5},{""cat"":32,""src"":4,""loc"":4},{""cat"":10,""src"":5,""loc"":0},{""cat"":32,""src"":17,""loc"":1},{""cat"":13,""src"":12,""loc"":2},{""cat"":10,""src"":1,""loc"":6},{""cat"":13,""src"":19,""loc"":8},{""cat"":32,""src"":19,""loc"":7}]","2","1103,1103,1103,1104,1103,1103,1102,1103,1104,10003",NA,NA,NA,NA,NA,NA,NA,NA,NA
"1608","flanker_instructions","39","html-keyboard-response","231","2933217","0.0-5.0-41.0","2","2020-1-7 8:47:44","SEAL",NA,NA,NA,NA,NA,NA,NA,NA,NA,NA,NA,NA,NA,NA
"748","flanker_test","37","image-keyboard-response","232","2934975","0.0-5.0-42.0-0.0","2","2020-1-7 8:47:44","SEAL",NA,NA,NA,NA,NA,"congruent","left","TRUE",NA,NA,NA,NA,NA,NA
"571","flanker_test","39","image-keyboard-response","233","2936319","0.0-5.0-42.0-0.1","2","2020-1-7 8:47:44","SEAL",NA,NA,NA,NA,NA,"incongruent","right","TRUE",NA,NA,NA,NA,NA,NA
"483","flanker_test","39","image-keyboard-response","234","2937904","0.0-5.0-42.0-0.2","2","2020-1-7 8:47:44","SEAL",NA,NA,NA,NA,NA,"congruent","right","TRUE",NA,NA,NA,NA,NA,NA
"529","flanker_test","37","image-keyboard-response","235","2938836","0.0-5.0-42.0-0.3","2","2020-1-7 8:47:44","SEAL",NA,NA,NA,NA,NA,"incongruent","left","TRUE",NA,NA,NA,NA,NA,NA
"38550","sort_trial",NA,"free-sort","236","2978177","0.0-5.0-43.0","2","2020-1-7 8:47:44","SEAL",NA,NA,NA,NA,NA,NA,NA,NA,"[{""cat"":10,""src"":17,""x"":41,""y"":65},{""cat"":13,""src"":7,""x"":1,""y"":208},{""cat"":32,""src"":4,""x"":41,""y"":251},{""cat"":10,""src"":5,""x"":11,""y"":125},{""cat"":32,""src"":17,""x"":15,""y"":2},{""cat"":13,""src"":12,""x"":59,""y"":376},{""cat"":10,""src"":1,""x"":45,""y"":426},{""cat"":13,""src"":19,""x"":40,""y"":320},{""cat"":32,""src"":19,""x"":37,""y"":488}]","[{""cat"":""13"",""src"":""7"",""x"":0,""y"":0},{""cat"":""32"",""src"":""4"",""x"":0,""y"":0},{""cat"":""10"",""src"":""17"",""x"":0,""y"":0},{""cat"":""32"",""src"":""17"",""x"":0,""y"":0},{""cat"":""10"",""src"":""5"",""x"":0,""y"":0},{""cat"":""13"",""src"":""12"",""x"":0,""y"":0},{""cat"":""13"",""src"":""19"",""x"":0,""y"":0},{""cat"":""10"",""src"":""1"",""x"":0,""y"":0},{""cat"":""32"",""src"":""19"",""x"":0,""y"":0}]","[{""cat"":13,""src"":7,""loc"":5},{""cat"":32,""src"":4,""loc"":4},{""cat"":10,""src"":17,""loc"":3},{""cat"":32,""src"":17,""loc"":1},{""cat"":10,""src"":5,""loc"":0},{""cat"":13,""src"":12,""loc"":2},{""cat"":13,""src"":19,""loc"":8},{""cat"":10,""src"":1,""loc"":6},{""cat"":32,""src"":19,""loc"":7}]","9","10,32,13,10,32,13,10,32,13,5,17,12,17,4,7,1,19,19,0,1,2,3,4,5,6,7,8,4,3,5,2,1,0,7,8,6",NA
"6343","sort_feedback","32","html-keyboard-response","237","2984522","0.0-5.0-44.0","2","2020-1-7 8:47:44","SEAL",NA,NA,NA,NA,NA,NA,NA,NA,NA,NA,NA,NA,NA,NA
"19939","setup5",NA,"animation","238","3004463","0.0-5.0-45.0","2","2020-1-7 8:47:44","SEAL",NA,NA,"[{""cat"":23,""src"":16,""loc"":5},{""cat"":13,""src"":15,""loc"":2},{""cat"":11,""src"":6,""loc"":7},{""cat"":13,""src"":17,""loc"":4},{""cat"":23,""src"":12,""loc"":6},{""cat"":11,""src"":4,""loc"":1},{""cat"":13,""src"":19,""loc"":8},{""cat"":11,""src"":15,""loc"":3},{""cat"":23,""src"":3,""loc"":0}]","5","1106,1105,1103,1104,1105,1103,1104,1104,1103,10002",NA,NA,NA,NA,NA,NA,NA,NA,NA
"2136","flanker_instructions","39","html-keyboard-response","239","3006602","0.0-5.0-46.0","2","2020-1-7 8:47:44","SEAL",NA,NA,NA,NA,NA,NA,NA,NA,NA,NA,NA,NA,NA,NA
"561","flanker_test","39","image-keyboard-response","240","3008168","0.0-5.0-47.0-0.0","2","2020-1-7 8:47:44","SEAL",NA,NA,NA,NA,NA,"congruent","right","TRUE",NA,NA,NA,NA,NA,NA
"519","flanker_test","37","image-keyboard-response","241","3009795","0.0-5.0-47.0-0.1","2","2020-1-7 8:47:44","SEAL",NA,NA,NA,NA,NA,"incongruent","left","TRUE",NA,NA,NA,NA,NA,NA
"559","flanker_test","37","image-keyboard-response","242","3011328","0.0-5.0-47.0-0.2","2","2020-1-7 8:47:44","SEAL",NA,NA,NA,NA,NA,"congruent","left","TRUE",NA,NA,NA,NA,NA,NA
"510","flanker_test","39","image-keyboard-response","243","3012817","0.0-5.0-47.0-0.3","2","2020-1-7 8:47:44","SEAL",NA,NA,NA,NA,NA,"incongruent","right","TRUE",NA,NA,NA,NA,NA,NA
"50017","sort_trial",NA,"free-sort","244","3063196","0.0-5.0-48.0","2","2020-1-7 8:47:44","SEAL",NA,NA,NA,NA,NA,NA,NA,NA,"[{""cat"":23,""src"":16,""x"":7,""y"":307},{""cat"":13,""src"":15,""x"":69,""y"":204},{""cat"":11,""src"":6,""x"":0,""y"":383},{""cat"":13,""src"":17,""x"":78,""y"":24},{""cat"":23,""src"":12,""x"":42,""y"":123},{""cat"":11,""src"":4,""x"":79,""y"":421},{""cat"":13,""src"":19,""x"":20,""y"":267},{""cat"":11,""src"":15,""x"":46,""y"":71},{""cat"":23,""src"":3,""x"":70,""y"":498}]","[{""cat"":""11"",""src"":""4"",""x"":0,""y"":0},{""cat"":""23"",""src"":""3"",""x"":0,""y"":0},{""cat"":""13"",""src"":""15"",""x"":0,""y"":0},{""cat"":""23"",""src"":""16"",""x"":629,""y"":128},{""cat"":""23"",""src"":""16"",""x"":0,""y"":0},{""cat"":""13"",""src"":""17"",""x"":0,""y"":0},{""cat"":""11"",""src"":""15"",""x"":0,""y"":0},{""cat"":""23"",""src"":""12"",""x"":0,""y"":0},{""cat"":""13"",""src"":""19"",""x"":0,""y"":0},{""cat"":""11"",""src"":""6"",""x"":0,""y"":0}]","[{""cat"":11,""src"":4,""loc"":1},{""cat"":23,""src"":3,""loc"":0},{""cat"":13,""src"":15,""loc"":2},{""cat"":23,""src"":16,""loc"":5},{""cat"":13,""src"":17,""loc"":4},{""cat"":11,""src"":15,""loc"":3},{""cat"":23,""src"":12,""loc"":6},{""cat"":13,""src"":19,""loc"":8},{""cat"":11,""src"":6,""loc"":7}]","9","23,11,13,11,13,23,23,11,13,3,4,15,15,17,16,12,6,19,0,1,2,3,4,5,6,7,8,1,0,2,5,4,3,6,8,7",NA
"2160","sort_feedback","32","html-keyboard-response","245","3065359","0.0-5.0-49.0","2","2020-1-7 8:47:44","SEAL",NA,NA,NA,NA,NA,NA,NA,NA,NA,NA,NA,NA,NA,NA
"11105","demographics",NA,"html-button-response","246","3076467","0.0-6.0-0.0","2","2020-1-7 8:47:44","SEAL","0",NA,NA,NA,NA,NA,NA,NA,NA,NA,NA,NA,NA,NA
"5804","workerID",NA,"survey-text","247","3082274","0.0-6.0-1.0","2","2020-1-7 8:47:44","SEAL",NA,NA,NA,NA,NA,NA,NA,NA,NA,NA,NA,NA,NA,"{""Q0"":""A2OQMY85Q2WY68""}"
"5258","attn_check",NA,"survey-multi-choice","248","3087538","0.0-6.0-2.0","2","2020-1-7 8:47:44","SEAL",NA,NA,NA,NA,NA,NA,NA,NA,NA,NA,NA,NA,NA,"{""Q0"":""SEAL""}"
"6138","age",NA,"survey-text","249","3093680","0.0-6.0-3.0","2","2020-1-7 8:47:44","SEAL",NA,NA,NA,NA,NA,NA,NA,NA,NA,NA,NA,NA,NA,"{""Q0"":""53""}"
"2662","gender",NA,"survey-multi-choice","250","3096345","0.0-6.0-4.0","2","2020-1-7 8:47:44","SEAL",NA,NA,NA,NA,NA,NA,NA,NA,NA,NA,NA,NA,NA,"{""Q0"":""Male""}"
"2687","ethnic",NA,"survey-multi-choice","251","3099036","0.0-6.0-5.0","2","2020-1-7 8:47:44","SEAL",NA,NA,NA,NA,NA,NA,NA,NA,NA,NA,NA,NA,NA,"{""Q0"":""Not Hispanic or Latino""}"
"3687","race",NA,"survey-multi-select","252","3102728","0.0-6.0-6.0","2","2020-1-7 8:47:44","SEAL",NA,NA,NA,NA,NA,NA,NA,NA,NA,NA,NA,NA,NA,"{""Q0"":[""White""]}"
"3535","english",NA,"survey-multi-choice","253","3106267","0.0-6.0-7.0","2","2020-1-7 8:47:44","SEAL",NA,NA,NA,NA,NA,NA,NA,NA,NA,NA,NA,NA,NA,"{""Q0"":""Yes""}"
"5020","understand",NA,"survey-multi-choice","254","3111291","0.0-6.0-8.0","2","2020-1-7 8:47:44","SEAL",NA,NA,NA,NA,NA,NA,NA,NA,NA,NA,NA,NA,NA,"{""Q0"":""No""}"
"52445","strategies",NA,"survey-text","255","3163738","0.0-6.0-9.0","2","2020-1-7 8:47:44","SEAL",NA,NA,NA,NA,NA,NA,NA,NA,NA,NA,NA,NA,NA,"{""Q0"":""Just looked at the screen and took a mental picture""}"
"3837","comments",NA,"survey-text","256","3167578","0.0-6.0-10.0","2","2020-1-7 8:47:44","SEAL",NA,NA,NA,NA,NA,NA,NA,NA,NA,NA,NA,NA,NA,"{""Q0"":""""}"
"1713","study_end",NA,"html-button-response","257","3169294","0.0-7.0","2","2020-1-7 8:47:44","SEAL","0",NA,NA,NA,NA,NA,NA,NA,NA,NA,NA,NA,NA,NA
