"rt","stimulus","key_press","trial_type","trial_index","time_elapsed","internal_node_id","session","startTime","attn_word","button_pressed","view_history","animation_sequence","condition","time_sequence","stim_type","direction","correct","init_locations","moves","final_locations","sort_correct","finalLocations","responses"
"85276","welcome","32","html-keyboard-response","0","85289","0.0-0.0","2","2020-1-7 23:5:35","OTTER",NA,NA,NA,NA,NA,NA,NA,NA,NA,NA,NA,NA,NA,NA
"9289","consent",NA,"html-button-response","1","94586","0.0-1.0","2","2020-1-7 23:5:35","OTTER","0",NA,NA,NA,NA,NA,NA,NA,NA,NA,NA,NA,NA,NA
"39024","instructions",NA,"instructions","2","133614","0.0-2.0","2","2020-1-7 23:5:35","OTTER",NA,"[{""page_index"":0,""viewing_time"":7614},{""page_index"":1,""viewing_time"":6556},{""page_index"":2,""viewing_time"":5285},{""page_index"":3,""viewing_time"":6855},{""page_index"":4,""viewing_time"":4131},{""page_index"":5,""viewing_time"":8582}]",NA,NA,NA,NA,NA,NA,NA,NA,NA,NA,NA,NA
"3910","finalInstructions",NA,"html-button-response","3","137528","0.0-3.0-0.0","2","2020-1-7 23:5:35","OTTER","0",NA,NA,NA,NA,NA,NA,NA,NA,NA,NA,NA,NA,NA
"19931","setup1",NA,"animation","4","157462","0.0-3.0-1.0","2","2020-1-7 23:5:35","OTTER",NA,NA,"[{""cat"":15,""src"":15,""loc"":8},{""cat"":15,""src"":18,""loc"":6},{""cat"":15,""src"":10,""loc"":7},{""cat"":25,""src"":16,""loc"":1},{""cat"":25,""src"":3,""loc"":0},{""cat"":25,""src"":19,""loc"":2},{""cat"":0,""src"":11,""loc"":4},{""cat"":0,""src"":5,""loc"":5},{""cat"":0,""src"":2,""loc"":3}]","1","1108,1102,1102,1102,1103,1102,1103,1103,1104,10001",NA,NA,NA,NA,NA,NA,NA,NA,NA
"1043","flanker_instructions","39","html-keyboard-response","5","158511","0.0-3.0-2.0","2","2020-1-7 23:5:35","OTTER",NA,NA,NA,NA,NA,NA,NA,NA,NA,NA,NA,NA,NA,NA
"559","flanker_test","39","image-keyboard-response","6","160076","0.0-3.0-3.0-0.0","2","2020-1-7 23:5:35","OTTER",NA,NA,NA,NA,NA,"congruent","right","TRUE",NA,NA,NA,NA,NA,NA
"616","flanker_test","37","image-keyboard-response","7","161121","0.0-3.0-3.0-0.1","2","2020-1-7 23:5:35","OTTER",NA,NA,NA,NA,NA,"incongruent","left","TRUE",NA,NA,NA,NA,NA,NA
"449","flanker_test","37","image-keyboard-response","8","162390","0.0-3.0-3.0-0.2","2","2020-1-7 23:5:35","OTTER",NA,NA,NA,NA,NA,"congruent","left","TRUE",NA,NA,NA,NA,NA,NA
"593","flanker_test","39","image-keyboard-response","9","163451","0.0-3.0-3.0-0.3","2","2020-1-7 23:5:35","OTTER",NA,NA,NA,NA,NA,"incongruent","right","TRUE",NA,NA,NA,NA,NA,NA
"39090","sort_trial",NA,"free-sort","10","202900","0.0-3.0-4.0","2","2020-1-7 23:5:35","OTTER",NA,NA,NA,NA,NA,NA,NA,NA,"[{""cat"":15,""src"":15,""x"":2,""y"":316},{""cat"":15,""src"":18,""x"":56,""y"":505},{""cat"":15,""src"":10,""x"":54,""y"":77},{""cat"":25,""src"":16,""x"":45,""y"":436},{""cat"":25,""src"":3,""x"":60,""y"":120},{""cat"":25,""src"":19,""x"":53,""y"":206},{""cat"":0,""src"":11,""x"":79,""y"":255},{""cat"":0,""src"":5,""x"":29,""y"":382},{""cat"":0,""src"":2,""x"":21,""y"":27}]","[{""cat"":""15"",""src"":""10"",""x"":0,""y"":0},{""cat"":""15"",""src"":""18"",""x"":0,""y"":0},{""cat"":""15"",""src"":""15"",""x"":0,""y"":0},{""cat"":""25"",""src"":""19"",""x"":0,""y"":0},{""cat"":""25"",""src"":""3"",""x"":0,""y"":0},{""cat"":""25"",""src"":""16"",""x"":0,""y"":0},{""cat"":""0"",""src"":""2"",""x"":0,""y"":0},{""cat"":""0"",""src"":""11"",""x"":0,""y"":0},{""cat"":""0"",""src"":""5"",""x"":0,""y"":0}]","[{""cat"":15,""src"":10,""loc"":7},{""cat"":15,""src"":18,""loc"":6},{""cat"":15,""src"":15,""loc"":8},{""cat"":25,""src"":19,""loc"":2},{""cat"":25,""src"":3,""loc"":0},{""cat"":25,""src"":16,""loc"":1},{""cat"":0,""src"":2,""loc"":5},{""cat"":0,""src"":11,""loc"":4},{""cat"":0,""src"":5,""loc"":3}]","7","25,25,25,0,0,0,15,15,15,3,16,19,5,11,2,18,10,15,0,1,2,3,4,5,6,7,8,4,5,3,8,7,6,1,0,2",NA
"2739","sort_feedback","32","html-keyboard-response","11","205644","0.0-3.0-5.0","2","2020-1-7 23:5:35","OTTER",NA,NA,NA,NA,NA,NA,NA,NA,NA,NA,NA,NA,NA,NA
"19926","setup4",NA,"animation","12","225572","0.0-3.0-6.0","2","2020-1-7 23:5:35","OTTER",NA,NA,"[{""cat"":6,""src"":2,""loc"":7},{""cat"":6,""src"":13,""loc"":2},{""cat"":6,""src"":19,""loc"":5},{""cat"":23,""src"":11,""loc"":4},{""cat"":23,""src"":18,""loc"":0},{""cat"":23,""src"":4,""loc"":8},{""cat"":11,""src"":2,""loc"":3},{""cat"":11,""src"":9,""loc"":6},{""cat"":11,""src"":5,""loc"":1}]","4","1105,1101,1102,1102,1103,1102,1104,1103,1103,10001",NA,NA,NA,NA,NA,NA,NA,NA,NA
"1125","flanker_instructions","39","html-keyboard-response","13","226700","0.0-3.0-7.0","2","2020-1-7 23:5:35","OTTER",NA,NA,NA,NA,NA,NA,NA,NA,NA,NA,NA,NA,NA,NA
"684","flanker_test","39","image-keyboard-response","14","228388","0.0-3.0-8.0-0.0","2","2020-1-7 23:5:35","OTTER",NA,NA,NA,NA,NA,"incongruent","right","TRUE",NA,NA,NA,NA,NA,NA
"500","flanker_test","37","image-keyboard-response","15","229545","0.0-3.0-8.0-0.1","2","2020-1-7 23:5:35","OTTER",NA,NA,NA,NA,NA,"congruent","left","TRUE",NA,NA,NA,NA,NA,NA
"512","flanker_test","39","image-keyboard-response","16","230512","0.0-3.0-8.0-0.2","2","2020-1-7 23:5:35","OTTER",NA,NA,NA,NA,NA,"congruent","right","TRUE",NA,NA,NA,NA,NA,NA
"417","flanker_test","37","image-keyboard-response","17","231460","0.0-3.0-8.0-0.3","2","2020-1-7 23:5:35","OTTER",NA,NA,NA,NA,NA,"incongruent","left","TRUE",NA,NA,NA,NA,NA,NA
"33192","sort_trial",NA,"free-sort","18","265560","0.0-3.0-9.0","2","2020-1-7 23:5:35","OTTER",NA,NA,NA,NA,NA,NA,NA,NA,"[{""cat"":6,""src"":2,""x"":21,""y"":426},{""cat"":6,""src"":13,""x"":3,""y"":24},{""cat"":6,""src"":19,""x"":42,""y"":252},{""cat"":23,""src"":11,""x"":23,""y"":79},{""cat"":23,""src"":18,""x"":5,""y"":194},{""cat"":23,""src"":4,""x"":42,""y"":382},{""cat"":11,""src"":2,""x"":83,""y"":489},{""cat"":11,""src"":9,""x"":4,""y"":301},{""cat"":11,""src"":5,""x"":58,""y"":136}]","[{""cat"":""23"",""src"":""11"",""x"":0,""y"":0},{""cat"":""6"",""src"":""19"",""x"":0,""y"":0},{""cat"":""11"",""src"":""9"",""x"":0,""y"":0},{""cat"":""23"",""src"":""4"",""x"":0,""y"":0},{""cat"":""6"",""src"":""2"",""x"":0,""y"":0},{""cat"":""11"",""src"":""2"",""x"":0,""y"":0},{""cat"":""6"",""src"":""13"",""x"":0,""y"":0},{""cat"":""11"",""src"":""5"",""x"":58,""y"":136},{""cat"":""11"",""src"":""5"",""x"":0,""y"":0},{""cat"":""23"",""src"":""18"",""x"":0,""y"":0}]","[{""cat"":23,""src"":11,""loc"":4},{""cat"":6,""src"":19,""loc"":5},{""cat"":11,""src"":9,""loc"":3},{""cat"":23,""src"":4,""loc"":6},{""cat"":6,""src"":2,""loc"":8},{""cat"":11,""src"":2,""loc"":7},{""cat"":6,""src"":13,""loc"":1},{""cat"":11,""src"":5,""loc"":0},{""cat"":23,""src"":18,""loc"":2}]","2","11,6,23,11,23,6,23,11,6,5,13,18,9,11,19,4,2,2,0,1,2,3,4,5,6,7,8,7,6,8,2,0,1,3,5,4",NA
"3145","sort_feedback","32","html-keyboard-response","19","268709","0.0-3.0-10.0","2","2020-1-7 23:5:35","OTTER",NA,NA,NA,NA,NA,NA,NA,NA,NA,NA,NA,NA,NA,NA
"19923","setup2",NA,"animation","20","288633","0.0-3.0-11.0","2","2020-1-7 23:5:35","OTTER",NA,NA,"[{""cat"":18,""src"":15,""loc"":6},{""cat"":23,""src"":18,""loc"":8},{""cat"":25,""src"":16,""loc"":7},{""cat"":25,""src"":19,""loc"":5},{""cat"":18,""src"":10,""loc"":3},{""cat"":23,""src"":11,""loc"":4},{""cat"":25,""src"":11,""loc"":1},{""cat"":18,""src"":4,""loc"":2},{""cat"":23,""src"":10,""loc"":0}]","2","1105,1101,1103,1101,1102,1102,1102,1102,1103,10001",NA,NA,NA,NA,NA,NA,NA,NA,NA
"864","flanker_instructions","39","html-keyboard-response","21","289500","0.0-3.0-12.0","2","2020-1-7 23:5:35","OTTER",NA,NA,NA,NA,NA,NA,NA,NA,NA,NA,NA,NA,NA,NA
"792","flanker_test","39","image-keyboard-response","22","291296","0.0-3.0-13.0-0.0","2","2020-1-7 23:5:35","OTTER",NA,NA,NA,NA,NA,"incongruent","right","TRUE",NA,NA,NA,NA,NA,NA
"573","flanker_test","37","image-keyboard-response","23","292743","0.0-3.0-13.0-0.1","2","2020-1-7 23:5:35","OTTER",NA,NA,NA,NA,NA,"incongruent","left","TRUE",NA,NA,NA,NA,NA,NA
"492","flanker_test","39","image-keyboard-response","24","293637","0.0-3.0-13.0-0.2","2","2020-1-7 23:5:35","OTTER",NA,NA,NA,NA,NA,"congruent","right","TRUE",NA,NA,NA,NA,NA,NA
"433","flanker_test","37","image-keyboard-response","25","294570","0.0-3.0-13.0-0.3","2","2020-1-7 23:5:35","OTTER",NA,NA,NA,NA,NA,"congruent","left","TRUE",NA,NA,NA,NA,NA,NA
"28513","sort_trial",NA,"free-sort","26","323863","0.0-3.0-14.0","2","2020-1-7 23:5:35","OTTER",NA,NA,NA,NA,NA,NA,NA,NA,"[{""cat"":18,""src"":15,""x"":24,""y"":382},{""cat"":23,""src"":18,""x"":44,""y"":2},{""cat"":25,""src"":16,""x"":3,""y"":260},{""cat"":25,""src"":19,""x"":51,""y"":197},{""cat"":18,""src"":10,""x"":30,""y"":143},{""cat"":23,""src"":11,""x"":34,""y"":434},{""cat"":25,""src"":11,""x"":10,""y"":60},{""cat"":18,""src"":4,""x"":56,""y"":489},{""cat"":23,""src"":10,""x"":2,""y"":317}]","[{""cat"":""25"",""src"":""19"",""x"":0,""y"":0},{""cat"":""23"",""src"":""11"",""x"":0,""y"":0},{""cat"":""18"",""src"":""10"",""x"":0,""y"":0},{""cat"":""23"",""src"":""18"",""x"":0,""y"":0},{""cat"":""25"",""src"":""11"",""x"":0,""y"":0},{""cat"":""25"",""src"":""16"",""x"":0,""y"":0},{""cat"":""23"",""src"":""10"",""x"":0,""y"":0},{""cat"":""18"",""src"":""15"",""x"":0,""y"":0},{""cat"":""18"",""src"":""4"",""x"":0,""y"":0}]","[{""cat"":25,""src"":19,""loc"":5},{""cat"":23,""src"":11,""loc"":4},{""cat"":18,""src"":10,""loc"":3},{""cat"":23,""src"":18,""loc"":1},{""cat"":25,""src"":11,""loc"":0},{""cat"":25,""src"":16,""loc"":2},{""cat"":23,""src"":10,""loc"":6},{""cat"":18,""src"":15,""loc"":8},{""cat"":18,""src"":4,""loc"":7}]","3","25,23,25,18,23,25,23,18,18,11,18,16,10,11,19,10,4,15,0,1,2,3,4,5,6,7,8,4,3,5,2,1,0,6,8,7",NA
"1969","sort_feedback","32","html-keyboard-response","27","325836","0.0-3.0-15.0","2","2020-1-7 23:5:35","OTTER",NA,NA,NA,NA,NA,NA,NA,NA,NA,NA,NA,NA,NA,NA
"19925","setup5",NA,"animation","28","345766","0.0-3.0-16.0","2","2020-1-7 23:5:35","OTTER",NA,NA,"[{""cat"":18,""src"":12,""loc"":2},{""cat"":26,""src"":7,""loc"":4},{""cat"":5,""src"":12,""loc"":8},{""cat"":26,""src"":0,""loc"":1},{""cat"":18,""src"":17,""loc"":7},{""cat"":5,""src"":9,""loc"":5},{""cat"":26,""src"":9,""loc"":6},{""cat"":18,""src"":2,""loc"":3},{""cat"":5,""src"":16,""loc"":0}]","5","1105,1101,1103,1102,1102,1102,1103,1103,1103,10001",NA,NA,NA,NA,NA,NA,NA,NA,NA
"1113","flanker_instructions","39","html-keyboard-response","29","346883","0.0-3.0-17.0","2","2020-1-7 23:5:35","OTTER",NA,NA,NA,NA,NA,NA,NA,NA,NA,NA,NA,NA,NA,NA
"502","flanker_test","37","image-keyboard-response","30","348389","0.0-3.0-18.0-0.0","2","2020-1-7 23:5:35","OTTER",NA,NA,NA,NA,NA,"congruent","left","TRUE",NA,NA,NA,NA,NA,NA
"475","flanker_test","39","image-keyboard-response","31","349887","0.0-3.0-18.0-0.1","2","2020-1-7 23:5:35","OTTER",NA,NA,NA,NA,NA,"congruent","right","TRUE",NA,NA,NA,NA,NA,NA
"456","flanker_test","37","image-keyboard-response","32","351541","0.0-3.0-18.0-0.2","2","2020-1-7 23:5:35","OTTER",NA,NA,NA,NA,NA,"incongruent","right","FALSE",NA,NA,NA,NA,NA,NA
"608","flanker_test","37","image-keyboard-response","33","352733","0.0-3.0-18.0-0.3","2","2020-1-7 23:5:35","OTTER",NA,NA,NA,NA,NA,"incongruent","left","TRUE",NA,NA,NA,NA,NA,NA
"26675","sort_trial",NA,"free-sort","34","380150","0.0-3.0-19.0","2","2020-1-7 23:5:35","OTTER",NA,NA,NA,NA,NA,NA,NA,NA,"[{""cat"":18,""src"":12,""x"":80,""y"":506},{""cat"":26,""src"":7,""x"":40,""y"":129},{""cat"":5,""src"":12,""x"":15,""y"":269},{""cat"":26,""src"":0,""x"":78,""y"":369},{""cat"":18,""src"":17,""x"":44,""y"":23},{""cat"":5,""src"":9,""x"":74,""y"":302},{""cat"":26,""src"":9,""x"":58,""y"":191},{""cat"":18,""src"":2,""x"":64,""y"":420},{""cat"":5,""src"":16,""x"":44,""y"":86}]","[{""cat"":""5"",""src"":""9"",""x"":0,""y"":0},{""cat"":""26"",""src"":""7"",""x"":0,""y"":0},{""cat"":""18"",""src"":""2"",""x"":560,""y"":283},{""cat"":""18"",""src"":""2"",""x"":0,""y"":0},{""cat"":""18"",""src"":""17"",""x"":0,""y"":0},{""cat"":""5"",""src"":""16"",""x"":0,""y"":0},{""cat"":""26"",""src"":""9"",""x"":0,""y"":0},{""cat"":""5"",""src"":""12"",""x"":0,""y"":0},{""cat"":""26"",""src"":""0"",""x"":0,""y"":0},{""cat"":""18"",""src"":""12"",""x"":0,""y"":0}]","[{""cat"":5,""src"":9,""loc"":5},{""cat"":26,""src"":7,""loc"":4},{""cat"":18,""src"":2,""loc"":3},{""cat"":18,""src"":17,""loc"":1},{""cat"":5,""src"":16,""loc"":0},{""cat"":26,""src"":9,""loc"":2},{""cat"":5,""src"":12,""loc"":6},{""cat"":26,""src"":0,""loc"":7},{""cat"":18,""src"":12,""loc"":8}]","4","5,18,26,18,26,5,5,26,18,16,17,9,2,7,9,12,0,12,0,1,2,3,4,5,6,7,8,4,3,5,2,1,0,6,7,8",NA
"1308","sort_feedback","32","html-keyboard-response","35","381460","0.0-3.0-20.0","2","2020-1-7 23:5:35","OTTER",NA,NA,NA,NA,NA,NA,NA,NA,NA,NA,NA,NA,NA,NA
"19925","setup3",NA,"animation","36","401386","0.0-3.0-21.0","2","2020-1-7 23:5:35","OTTER",NA,NA,"[{""cat"":21,""src"":18,""loc"":6},{""cat"":28,""src"":6,""loc"":5},{""cat"":24,""src"":5,""loc"":0},{""cat"":24,""src"":19,""loc"":1},{""cat"":21,""src"":19,""loc"":8},{""cat"":28,""src"":17,""loc"":4},{""cat"":21,""src"":11,""loc"":7},{""cat"":28,""src"":1,""loc"":3},{""cat"":24,""src"":10,""loc"":2}]","3","1105,1101,1102,1101,1103,1102,1103,1104,1103,10001",NA,NA,NA,NA,NA,NA,NA,NA,NA
"1264","flanker_instructions","39","html-keyboard-response","37","402656","0.0-3.0-22.0","2","2020-1-7 23:5:35","OTTER",NA,NA,NA,NA,NA,NA,NA,NA,NA,NA,NA,NA,NA,NA
"682","flanker_test","39","image-keyboard-response","38","404342","0.0-3.0-23.0-0.0","2","2020-1-7 23:5:35","OTTER",NA,NA,NA,NA,NA,"incongruent","right","TRUE",NA,NA,NA,NA,NA,NA
"418","flanker_test","37","image-keyboard-response","39","405871","0.0-3.0-23.0-0.1","2","2020-1-7 23:5:35","OTTER",NA,NA,NA,NA,NA,"congruent","left","TRUE",NA,NA,NA,NA,NA,NA
"424","flanker_test","39","image-keyboard-response","40","406856","0.0-3.0-23.0-0.2","2","2020-1-7 23:5:35","OTTER",NA,NA,NA,NA,NA,"congruent","right","TRUE",NA,NA,NA,NA,NA,NA
"464","flanker_test","37","image-keyboard-response","41","407636","0.0-3.0-23.0-0.3","2","2020-1-7 23:5:35","OTTER",NA,NA,NA,NA,NA,"incongruent","left","TRUE",NA,NA,NA,NA,NA,NA
"43585","sort_trial",NA,"free-sort","42","452329","0.0-3.0-24.0","2","2020-1-7 23:5:35","OTTER",NA,NA,NA,NA,NA,NA,NA,NA,"[{""cat"":21,""src"":18,""x"":4,""y"":304},{""cat"":28,""src"":6,""x"":29,""y"":378},{""cat"":24,""src"":5,""x"":11,""y"":495},{""cat"":24,""src"":19,""x"":27,""y"":64},{""cat"":21,""src"":19,""x"":49,""y"":209},{""cat"":28,""src"":17,""x"":71,""y"":141},{""cat"":21,""src"":11,""x"":44,""y"":23},{""cat"":28,""src"":1,""x"":7,""y"":253},{""cat"":24,""src"":10,""x"":4,""y"":420}]","[{""cat"":""24"",""src"":""19"",""x"":0,""y"":0},{""cat"":""24"",""src"":""10"",""x"":0,""y"":0},{""cat"":""24"",""src"":""5"",""x"":0,""y"":0},{""cat"":""28"",""src"":""1"",""x"":11,""y"":255},{""cat"":""21"",""src"":""18"",""x"":0,""y"":0},{""cat"":""28"",""src"":""17"",""x"":0,""y"":0},{""cat"":""28"",""src"":""1"",""x"":0,""y"":0},{""cat"":""28"",""src"":""6"",""x"":0,""y"":0},{""cat"":""21"",""src"":""11"",""x"":0,""y"":0},{""cat"":""21"",""src"":""19"",""x"":0,""y"":0}]","[{""cat"":24,""src"":19,""loc"":1},{""cat"":24,""src"":10,""loc"":2},{""cat"":24,""src"":5,""loc"":0},{""cat"":21,""src"":18,""loc"":6},{""cat"":28,""src"":17,""loc"":5},{""cat"":28,""src"":1,""loc"":4},{""cat"":28,""src"":6,""loc"":3},{""cat"":21,""src"":11,""loc"":7},{""cat"":21,""src"":19,""loc"":8}]","6","24,24,24,28,28,28,21,21,21,5,19,10,6,1,17,18,11,19,0,1,2,3,4,5,6,7,8,2,0,1,6,5,4,3,7,8",NA
"2696","sort_feedback","32","html-keyboard-response","43","455028","0.0-3.0-25.0","2","2020-1-7 23:5:35","OTTER",NA,NA,NA,NA,NA,NA,NA,NA,NA,NA,NA,NA,NA,NA
"19924","setup4",NA,"animation","44","474953","0.0-3.0-26.0","2","2020-1-7 23:5:35","OTTER",NA,NA,"[{""cat"":3,""src"":1,""loc"":1},{""cat"":3,""src"":0,""loc"":8},{""cat"":3,""src"":15,""loc"":3},{""cat"":28,""src"":10,""loc"":4},{""cat"":28,""src"":15,""loc"":6},{""cat"":28,""src"":16,""loc"":2},{""cat"":11,""src"":1,""loc"":5},{""cat"":11,""src"":6,""loc"":7},{""cat"":11,""src"":5,""loc"":0}]","4","1104,1101,1102,1103,1102,1102,1103,1103,1103,10001",NA,NA,NA,NA,NA,NA,NA,NA,NA
"1369","flanker_instructions","39","html-keyboard-response","45","476326","0.0-3.0-27.0","2","2020-1-7 23:5:35","OTTER",NA,NA,NA,NA,NA,NA,NA,NA,NA,NA,NA,NA,NA,NA
"500","flanker_test","37","image-keyboard-response","46","477829","0.0-3.0-28.0-0.0","2","2020-1-7 23:5:35","OTTER",NA,NA,NA,NA,NA,"congruent","left","TRUE",NA,NA,NA,NA,NA,NA
"590","flanker_test","39","image-keyboard-response","47","479340","0.0-3.0-28.0-0.1","2","2020-1-7 23:5:35","OTTER",NA,NA,NA,NA,NA,"incongruent","right","TRUE",NA,NA,NA,NA,NA,NA
"407","flanker_test","39","image-keyboard-response","48","480750","0.0-3.0-28.0-0.2","2","2020-1-7 23:5:35","OTTER",NA,NA,NA,NA,NA,"congruent","right","TRUE",NA,NA,NA,NA,NA,NA
"449","flanker_test","37","image-keyboard-response","49","482036","0.0-3.0-28.0-0.3","2","2020-1-7 23:5:35","OTTER",NA,NA,NA,NA,NA,"incongruent","left","TRUE",NA,NA,NA,NA,NA,NA
"34801","sort_trial",NA,"free-sort","50","517578","0.0-3.0-29.0","2","2020-1-7 23:5:35","OTTER",NA,NA,NA,NA,NA,NA,NA,NA,"[{""cat"":3,""src"":1,""x"":78,""y"":242},{""cat"":3,""src"":0,""x"":14,""y"":494},{""cat"":3,""src"":15,""x"":41,""y"":74},{""cat"":28,""src"":10,""x"":4,""y"":195},{""cat"":28,""src"":15,""x"":43,""y"":316},{""cat"":28,""src"":16,""x"":80,""y"":135},{""cat"":11,""src"":1,""x"":54,""y"":26},{""cat"":11,""src"":6,""x"":22,""y"":373},{""cat"":11,""src"":5,""x"":40,""y"":445}]","[{""cat"":""11"",""src"":""1"",""x"":0,""y"":0},{""cat"":""28"",""src"":""10"",""x"":0,""y"":0},{""cat"":""28"",""src"":""16"",""x"":0,""y"":0},{""cat"":""3"",""src"":""15"",""x"":0,""y"":0},{""cat"":""3"",""src"":""0"",""x"":0,""y"":0},{""cat"":""3"",""src"":""1"",""x"":0,""y"":0},{""cat"":""28"",""src"":""15"",""x"":0,""y"":0},{""cat"":""11"",""src"":""6"",""x"":0,""y"":0},{""cat"":""11"",""src"":""5"",""x"":0,""y"":0}]","[{""cat"":11,""src"":1,""loc"":5},{""cat"":28,""src"":10,""loc"":4},{""cat"":28,""src"":16,""loc"":3},{""cat"":3,""src"":15,""loc"":1},{""cat"":3,""src"":0,""loc"":8},{""cat"":3,""src"":1,""loc"":0},{""cat"":28,""src"":15,""loc"":2},{""cat"":11,""src"":6,""loc"":6},{""cat"":11,""src"":5,""loc"":7}]","3","3,3,28,28,28,11,11,11,3,1,15,15,16,10,1,6,5,0,0,1,2,3,4,5,6,7,8,5,3,6,2,1,0,7,8,4",NA
"1048","sort_feedback","32","html-keyboard-response","51","518629","0.0-3.0-30.0","2","2020-1-7 23:5:35","OTTER",NA,NA,NA,NA,NA,NA,NA,NA,NA,NA,NA,NA,NA,NA
"19925","setup2",NA,"animation","52","538557","0.0-3.0-31.0","2","2020-1-7 23:5:35","OTTER",NA,NA,"[{""cat"":2,""src"":11,""loc"":1},{""cat"":30,""src"":10,""loc"":0},{""cat"":27,""src"":11,""loc"":2},{""cat"":2,""src"":5,""loc"":5},{""cat"":27,""src"":18,""loc"":3},{""cat"":30,""src"":12,""loc"":4},{""cat"":30,""src"":9,""loc"":8},{""cat"":27,""src"":8,""loc"":6},{""cat"":2,""src"":1,""loc"":7}]","2","1104,1102,1102,1102,1103,1103,1103,1103,1102,10001",NA,NA,NA,NA,NA,NA,NA,NA,NA
"745","flanker_instructions","39","html-keyboard-response","53","539307","0.0-3.0-32.0","2","2020-1-7 23:5:35","OTTER",NA,NA,NA,NA,NA,NA,NA,NA,NA,NA,NA,NA,NA,NA
"559","flanker_test","39","image-keyboard-response","54","540869","0.0-3.0-33.0-0.0","2","2020-1-7 23:5:35","OTTER",NA,NA,NA,NA,NA,"congruent","right","TRUE",NA,NA,NA,NA,NA,NA
"405","flanker_test","37","image-keyboard-response","55","541590","0.0-3.0-33.0-0.1","2","2020-1-7 23:5:35","OTTER",NA,NA,NA,NA,NA,"congruent","left","TRUE",NA,NA,NA,NA,NA,NA
"462","flanker_test","39","image-keyboard-response","56","542615","0.0-3.0-33.0-0.2","2","2020-1-7 23:5:35","OTTER",NA,NA,NA,NA,NA,"incongruent","right","TRUE",NA,NA,NA,NA,NA,NA
NA,"flanker_test",NA,"image-keyboard-response","57","544359","0.0-3.0-33.0-0.3","2","2020-1-7 23:5:35","OTTER",NA,NA,NA,NA,NA,"incongruent","left","FALSE",NA,NA,NA,NA,NA,NA
"28421","sort_trial",NA,"free-sort","58","573925","0.0-3.0-34.0","2","2020-1-7 23:5:35","OTTER",NA,NA,NA,NA,NA,NA,NA,NA,"[{""cat"":2,""src"":11,""x"":72,""y"":89},{""cat"":30,""src"":10,""x"":49,""y"":245},{""cat"":27,""src"":11,""x"":18,""y"":366},{""cat"":2,""src"":5,""x"":36,""y"":16},{""cat"":27,""src"":18,""x"":46,""y"":308},{""cat"":30,""src"":12,""x"":67,""y"":484},{""cat"":30,""src"":9,""x"":45,""y"":146},{""cat"":27,""src"":8,""x"":3,""y"":196},{""cat"":2,""src"":1,""x"":51,""y"":443}]","[{""cat"":""2"",""src"":""1"",""x"":0,""y"":0},{""cat"":""27"",""src"":""8"",""x"":0,""y"":0},{""cat"":""2"",""src"":""11"",""x"":0,""y"":0},{""cat"":""2"",""src"":""5"",""x"":0,""y"":0},{""cat"":""30"",""src"":""9"",""x"":0,""y"":0},{""cat"":""30"",""src"":""10"",""x"":0,""y"":0},{""cat"":""27"",""src"":""18"",""x"":0,""y"":0},{""cat"":""27"",""src"":""11"",""x"":0,""y"":0},{""cat"":""30"",""src"":""12"",""x"":0,""y"":0}]","[{""cat"":2,""src"":1,""loc"":7},{""cat"":27,""src"":8,""loc"":6},{""cat"":2,""src"":11,""loc"":8},{""cat"":2,""src"":5,""loc"":1},{""cat"":30,""src"":9,""loc"":0},{""cat"":30,""src"":10,""loc"":2},{""cat"":27,""src"":18,""loc"":5},{""cat"":27,""src"":11,""loc"":4},{""cat"":30,""src"":12,""loc"":3}]","2","30,2,30,30,27,27,27,2,2,9,5,10,12,11,18,8,1,11,0,1,2,3,4,5,6,7,8,4,3,5,8,7,6,1,0,2",NA
"1055","sort_feedback","32","html-keyboard-response","59","574984","0.0-3.0-35.0","2","2020-1-7 23:5:35","OTTER",NA,NA,NA,NA,NA,NA,NA,NA,NA,NA,NA,NA,NA,NA
"19927","setup1",NA,"animation","60","594913","0.0-3.0-36.0","2","2020-1-7 23:5:35","OTTER",NA,NA,"[{""cat"":14,""src"":18,""loc"":6},{""cat"":14,""src"":9,""loc"":8},{""cat"":14,""src"":16,""loc"":7},{""cat"":25,""src"":13,""loc"":0},{""cat"":25,""src"":6,""loc"":1},{""cat"":25,""src"":12,""loc"":2},{""cat"":33,""src"":15,""loc"":4},{""cat"":33,""src"":6,""loc"":3},{""cat"":33,""src"":17,""loc"":5}]","1","1104,1103,1102,1102,1102,1103,1104,1103,1103,10001",NA,NA,NA,NA,NA,NA,NA,NA,NA
"492","flanker_instructions","39","html-keyboard-response","61","595410","0.0-3.0-37.0","2","2020-1-7 23:5:35","OTTER",NA,NA,NA,NA,NA,NA,NA,NA,NA,NA,NA,NA,NA,NA
"440","flanker_test","39","image-keyboard-response","62","596855","0.0-3.0-38.0-0.0","2","2020-1-7 23:5:35","OTTER",NA,NA,NA,NA,NA,"congruent","right","TRUE",NA,NA,NA,NA,NA,NA
"506","flanker_test","37","image-keyboard-response","63","598552","0.0-3.0-38.0-0.1","2","2020-1-7 23:5:35","OTTER",NA,NA,NA,NA,NA,"incongruent","left","TRUE",NA,NA,NA,NA,NA,NA
"415","flanker_test","37","image-keyboard-response","64","599471","0.0-3.0-38.0-0.2","2","2020-1-7 23:5:35","OTTER",NA,NA,NA,NA,NA,"incongruent","right","FALSE",NA,NA,NA,NA,NA,NA
"461","flanker_test","37","image-keyboard-response","65","600922","0.0-3.0-38.0-0.3","2","2020-1-7 23:5:35","OTTER",NA,NA,NA,NA,NA,"congruent","left","TRUE",NA,NA,NA,NA,NA,NA
"28433","sort_trial",NA,"free-sort","66","629781","0.0-3.0-39.0","2","2020-1-7 23:5:35","OTTER",NA,NA,NA,NA,NA,NA,NA,NA,"[{""cat"":14,""src"":18,""x"":45,""y"":251},{""cat"":14,""src"":9,""x"":67,""y"":446},{""cat"":14,""src"":16,""x"":31,""y"":186},{""cat"":25,""src"":13,""x"":10,""y"":26},{""cat"":25,""src"":6,""x"":42,""y"":321},{""cat"":25,""src"":12,""x"":44,""y"":369},{""cat"":33,""src"":15,""x"":10,""y"":490},{""cat"":33,""src"":6,""x"":20,""y"":86},{""cat"":33,""src"":17,""x"":24,""y"":149}]","[{""cat"":""25"",""src"":""13"",""x"":0,""y"":0},{""cat"":""25"",""src"":""6"",""x"":0,""y"":0},{""cat"":""25"",""src"":""12"",""x"":0,""y"":0},{""cat"":""14"",""src"":""16"",""x"":0,""y"":0},{""cat"":""14"",""src"":""18"",""x"":0,""y"":0},{""cat"":""14"",""src"":""9"",""x"":0,""y"":0},{""cat"":""33"",""src"":""6"",""x"":0,""y"":0},{""cat"":""33"",""src"":""17"",""x"":0,""y"":0},{""cat"":""33"",""src"":""15"",""x"":0,""y"":0}]","[{""cat"":25,""src"":13,""loc"":0},{""cat"":25,""src"":6,""loc"":1},{""cat"":25,""src"":12,""loc"":2},{""cat"":14,""src"":16,""loc"":6},{""cat"":14,""src"":18,""loc"":7},{""cat"":14,""src"":9,""loc"":8},{""cat"":33,""src"":6,""loc"":5},{""cat"":33,""src"":17,""loc"":4},{""cat"":33,""src"":15,""loc"":3}]","4","25,25,25,33,33,33,14,14,14,13,6,12,15,17,6,16,18,9,0,1,2,3,4,5,6,7,8,0,1,2,8,7,6,3,4,5",NA
"1088","sort_feedback","32","html-keyboard-response","67","630872","0.0-3.0-40.0","2","2020-1-7 23:5:35","OTTER",NA,NA,NA,NA,NA,NA,NA,NA,NA,NA,NA,NA,NA,NA
"19921","setup5",NA,"animation","68","650794","0.0-3.0-41.0","2","2020-1-7 23:5:35","OTTER",NA,NA,"[{""cat"":7,""src"":5,""loc"":2},{""cat"":16,""src"":13,""loc"":6},{""cat"":29,""src"":2,""loc"":3},{""cat"":7,""src"":4,""loc"":4},{""cat"":29,""src"":4,""loc"":8},{""cat"":16,""src"":1,""loc"":1},{""cat"":29,""src"":5,""loc"":0},{""cat"":16,""src"":18,""loc"":5},{""cat"":7,""src"":0,""loc"":7}]","5","1104,1102,1102,1102,1103,1101,1102,1102,1102,10001",NA,NA,NA,NA,NA,NA,NA,NA,NA
"568","flanker_instructions","39","html-keyboard-response","69","651366","0.0-3.0-42.0","2","2020-1-7 23:5:35","OTTER",NA,NA,NA,NA,NA,NA,NA,NA,NA,NA,NA,NA,NA,NA
"889","flanker_test","39","image-keyboard-response","70","653258","0.0-3.0-43.0-0.0","2","2020-1-7 23:5:35","OTTER",NA,NA,NA,NA,NA,"incongruent","right","TRUE",NA,NA,NA,NA,NA,NA
"487","flanker_test","39","image-keyboard-response","71","654934","0.0-3.0-43.0-0.1","2","2020-1-7 23:5:35","OTTER",NA,NA,NA,NA,NA,"congruent","right","TRUE",NA,NA,NA,NA,NA,NA
"503","flanker_test","37","image-keyboard-response","72","656307","0.0-3.0-43.0-0.2","2","2020-1-7 23:5:35","OTTER",NA,NA,NA,NA,NA,"incongruent","left","TRUE",NA,NA,NA,NA,NA,NA
"403","flanker_test","37","image-keyboard-response","73","657102","0.0-3.0-43.0-0.3","2","2020-1-7 23:5:35","OTTER",NA,NA,NA,NA,NA,"congruent","left","TRUE",NA,NA,NA,NA,NA,NA
"30118","sort_trial",NA,"free-sort","74","688382","0.0-3.0-44.0","2","2020-1-7 23:5:35","OTTER",NA,NA,NA,NA,NA,NA,NA,NA,"[{""cat"":7,""src"":5,""x"":70,""y"":83},{""cat"":16,""src"":13,""x"":82,""y"":496},{""cat"":29,""src"":2,""x"":40,""y"":265},{""cat"":7,""src"":4,""x"":32,""y"":309},{""cat"":29,""src"":4,""x"":18,""y"":22},{""cat"":16,""src"":1,""x"":28,""y"":146},{""cat"":29,""src"":5,""x"":66,""y"":377},{""cat"":16,""src"":18,""x"":81,""y"":441},{""cat"":7,""src"":0,""x"":49,""y"":192}]","[{""cat"":""29"",""src"":""5"",""x"":0,""y"":0},{""cat"":""16"",""src"":""1"",""x"":0,""y"":0},{""cat"":""7"",""src"":""5"",""x"":0,""y"":0},{""cat"":""29"",""src"":""4"",""x"":0,""y"":0},{""cat"":""7"",""src"":""0"",""x"":0,""y"":0},{""cat"":""29"",""src"":""2"",""x"":0,""y"":0},{""cat"":""7"",""src"":""4"",""x"":0,""y"":0},{""cat"":""16"",""src"":""18"",""x"":0,""y"":0},{""cat"":""16"",""src"":""13"",""x"":0,""y"":0}]","[{""cat"":29,""src"":5,""loc"":0},{""cat"":16,""src"":1,""loc"":1},{""cat"":7,""src"":5,""loc"":2},{""cat"":29,""src"":4,""loc"":5},{""cat"":7,""src"":0,""loc"":4},{""cat"":29,""src"":2,""loc"":3},{""cat"":7,""src"":4,""loc"":6},{""cat"":16,""src"":18,""loc"":7},{""cat"":16,""src"":13,""loc"":8}]","4","29,16,7,29,7,29,7,16,16,5,1,5,2,0,4,4,18,13,0,1,2,3,4,5,6,7,8,0,1,2,5,4,3,6,7,8",NA
"983","sort_feedback","32","html-keyboard-response","75","689370","0.0-3.0-45.0","2","2020-1-7 23:5:35","OTTER",NA,NA,NA,NA,NA,NA,NA,NA,NA,NA,NA,NA,NA,NA
"19929","setup3",NA,"animation","76","709300","0.0-3.0-46.0","2","2020-1-7 23:5:35","OTTER",NA,NA,"[{""cat"":19,""src"":15,""loc"":4},{""cat"":13,""src"":0,""loc"":6},{""cat"":25,""src"":8,""loc"":0},{""cat"":25,""src"":7,""loc"":1},{""cat"":19,""src"":7,""loc"":3},{""cat"":13,""src"":15,""loc"":7},{""cat"":25,""src"":15,""loc"":2},{""cat"":13,""src"":11,""loc"":8},{""cat"":19,""src"":19,""loc"":5}]","3","1105,1102,1102,1103,1103,1103,1103,1102,1105,10001",NA,NA,NA,NA,NA,NA,NA,NA,NA
"932","flanker_instructions","39","html-keyboard-response","77","710236","0.0-3.0-47.0","2","2020-1-7 23:5:35","OTTER",NA,NA,NA,NA,NA,NA,NA,NA,NA,NA,NA,NA,NA,NA
"435","flanker_test","37","image-keyboard-response","78","711676","0.0-3.0-48.0-0.0","2","2020-1-7 23:5:35","OTTER",NA,NA,NA,NA,NA,"congruent","left","TRUE",NA,NA,NA,NA,NA,NA
"412","flanker_test","39","image-keyboard-response","79","712922","0.0-3.0-48.0-0.1","2","2020-1-7 23:5:35","OTTER",NA,NA,NA,NA,NA,"congruent","right","TRUE",NA,NA,NA,NA,NA,NA
"640","flanker_test","39","image-keyboard-response","80","714252","0.0-3.0-48.0-0.2","2","2020-1-7 23:5:35","OTTER",NA,NA,NA,NA,NA,"incongruent","right","TRUE",NA,NA,NA,NA,NA,NA
"604","flanker_test","37","image-keyboard-response","81","715599","0.0-3.0-48.0-0.3","2","2020-1-7 23:5:35","OTTER",NA,NA,NA,NA,NA,"incongruent","left","TRUE",NA,NA,NA,NA,NA,NA
"29760","sort_trial",NA,"free-sort","82","746054","0.0-3.0-49.0","2","2020-1-7 23:5:35","OTTER",NA,NA,NA,NA,NA,NA,NA,NA,"[{""cat"":19,""src"":15,""x"":17,""y"":508},{""cat"":13,""src"":0,""x"":11,""y"":200},{""cat"":25,""src"":8,""x"":66,""y"":21},{""cat"":25,""src"":7,""x"":59,""y"":383},{""cat"":19,""src"":7,""x"":42,""y"":255},{""cat"":13,""src"":15,""x"":22,""y"":75},{""cat"":25,""src"":15,""x"":10,""y"":424},{""cat"":13,""src"":11,""x"":62,""y"":308},{""cat"":19,""src"":19,""x"":56,""y"":135}]","[{""cat"":""25"",""src"":""8"",""x"":0,""y"":0},{""cat"":""25"",""src"":""7"",""x"":0,""y"":0},{""cat"":""25"",""src"":""15"",""x"":0,""y"":0},{""cat"":""13"",""src"":""15"",""x"":0,""y"":0},{""cat"":""19"",""src"":""19"",""x"":0,""y"":0},{""cat"":""13"",""src"":""0"",""x"":0,""y"":0},{""cat"":""19"",""src"":""7"",""x"":0,""y"":0},{""cat"":""13"",""src"":""11"",""x"":0,""y"":0},{""cat"":""19"",""src"":""15"",""x"":0,""y"":0}]","[{""cat"":25,""src"":8,""loc"":0},{""cat"":25,""src"":7,""loc"":1},{""cat"":25,""src"":15,""loc"":2},{""cat"":13,""src"":15,""loc"":7},{""cat"":19,""src"":19,""loc"":6},{""cat"":13,""src"":0,""loc"":8},{""cat"":19,""src"":7,""loc"":5},{""cat"":13,""src"":11,""loc"":4},{""cat"":19,""src"":15,""loc"":3}]","4","25,25,25,19,13,19,19,13,13,8,7,15,15,11,7,19,15,0,0,1,2,3,4,5,6,7,8,0,1,2,8,7,6,4,3,5",NA
"1059","sort_feedback","32","html-keyboard-response","83","747117","0.0-3.0-50.0","2","2020-1-7 23:5:35","OTTER",NA,NA,NA,NA,NA,NA,NA,NA,NA,NA,NA,NA,NA,NA
"19919","setup1",NA,"animation","84","767038","0.0-3.0-51.0","2","2020-1-7 23:5:35","OTTER",NA,NA,"[{""cat"":28,""src"":16,""loc"":2},{""cat"":28,""src"":11,""loc"":0},{""cat"":28,""src"":4,""loc"":1},{""cat"":4,""src"":17,""loc"":3},{""cat"":4,""src"":14,""loc"":4},{""cat"":4,""src"":19,""loc"":5},{""cat"":15,""src"":7,""loc"":8},{""cat"":15,""src"":5,""loc"":6},{""cat"":15,""src"":8,""loc"":7}]","1","1103,1102,1102,1101,1101,1102,1101,1104,1102,10001",NA,NA,NA,NA,NA,NA,NA,NA,NA
"716","flanker_instructions","39","html-keyboard-response","85","767758","0.0-3.0-52.0","2","2020-1-7 23:5:35","OTTER",NA,NA,NA,NA,NA,NA,NA,NA,NA,NA,NA,NA,NA,NA
"464","flanker_test","39","image-keyboard-response","86","769226","0.0-3.0-53.0-0.0","2","2020-1-7 23:5:35","OTTER",NA,NA,NA,NA,NA,"congruent","right","TRUE",NA,NA,NA,NA,NA,NA
"523","flanker_test","37","image-keyboard-response","87","770578","0.0-3.0-53.0-0.1","2","2020-1-7 23:5:35","OTTER",NA,NA,NA,NA,NA,"incongruent","left","TRUE",NA,NA,NA,NA,NA,NA
"428","flanker_test","37","image-keyboard-response","88","771748","0.0-3.0-53.0-0.2","2","2020-1-7 23:5:35","OTTER",NA,NA,NA,NA,NA,"congruent","left","TRUE",NA,NA,NA,NA,NA,NA
"696","flanker_test","39","image-keyboard-response","89","773484","0.0-3.0-53.0-0.3","2","2020-1-7 23:5:35","OTTER",NA,NA,NA,NA,NA,"incongruent","right","TRUE",NA,NA,NA,NA,NA,NA
"26258","sort_trial",NA,"free-sort","90","800521","0.0-3.0-54.0","2","2020-1-7 23:5:35","OTTER",NA,NA,NA,NA,NA,NA,NA,NA,"[{""cat"":28,""src"":16,""x"":7,""y"":203},{""cat"":28,""src"":11,""x"":51,""y"":266},{""cat"":28,""src"":4,""x"":61,""y"":13},{""cat"":4,""src"":17,""x"":36,""y"":369},{""cat"":4,""src"":14,""x"":49,""y"":120},{""cat"":4,""src"":19,""x"":70,""y"":326},{""cat"":15,""src"":7,""x"":29,""y"":82},{""cat"":15,""src"":5,""x"":21,""y"":441},{""cat"":15,""src"":8,""x"":41,""y"":508}]","[{""cat"":""28"",""src"":""4"",""x"":0,""y"":0},{""cat"":""28"",""src"":""16"",""x"":0,""y"":0},{""cat"":""28"",""src"":""11"",""x"":0,""y"":0},{""cat"":""15"",""src"":""7"",""x"":0,""y"":0},{""cat"":""4"",""src"":""14"",""x"":0,""y"":0},{""cat"":""4"",""src"":""19"",""x"":0,""y"":0},{""cat"":""4"",""src"":""17"",""x"":0,""y"":0},{""cat"":""15"",""src"":""5"",""x"":0,""y"":0},{""cat"":""15"",""src"":""8"",""x"":0,""y"":0}]","[{""cat"":28,""src"":4,""loc"":1},{""cat"":28,""src"":16,""loc"":2},{""cat"":28,""src"":11,""loc"":0},{""cat"":15,""src"":7,""loc"":5},{""cat"":4,""src"":14,""loc"":4},{""cat"":4,""src"":19,""loc"":3},{""cat"":4,""src"":17,""loc"":6},{""cat"":15,""src"":5,""loc"":7},{""cat"":15,""src"":8,""loc"":8}]","4","28,28,28,4,4,15,4,15,15,11,4,16,19,14,7,17,5,8,0,1,2,3,4,5,6,7,8,2,0,1,5,4,3,6,7,8",NA
"1198","sort_feedback","32","html-keyboard-response","91","801722","0.0-3.0-55.0","2","2020-1-7 23:5:35","OTTER",NA,NA,NA,NA,NA,NA,NA,NA,NA,NA,NA,NA,NA,NA
"19924","setup2",NA,"animation","92","821650","0.0-3.0-56.0","2","2020-1-7 23:5:35","OTTER",NA,NA,"[{""cat"":1,""src"":12,""loc"":6},{""cat"":28,""src"":0,""loc"":8},{""cat"":2,""src"":17,""loc"":7},{""cat"":2,""src"":6,""loc"":3},{""cat"":28,""src"":17,""loc"":4},{""cat"":1,""src"":3,""loc"":5},{""cat"":28,""src"":4,""loc"":2},{""cat"":2,""src"":10,""loc"":1},{""cat"":1,""src"":8,""loc"":0}]","2","1104,1101,1102,1102,1103,1103,1103,1103,1103,10000",NA,NA,NA,NA,NA,NA,NA,NA,NA
"906","flanker_instructions","39","html-keyboard-response","93","822558","0.0-3.0-57.0","2","2020-1-7 23:5:35","OTTER",NA,NA,NA,NA,NA,NA,NA,NA,NA,NA,NA,NA,NA,NA
"598","flanker_test","39","image-keyboard-response","94","824160","0.0-3.0-58.0-0.0","2","2020-1-7 23:5:35","OTTER",NA,NA,NA,NA,NA,"incongruent","right","TRUE",NA,NA,NA,NA,NA,NA
"515","flanker_test","39","image-keyboard-response","95","825625","0.0-3.0-58.0-0.1","2","2020-1-7 23:5:35","OTTER",NA,NA,NA,NA,NA,"congruent","right","TRUE",NA,NA,NA,NA,NA,NA
"528","flanker_test","37","image-keyboard-response","96","827134","0.0-3.0-58.0-0.2","2","2020-1-7 23:5:35","OTTER",NA,NA,NA,NA,NA,"incongruent","left","TRUE",NA,NA,NA,NA,NA,NA
"442","flanker_test","37","image-keyboard-response","97","828536","0.0-3.0-58.0-0.3","2","2020-1-7 23:5:35","OTTER",NA,NA,NA,NA,NA,"congruent","left","TRUE",NA,NA,NA,NA,NA,NA
"37218","sort_trial",NA,"free-sort","98","866124","0.0-3.0-59.0","2","2020-1-7 23:5:35","OTTER",NA,NA,NA,NA,NA,NA,NA,NA,"[{""cat"":1,""src"":12,""x"":27,""y"":328},{""cat"":28,""src"":0,""x"":53,""y"":442},{""cat"":2,""src"":17,""x"":5,""y"":489},{""cat"":2,""src"":6,""x"":21,""y"":252},{""cat"":28,""src"":17,""x"":44,""y"":22},{""cat"":1,""src"":3,""x"":53,""y"":135},{""cat"":28,""src"":4,""x"":54,""y"":376},{""cat"":2,""src"":10,""x"":32,""y"":62},{""cat"":1,""src"":8,""x"":50,""y"":192}]","[{""cat"":""2"",""src"":""17"",""x"":0,""y"":0},{""cat"":""1"",""src"":""12"",""x"":0,""y"":0},{""cat"":""28"",""src"":""0"",""x"":0,""y"":0},{""cat"":""28"",""src"":""17"",""x"":0,""y"":0},{""cat"":""2"",""src"":""6"",""x"":0,""y"":0},{""cat"":""28"",""src"":""4"",""x"":0,""y"":0},{""cat"":""2"",""src"":""10"",""x"":418,""y"":300},{""cat"":""2"",""src"":""10"",""x"":0,""y"":0},{""cat"":""1"",""src"":""3"",""x"":0,""y"":0},{""cat"":""1"",""src"":""8"",""x"":0,""y"":0}]","[{""cat"":2,""src"":17,""loc"":0},{""cat"":1,""src"":12,""loc"":1},{""cat"":28,""src"":0,""loc"":2},{""cat"":28,""src"":17,""loc"":4},{""cat"":2,""src"":6,""loc"":5},{""cat"":28,""src"":4,""loc"":3},{""cat"":2,""src"":10,""loc"":6},{""cat"":1,""src"":3,""loc"":7},{""cat"":1,""src"":8,""loc"":8}]","1","2,1,28,28,28,2,2,1,1,17,12,0,4,17,6,10,3,8,0,1,2,3,4,5,6,7,8,0,1,2,5,3,4,6,7,8",NA
"2634","sort_feedback","32","html-keyboard-response","99","868761","0.0-3.0-60.0","2","2020-1-7 23:5:35","OTTER",NA,NA,NA,NA,NA,NA,NA,NA,NA,NA,NA,NA,NA,NA
"19917","setup3",NA,"animation","100","888680","0.0-3.0-61.0","2","2020-1-7 23:5:35","OTTER",NA,NA,"[{""cat"":17,""src"":13,""loc"":5},{""cat"":19,""src"":16,""loc"":0},{""cat"":7,""src"":0,""loc"":7},{""cat"":7,""src"":5,""loc"":8},{""cat"":17,""src"":7,""loc"":4},{""cat"":19,""src"":11,""loc"":1},{""cat"":17,""src"":12,""loc"":3},{""cat"":7,""src"":19,""loc"":6},{""cat"":19,""src"":17,""loc"":2}]","3","1104,1101,1102,1101,1102,1102,1101,1102,1101,10001",NA,NA,NA,NA,NA,NA,NA,NA,NA
"742","flanker_instructions","39","html-keyboard-response","101","889425","0.0-3.0-62.0","2","2020-1-7 23:5:35","OTTER",NA,NA,NA,NA,NA,NA,NA,NA,NA,NA,NA,NA,NA,NA
"511","flanker_test","39","image-keyboard-response","102","890939","0.0-3.0-63.0-0.0","2","2020-1-7 23:5:35","OTTER",NA,NA,NA,NA,NA,"incongruent","left","FALSE",NA,NA,NA,NA,NA,NA
"497","flanker_test","39","image-keyboard-response","103","892300","0.0-3.0-63.0-0.1","2","2020-1-7 23:5:35","OTTER",NA,NA,NA,NA,NA,"congruent","right","TRUE",NA,NA,NA,NA,NA,NA
"416","flanker_test","37","image-keyboard-response","104","893586","0.0-3.0-63.0-0.2","2","2020-1-7 23:5:35","OTTER",NA,NA,NA,NA,NA,"congruent","left","TRUE",NA,NA,NA,NA,NA,NA
"535","flanker_test","39","image-keyboard-response","105","894647","0.0-3.0-63.0-0.3","2","2020-1-7 23:5:35","OTTER",NA,NA,NA,NA,NA,"incongruent","right","TRUE",NA,NA,NA,NA,NA,NA
"30660","sort_trial",NA,"free-sort","106","926486","0.0-3.0-64.0","2","2020-1-7 23:5:35","OTTER",NA,NA,NA,NA,NA,NA,NA,NA,"[{""cat"":17,""src"":13,""x"":37,""y"":487},{""cat"":19,""src"":16,""x"":42,""y"":257},{""cat"":7,""src"":0,""x"":43,""y"":84},{""cat"":7,""src"":5,""x"":50,""y"":365},{""cat"":17,""src"":7,""x"":25,""y"":146},{""cat"":19,""src"":11,""x"":14,""y"":184},{""cat"":17,""src"":12,""x"":53,""y"":21},{""cat"":7,""src"":19,""x"":64,""y"":301},{""cat"":19,""src"":17,""x"":43,""y"":419}]","[{""cat"":""7"",""src"":""0"",""x"":0,""y"":0},{""cat"":""7"",""src"":""19"",""x"":0,""y"":0},{""cat"":""7"",""src"":""5"",""x"":0,""y"":0},{""cat"":""17"",""src"":""12"",""x"":0,""y"":0},{""cat"":""19"",""src"":""16"",""x"":0,""y"":0},{""cat"":""17"",""src"":""7"",""x"":754,""y"":259},{""cat"":""17"",""src"":""7"",""x"":0,""y"":0},{""cat"":""19"",""src"":""11"",""x"":0,""y"":0},{""cat"":""19"",""src"":""17"",""x"":0,""y"":0},{""cat"":""17"",""src"":""13"",""x"":0,""y"":0}]","[{""cat"":7,""src"":0,""loc"":0},{""cat"":7,""src"":19,""loc"":1},{""cat"":7,""src"":5,""loc"":2},{""cat"":17,""src"":12,""loc"":5},{""cat"":19,""src"":16,""loc"":4},{""cat"":17,""src"":7,""loc"":3},{""cat"":19,""src"":11,""loc"":6},{""cat"":19,""src"":17,""loc"":7},{""cat"":17,""src"":13,""loc"":8}]","0","7,7,7,17,19,17,19,19,17,0,19,5,7,16,12,11,17,13,0,1,2,3,4,5,6,7,8,0,1,2,5,4,3,6,7,8",NA
"2736","sort_feedback","32","html-keyboard-response","107","929225","0.0-3.0-65.0","2","2020-1-7 23:5:35","OTTER",NA,NA,NA,NA,NA,NA,NA,NA,NA,NA,NA,NA,NA,NA
"19922","setup5",NA,"animation","108","949148","0.0-3.0-66.0","2","2020-1-7 23:5:35","OTTER",NA,NA,"[{""cat"":7,""src"":19,""loc"":2},{""cat"":26,""src"":17,""loc"":5},{""cat"":10,""src"":14,""loc"":6},{""cat"":7,""src"":8,""loc"":3},{""cat"":26,""src"":10,""loc"":8},{""cat"":10,""src"":1,""loc"":1},{""cat"":26,""src"":4,""loc"":0},{""cat"":10,""src"":2,""loc"":4},{""cat"":7,""src"":7,""loc"":7}]","5","1104,1101,1104,1102,1101,1102,1102,1102,1103,10000",NA,NA,NA,NA,NA,NA,NA,NA,NA
"639","flanker_instructions","39","html-keyboard-response","109","949792","0.0-3.0-67.0","2","2020-1-7 23:5:35","OTTER",NA,NA,NA,NA,NA,NA,NA,NA,NA,NA,NA,NA,NA,NA
"637","flanker_test","39","image-keyboard-response","110","951432","0.0-3.0-68.0-0.0","2","2020-1-7 23:5:35","OTTER",NA,NA,NA,NA,NA,"incongruent","left","FALSE",NA,NA,NA,NA,NA,NA
"488","flanker_test","37","image-keyboard-response","111","952709","0.0-3.0-68.0-0.1","2","2020-1-7 23:5:35","OTTER",NA,NA,NA,NA,NA,"congruent","left","TRUE",NA,NA,NA,NA,NA,NA
"658","flanker_test","39","image-keyboard-response","112","954059","0.0-3.0-68.0-0.2","2","2020-1-7 23:5:35","OTTER",NA,NA,NA,NA,NA,"incongruent","right","TRUE",NA,NA,NA,NA,NA,NA
"560","flanker_test","39","image-keyboard-response","113","955188","0.0-3.0-68.0-0.3","2","2020-1-7 23:5:35","OTTER",NA,NA,NA,NA,NA,"congruent","right","TRUE",NA,NA,NA,NA,NA,NA
"25251","sort_trial",NA,"free-sort","114","980829","0.0-3.0-69.0","2","2020-1-7 23:5:35","OTTER",NA,NA,NA,NA,NA,NA,NA,NA,"[{""cat"":7,""src"":19,""x"":12,""y"":267},{""cat"":26,""src"":17,""x"":17,""y"":180},{""cat"":10,""src"":14,""x"":64,""y"":424},{""cat"":7,""src"":8,""x"":57,""y"":125},{""cat"":26,""src"":10,""x"":10,""y"":488},{""cat"":10,""src"":1,""x"":43,""y"":78},{""cat"":26,""src"":4,""x"":79,""y"":22},{""cat"":10,""src"":2,""x"":64,""y"":388},{""cat"":7,""src"":7,""x"":46,""y"":328}]","[{""cat"":""7"",""src"":""7"",""x"":0,""y"":0},{""cat"":""10"",""src"":""14"",""x"":0,""y"":0},{""cat"":""26"",""src"":""10"",""x"":0,""y"":0},{""cat"":""26"",""src"":""4"",""x"":0,""y"":0},{""cat"":""10"",""src"":""1"",""x"":0,""y"":0},{""cat"":""7"",""src"":""8"",""x"":0,""y"":0},{""cat"":""26"",""src"":""17"",""x"":0,""y"":0},{""cat"":""7"",""src"":""19"",""x"":0,""y"":0},{""cat"":""10"",""src"":""2"",""x"":0,""y"":0}]","[{""cat"":7,""src"":7,""loc"":7},{""cat"":10,""src"":14,""loc"":6},{""cat"":26,""src"":10,""loc"":8},{""cat"":26,""src"":4,""loc"":1},{""cat"":10,""src"":1,""loc"":0},{""cat"":7,""src"":8,""loc"":2},{""cat"":26,""src"":17,""loc"":5},{""cat"":7,""src"":19,""loc"":4},{""cat"":10,""src"":2,""loc"":3}]","4","10,26,7,10,7,26,10,7,26,1,4,8,2,19,17,14,7,10,0,1,2,3,4,5,6,7,8,4,3,5,8,7,6,1,0,2",NA
"1086","sort_feedback","32","html-keyboard-response","115","981919","0.0-3.0-70.0","2","2020-1-7 23:5:35","OTTER",NA,NA,NA,NA,NA,NA,NA,NA,NA,NA,NA,NA,NA,NA
"19925","setup4",NA,"animation","116","1001846","0.0-3.0-71.0","2","2020-1-7 23:5:35","OTTER",NA,NA,"[{""cat"":19,""src"":5,""loc"":5},{""cat"":19,""src"":2,""loc"":8},{""cat"":19,""src"":1,""loc"":2},{""cat"":10,""src"":16,""loc"":6},{""cat"":10,""src"":10,""loc"":3},{""cat"":10,""src"":11,""loc"":0},{""cat"":5,""src"":9,""loc"":1},{""cat"":5,""src"":15,""loc"":7},{""cat"":5,""src"":5,""loc"":4}]","4","1104,1102,1101,1102,1104,1102,1104,1103,1102,10001",NA,NA,NA,NA,NA,NA,NA,NA,NA
"758","flanker_instructions","39","html-keyboard-response","117","1002608","0.0-3.0-72.0","2","2020-1-7 23:5:35","OTTER",NA,NA,NA,NA,NA,NA,NA,NA,NA,NA,NA,NA,NA,NA
"721","flanker_test","39","image-keyboard-response","118","1004332","0.0-3.0-73.0-0.0","2","2020-1-7 23:5:35","OTTER",NA,NA,NA,NA,NA,"incongruent","left","FALSE",NA,NA,NA,NA,NA,NA
"562","flanker_test","39","image-keyboard-response","119","1005530","0.0-3.0-73.0-0.1","2","2020-1-7 23:5:35","OTTER",NA,NA,NA,NA,NA,"congruent","right","TRUE",NA,NA,NA,NA,NA,NA
"449","flanker_test","37","image-keyboard-response","120","1006408","0.0-3.0-73.0-0.2","2","2020-1-7 23:5:35","OTTER",NA,NA,NA,NA,NA,"incongruent","right","FALSE",NA,NA,NA,NA,NA,NA
"535","flanker_test","37","image-keyboard-response","121","1007994","0.0-3.0-73.0-0.3","2","2020-1-7 23:5:35","OTTER",NA,NA,NA,NA,NA,"congruent","left","TRUE",NA,NA,NA,NA,NA,NA
"24828","sort_trial",NA,"free-sort","122","1033495","0.0-3.0-74.0","2","2020-1-7 23:5:35","OTTER",NA,NA,NA,NA,NA,NA,NA,NA,"[{""cat"":19,""src"":5,""x"":1,""y"":313},{""cat"":19,""src"":2,""x"":4,""y"":136},{""cat"":19,""src"":1,""x"":15,""y"":447},{""cat"":10,""src"":16,""x"":53,""y"":80},{""cat"":10,""src"":10,""x"":36,""y"":504},{""cat"":10,""src"":11,""x"":35,""y"":368},{""cat"":5,""src"":9,""x"":31,""y"":260},{""cat"":5,""src"":15,""x"":13,""y"":22},{""cat"":5,""src"":5,""x"":65,""y"":198}]","[{""cat"":""5"",""src"":""5"",""x"":0,""y"":0},{""cat"":""19"",""src"":""5"",""x"":0,""y"":0},{""cat"":""10"",""src"":""10"",""x"":0,""y"":0},{""cat"":""5"",""src"":""15"",""x"":0,""y"":0},{""cat"":""10"",""src"":""16"",""x"":0,""y"":0},{""cat"":""19"",""src"":""2"",""x"":0,""y"":0},{""cat"":""5"",""src"":""9"",""x"":0,""y"":0},{""cat"":""10"",""src"":""11"",""x"":0,""y"":0},{""cat"":""19"",""src"":""1"",""x"":0,""y"":0}]","[{""cat"":5,""src"":5,""loc"":4},{""cat"":19,""src"":5,""loc"":5},{""cat"":10,""src"":10,""loc"":3},{""cat"":5,""src"":15,""loc"":1},{""cat"":10,""src"":16,""loc"":0},{""cat"":19,""src"":2,""loc"":2},{""cat"":5,""src"":9,""loc"":6},{""cat"":10,""src"":11,""loc"":8},{""cat"":19,""src"":1,""loc"":7}]","3","10,5,19,10,5,19,5,19,10,16,15,2,10,5,5,9,1,11,0,1,2,3,4,5,6,7,8,4,3,5,2,0,1,6,8,7",NA
"999","sort_feedback","32","html-keyboard-response","123","1034496","0.0-3.0-75.0","2","2020-1-7 23:5:35","OTTER",NA,NA,NA,NA,NA,NA,NA,NA,NA,NA,NA,NA,NA,NA
"19921","setup5",NA,"animation","124","1054419","0.0-3.0-76.0","2","2020-1-7 23:5:35","OTTER",NA,NA,"[{""cat"":33,""src"":19,""loc"":6},{""cat"":9,""src"":13,""loc"":2},{""cat"":25,""src"":12,""loc"":3},{""cat"":9,""src"":2,""loc"":4},{""cat"":25,""src"":19,""loc"":8},{""cat"":33,""src"":10,""loc"":1},{""cat"":25,""src"":2,""loc"":0},{""cat"":33,""src"":6,""loc"":5},{""cat"":9,""src"":14,""loc"":7}]","5","1104,1101,1102,1102,1101,1103,1103,1103,1101,10001",NA,NA,NA,NA,NA,NA,NA,NA,NA
"906","flanker_instructions","39","html-keyboard-response","125","1055328","0.0-3.0-77.0","2","2020-1-7 23:5:35","OTTER",NA,NA,NA,NA,NA,NA,NA,NA,NA,NA,NA,NA,NA,NA
"495","flanker_test","39","image-keyboard-response","126","1056828","0.0-3.0-78.0-0.0","2","2020-1-7 23:5:35","OTTER",NA,NA,NA,NA,NA,"congruent","right","TRUE",NA,NA,NA,NA,NA,NA
"625","flanker_test","39","image-keyboard-response","127","1057783","0.0-3.0-78.0-0.1","2","2020-1-7 23:5:35","OTTER",NA,NA,NA,NA,NA,"incongruent","right","TRUE",NA,NA,NA,NA,NA,NA
"414","flanker_test","37","image-keyboard-response","128","1059074","0.0-3.0-78.0-0.2","2","2020-1-7 23:5:35","OTTER",NA,NA,NA,NA,NA,"congruent","left","TRUE",NA,NA,NA,NA,NA,NA
"603","flanker_test","37","image-keyboard-response","129","1060001","0.0-3.0-78.0-0.3","2","2020-1-7 23:5:35","OTTER",NA,NA,NA,NA,NA,"incongruent","left","TRUE",NA,NA,NA,NA,NA,NA
"36025","sort_trial",NA,"free-sort","130","1096656","0.0-3.0-79.0","2","2020-1-7 23:5:35","OTTER",NA,NA,NA,NA,NA,NA,NA,NA,"[{""cat"":33,""src"":19,""x"":52,""y"":324},{""cat"":9,""src"":13,""x"":4,""y"":437},{""cat"":25,""src"":12,""x"":71,""y"":26},{""cat"":9,""src"":2,""x"":35,""y"":207},{""cat"":25,""src"":19,""x"":29,""y"":259},{""cat"":33,""src"":10,""x"":7,""y"":504},{""cat"":25,""src"":2,""x"":34,""y"":369},{""cat"":33,""src"":6,""x"":27,""y"":81},{""cat"":9,""src"":14,""x"":63,""y"":124}]","[{""cat"":""33"",""src"":""6"",""x"":0,""y"":0},{""cat"":""9"",""src"":""2"",""x"":0,""y"":0},{""cat"":""9"",""src"":""14"",""x"":0,""y"":0},{""cat"":""25"",""src"":""12"",""x"":0,""y"":0},{""cat"":""25"",""src"":""19"",""x"":0,""y"":0},{""cat"":""33"",""src"":""19"",""x"":0,""y"":0},{""cat"":""25"",""src"":""2"",""x"":0,""y"":0},{""cat"":""9"",""src"":""13"",""x"":0,""y"":0},{""cat"":""33"",""src"":""10"",""x"":0,""y"":0}]","[{""cat"":33,""src"":6,""loc"":5},{""cat"":9,""src"":2,""loc"":4},{""cat"":9,""src"":14,""loc"":3},{""cat"":25,""src"":12,""loc"":1},{""cat"":25,""src"":19,""loc"":0},{""cat"":33,""src"":19,""loc"":2},{""cat"":25,""src"":2,""loc"":8},{""cat"":9,""src"":13,""loc"":6},{""cat"":33,""src"":10,""loc"":7}]","2","25,25,33,9,9,33,9,33,25,19,12,19,14,2,6,13,10,2,0,1,2,3,4,5,6,7,8,4,3,5,2,1,0,7,8,6",NA
"1019","sort_feedback","32","html-keyboard-response","131","1097678","0.0-3.0-80.0","2","2020-1-7 23:5:35","OTTER",NA,NA,NA,NA,NA,NA,NA,NA,NA,NA,NA,NA,NA,NA
"19917","setup4",NA,"animation","132","1117597","0.0-3.0-81.0","2","2020-1-7 23:5:35","OTTER",NA,NA,"[{""cat"":2,""src"":8,""loc"":7},{""cat"":2,""src"":1,""loc"":1},{""cat"":2,""src"":7,""loc"":3},{""cat"":27,""src"":15,""loc"":5},{""cat"":27,""src"":3,""loc"":0},{""cat"":27,""src"":7,""loc"":6},{""cat"":11,""src"":2,""loc"":4},{""cat"":11,""src"":7,""loc"":8},{""cat"":11,""src"":10,""loc"":2}]","4","1103,1102,1102,1101,1102,1101,1102,1102,1101,10001",NA,NA,NA,NA,NA,NA,NA,NA,NA
"579","flanker_instructions","39","html-keyboard-response","133","1118180","0.0-3.0-82.0","2","2020-1-7 23:5:35","OTTER",NA,NA,NA,NA,NA,NA,NA,NA,NA,NA,NA,NA,NA,NA
"668","flanker_test","39","image-keyboard-response","134","1119853","0.0-3.0-83.0-0.0","2","2020-1-7 23:5:35","OTTER",NA,NA,NA,NA,NA,"incongruent","right","TRUE",NA,NA,NA,NA,NA,NA
"516","flanker_test","39","image-keyboard-response","135","1121427","0.0-3.0-83.0-0.1","2","2020-1-7 23:5:35","OTTER",NA,NA,NA,NA,NA,"incongruent","left","FALSE",NA,NA,NA,NA,NA,NA
"524","flanker_test","37","image-keyboard-response","136","1122600","0.0-3.0-83.0-0.2","2","2020-1-7 23:5:35","OTTER",NA,NA,NA,NA,NA,"congruent","left","TRUE",NA,NA,NA,NA,NA,NA
"670","flanker_test","39","image-keyboard-response","137","1124229","0.0-3.0-83.0-0.3","2","2020-1-7 23:5:35","OTTER",NA,NA,NA,NA,NA,"congruent","right","TRUE",NA,NA,NA,NA,NA,NA
"30746","sort_trial",NA,"free-sort","138","1156068","0.0-3.0-84.0","2","2020-1-7 23:5:35","OTTER",NA,NA,NA,NA,NA,NA,NA,NA,"[{""cat"":2,""src"":8,""x"":11,""y"":246},{""cat"":2,""src"":1,""x"":57,""y"":179},{""cat"":2,""src"":7,""x"":62,""y"":445},{""cat"":27,""src"":15,""x"":10,""y"":16},{""cat"":27,""src"":3,""x"":21,""y"":380},{""cat"":27,""src"":7,""x"":76,""y"":303},{""cat"":11,""src"":2,""x"":1,""y"":488},{""cat"":11,""src"":7,""x"":81,""y"":78},{""cat"":11,""src"":10,""x"":80,""y"":140}]","[{""cat"":""27"",""src"":""3"",""x"":0,""y"":0},{""cat"":""2"",""src"":""1"",""x"":0,""y"":0},{""cat"":""11"",""src"":""10"",""x"":0,""y"":0},{""cat"":""27"",""src"":""15"",""x"":0,""y"":0},{""cat"":""11"",""src"":""7"",""x"":0,""y"":0},{""cat"":""2"",""src"":""8"",""x"":769,""y"":253},{""cat"":""2"",""src"":""8"",""x"":0,""y"":0},{""cat"":""27"",""src"":""7"",""x"":0,""y"":0},{""cat"":""2"",""src"":""7"",""x"":0,""y"":0},{""cat"":""11"",""src"":""2"",""x"":0,""y"":0}]","[{""cat"":27,""src"":3,""loc"":0},{""cat"":2,""src"":1,""loc"":1},{""cat"":11,""src"":10,""loc"":2},{""cat"":27,""src"":15,""loc"":5},{""cat"":11,""src"":7,""loc"":4},{""cat"":2,""src"":8,""loc"":3},{""cat"":27,""src"":7,""loc"":6},{""cat"":2,""src"":7,""loc"":8},{""cat"":11,""src"":2,""loc"":7}]","5","27,2,11,2,11,27,27,11,2,3,1,10,8,7,15,7,2,7,0,1,2,3,4,5,6,7,8,0,1,2,5,4,3,6,8,7",NA
"1161","sort_feedback","32","html-keyboard-response","139","1157232","0.0-3.0-85.0","2","2020-1-7 23:5:35","OTTER",NA,NA,NA,NA,NA,NA,NA,NA,NA,NA,NA,NA,NA,NA
"19923","setup1",NA,"animation","140","1177157","0.0-3.0-86.0","2","2020-1-7 23:5:35","OTTER",NA,NA,"[{""cat"":17,""src"":9,""loc"":6},{""cat"":17,""src"":14,""loc"":8},{""cat"":17,""src"":16,""loc"":7},{""cat"":6,""src"":3,""loc"":3},{""cat"":6,""src"":0,""loc"":5},{""cat"":6,""src"":5,""loc"":4},{""cat"":26,""src"":0,""loc"":1},{""cat"":26,""src"":17,""loc"":2},{""cat"":26,""src"":4,""loc"":0}]","1","1104,1102,1101,1101,1102,1104,1103,1103,1102,10001",NA,NA,NA,NA,NA,NA,NA,NA,NA
"664","flanker_instructions","39","html-keyboard-response","141","1177825","0.0-3.0-87.0","2","2020-1-7 23:5:35","OTTER",NA,NA,NA,NA,NA,NA,NA,NA,NA,NA,NA,NA,NA,NA
"751","flanker_test","37","image-keyboard-response","142","1179581","0.0-3.0-88.0-0.0","2","2020-1-7 23:5:35","OTTER",NA,NA,NA,NA,NA,"incongruent","left","TRUE",NA,NA,NA,NA,NA,NA
"659","flanker_test","39","image-keyboard-response","143","1181248","0.0-3.0-88.0-0.1","2","2020-1-7 23:5:35","OTTER",NA,NA,NA,NA,NA,"incongruent","right","TRUE",NA,NA,NA,NA,NA,NA
"395","flanker_test","37","image-keyboard-response","144","1182675","0.0-3.0-88.0-0.2","2","2020-1-7 23:5:35","OTTER",NA,NA,NA,NA,NA,"congruent","left","TRUE",NA,NA,NA,NA,NA,NA
"527","flanker_test","39","image-keyboard-response","145","1184078","0.0-3.0-88.0-0.3","2","2020-1-7 23:5:35","OTTER",NA,NA,NA,NA,NA,"congruent","right","TRUE",NA,NA,NA,NA,NA,NA
"25967","sort_trial",NA,"free-sort","146","1210648","0.0-3.0-89.0","2","2020-1-7 23:5:35","OTTER",NA,NA,NA,NA,NA,NA,NA,NA,"[{""cat"":17,""src"":9,""x"":48,""y"":269},{""cat"":17,""src"":14,""x"":69,""y"":9},{""cat"":17,""src"":16,""x"":51,""y"":495},{""cat"":6,""src"":3,""x"":69,""y"":366},{""cat"":6,""src"":0,""x"":56,""y"":202},{""cat"":6,""src"":5,""x"":2,""y"":122},{""cat"":26,""src"":0,""x"":57,""y"":300},{""cat"":26,""src"":17,""x"":38,""y"":67},{""cat"":26,""src"":4,""x"":30,""y"":433}]","[{""cat"":""26"",""src"":""4"",""x"":0,""y"":0},{""cat"":""26"",""src"":""0"",""x"":0,""y"":0},{""cat"":""26"",""src"":""17"",""x"":0,""y"":0},{""cat"":""17"",""src"":""14"",""x"":0,""y"":0},{""cat"":""6"",""src"":""5"",""x"":0,""y"":0},{""cat"":""6"",""src"":""0"",""x"":0,""y"":0},{""cat"":""17"",""src"":""9"",""x"":0,""y"":0},{""cat"":""6"",""src"":""3"",""x"":0,""y"":0},{""cat"":""17"",""src"":""16"",""x"":0,""y"":0}]","[{""cat"":26,""src"":4,""loc"":0},{""cat"":26,""src"":0,""loc"":1},{""cat"":26,""src"":17,""loc"":2},{""cat"":17,""src"":14,""loc"":5},{""cat"":6,""src"":5,""loc"":4},{""cat"":6,""src"":0,""loc"":3},{""cat"":17,""src"":9,""loc"":6},{""cat"":6,""src"":3,""loc"":8},{""cat"":17,""src"":16,""loc"":7}]","6","26,26,26,6,6,17,17,17,6,4,0,17,0,5,14,9,16,3,0,1,2,3,4,5,6,7,8,0,1,2,5,4,3,6,8,7",NA
"1275","sort_feedback","32","html-keyboard-response","147","1211926","0.0-3.0-90.0","2","2020-1-7 23:5:35","OTTER",NA,NA,NA,NA,NA,NA,NA,NA,NA,NA,NA,NA,NA,NA
"19921","setup3",NA,"animation","148","1231848","0.0-3.0-91.0","2","2020-1-7 23:5:35","OTTER",NA,NA,"[{""cat"":15,""src"":6,""loc"":1},{""cat"":22,""src"":16,""loc"":3},{""cat"":20,""src"":8,""loc"":6},{""cat"":15,""src"":9,""loc"":0},{""cat"":22,""src"":15,""loc"":5},{""cat"":20,""src"":19,""loc"":8},{""cat"":15,""src"":11,""loc"":2},{""cat"":20,""src"":3,""loc"":7},{""cat"":22,""src"":1,""loc"":4}]","3","1104,1102,1102,1101,1102,1101,1103,1103,1102,10001",NA,NA,NA,NA,NA,NA,NA,NA,NA
"739","flanker_instructions","39","html-keyboard-response","149","1232591","0.0-3.0-92.0","2","2020-1-7 23:5:35","OTTER",NA,NA,NA,NA,NA,NA,NA,NA,NA,NA,NA,NA,NA,NA
"730","flanker_test","37","image-keyboard-response","150","1234326","0.0-3.0-93.0-0.0","2","2020-1-7 23:5:35","OTTER",NA,NA,NA,NA,NA,"incongruent","left","TRUE",NA,NA,NA,NA,NA,NA
"451","flanker_test","37","image-keyboard-response","151","1235721","0.0-3.0-93.0-0.1","2","2020-1-7 23:5:35","OTTER",NA,NA,NA,NA,NA,"congruent","left","TRUE",NA,NA,NA,NA,NA,NA
"662","flanker_test","39","image-keyboard-response","152","1236894","0.0-3.0-93.0-0.2","2","2020-1-7 23:5:35","OTTER",NA,NA,NA,NA,NA,"incongruent","right","TRUE",NA,NA,NA,NA,NA,NA
"445","flanker_test","39","image-keyboard-response","153","1237688","0.0-3.0-93.0-0.3","2","2020-1-7 23:5:35","OTTER",NA,NA,NA,NA,NA,"congruent","right","TRUE",NA,NA,NA,NA,NA,NA
"30887","sort_trial",NA,"free-sort","154","1269223","0.0-3.0-94.0","2","2020-1-7 23:5:35","OTTER",NA,NA,NA,NA,NA,NA,NA,NA,"[{""cat"":15,""src"":6,""x"":58,""y"":67},{""cat"":22,""src"":16,""x"":1,""y"":193},{""cat"":20,""src"":8,""x"":45,""y"":422},{""cat"":15,""src"":9,""x"":79,""y"":306},{""cat"":22,""src"":15,""x"":82,""y"":485},{""cat"":20,""src"":19,""x"":26,""y"":360},{""cat"":15,""src"":11,""x"":76,""y"":28},{""cat"":20,""src"":3,""x"":52,""y"":133},{""cat"":22,""src"":1,""x"":33,""y"":256}]","[{""cat"":""22"",""src"":""15"",""x"":0,""y"":0},{""cat"":""22"",""src"":""16"",""x"":0,""y"":0},{""cat"":""22"",""src"":""1"",""x"":0,""y"":0},{""cat"":""15"",""src"":""11"",""x"":0,""y"":0},{""cat"":""15"",""src"":""6"",""x"":0,""y"":0},{""cat"":""20"",""src"":""3"",""x"":0,""y"":0},{""cat"":""15"",""src"":""9"",""x"":0,""y"":0},{""cat"":""20"",""src"":""19"",""x"":0,""y"":0},{""cat"":""20"",""src"":""8"",""x"":0,""y"":0}]","[{""cat"":22,""src"":15,""loc"":5},{""cat"":22,""src"":16,""loc"":3},{""cat"":22,""src"":1,""loc"":4},{""cat"":15,""src"":11,""loc"":2},{""cat"":15,""src"":6,""loc"":1},{""cat"":20,""src"":3,""loc"":0},{""cat"":15,""src"":9,""loc"":6},{""cat"":20,""src"":19,""loc"":8},{""cat"":20,""src"":8,""loc"":7}]","6","20,15,15,22,22,22,15,20,20,3,6,11,16,1,15,9,8,19,0,1,2,3,4,5,6,7,8,5,4,3,1,2,0,6,8,7",NA
"1527","sort_feedback","32","html-keyboard-response","155","1270753","0.0-3.0-95.0","2","2020-1-7 23:5:35","OTTER",NA,NA,NA,NA,NA,NA,NA,NA,NA,NA,NA,NA,NA,NA
"19925","setup2",NA,"animation","156","1290679","0.0-3.0-96.0","2","2020-1-7 23:5:35","OTTER",NA,NA,"[{""cat"":16,""src"":18,""loc"":7},{""cat"":23,""src"":8,""loc"":8},{""cat"":33,""src"":12,""loc"":6},{""cat"":23,""src"":3,""loc"":4},{""cat"":16,""src"":5,""loc"":3},{""cat"":33,""src"":13,""loc"":5},{""cat"":23,""src"":5,""loc"":0},{""cat"":16,""src"":17,""loc"":1},{""cat"":33,""src"":11,""loc"":2}]","2","1110,1101,1102,1103,1101,1102,1101,1102,1102,10000",NA,NA,NA,NA,NA,NA,NA,NA,NA
"796","flanker_instructions","39","html-keyboard-response","157","1291479","0.0-3.0-97.0","2","2020-1-7 23:5:35","OTTER",NA,NA,NA,NA,NA,NA,NA,NA,NA,NA,NA,NA,NA,NA
"567","flanker_test","37","image-keyboard-response","158","1293050","0.0-3.0-98.0-0.0","2","2020-1-7 23:5:35","OTTER",NA,NA,NA,NA,NA,"congruent","left","TRUE",NA,NA,NA,NA,NA,NA
"616","flanker_test","37","image-keyboard-response","159","1294065","0.0-3.0-98.0-0.1","2","2020-1-7 23:5:35","OTTER",NA,NA,NA,NA,NA,"incongruent","left","TRUE",NA,NA,NA,NA,NA,NA
"622","flanker_test","39","image-keyboard-response","160","1295853","0.0-3.0-98.0-0.2","2","2020-1-7 23:5:35","OTTER",NA,NA,NA,NA,NA,"incongruent","right","TRUE",NA,NA,NA,NA,NA,NA
"421","flanker_test","39","image-keyboard-response","161","1297145","0.0-3.0-98.0-0.3","2","2020-1-7 23:5:35","OTTER",NA,NA,NA,NA,NA,"congruent","right","TRUE",NA,NA,NA,NA,NA,NA
"38531","sort_trial",NA,"free-sort","162","1336112","0.0-3.0-99.0","2","2020-1-7 23:5:35","OTTER",NA,NA,NA,NA,NA,NA,NA,NA,"[{""cat"":16,""src"":18,""x"":65,""y"":19},{""cat"":23,""src"":8,""x"":26,""y"":387},{""cat"":33,""src"":12,""x"":24,""y"":322},{""cat"":23,""src"":3,""x"":20,""y"":242},{""cat"":16,""src"":5,""x"":45,""y"":64},{""cat"":33,""src"":13,""x"":7,""y"":136},{""cat"":23,""src"":5,""x"":77,""y"":197},{""cat"":16,""src"":17,""x"":9,""y"":428},{""cat"":33,""src"":11,""x"":51,""y"":502}]","[{""cat"":""33"",""src"":""13"",""x"":0,""y"":0},{""cat"":""16"",""src"":""5"",""x"":0,""y"":0},{""cat"":""23"",""src"":""5"",""x"":0,""y"":0},{""cat"":""33"",""src"":""11"",""x"":0,""y"":0},{""cat"":""16"",""src"":""18"",""x"":0,""y"":0},{""cat"":""23"",""src"":""3"",""x"":0,""y"":0},{""cat"":""33"",""src"":""12"",""x"":0,""y"":0},{""cat"":""23"",""src"":""8"",""x"":0,""y"":0},{""cat"":""16"",""src"":""17"",""x"":0,""y"":0}]","[{""cat"":33,""src"":13,""loc"":5},{""cat"":16,""src"":5,""loc"":4},{""cat"":23,""src"":5,""loc"":3},{""cat"":33,""src"":11,""loc"":2},{""cat"":16,""src"":18,""loc"":1},{""cat"":23,""src"":3,""loc"":0},{""cat"":33,""src"":12,""loc"":6},{""cat"":23,""src"":8,""loc"":8},{""cat"":16,""src"":17,""loc"":7}]","4","23,16,33,23,16,33,33,16,23,3,18,11,5,5,13,12,17,8,0,1,2,3,4,5,6,7,8,5,4,3,2,1,0,6,8,7",NA
"1471","sort_feedback","32","html-keyboard-response","163","1337587","0.0-3.0-100.0","2","2020-1-7 23:5:35","OTTER",NA,NA,NA,NA,NA,NA,NA,NA,NA,NA,NA,NA,NA,NA
NA,"breakStart",NA,"html-keyboard-response","164","1367589","0.0-4.0-0.0","2","2020-1-7 23:5:35","OTTER",NA,NA,NA,NA,NA,NA,NA,NA,NA,NA,NA,NA,NA,NA
"3241","breakEnd",NA,"html-button-response","165","1370836","0.0-4.0-1.0","2","2020-1-7 23:5:35","OTTER","0",NA,NA,NA,NA,NA,NA,NA,NA,NA,NA,NA,NA,NA
"19920","setup2",NA,"animation","166","1390758","0.0-5.0-0.0","2","2020-1-7 23:5:35","OTTER",NA,NA,"[{""cat"":27,""src"":10,""loc"":1},{""cat"":7,""src"":7,""loc"":2},{""cat"":0,""src"":19,""loc"":0},{""cat"":7,""src"":2,""loc"":6},{""cat"":0,""src"":16,""loc"":8},{""cat"":27,""src"":8,""loc"":7},{""cat"":0,""src"":17,""loc"":3},{""cat"":27,""src"":0,""loc"":5},{""cat"":7,""src"":8,""loc"":4}]","2","1105,1101,1102,1101,1102,1102,1103,1101,1102,10000",NA,NA,NA,NA,NA,NA,NA,NA,NA
"2805","flanker_instructions","39","html-keyboard-response","167","1393566","0.0-5.0-1.0","2","2020-1-7 23:5:35","OTTER",NA,NA,NA,NA,NA,NA,NA,NA,NA,NA,NA,NA,NA,NA
NA,"flanker_test",NA,"image-keyboard-response","168","1395471","0.0-5.0-2.0-0.0","2","2020-1-7 23:5:35","OTTER",NA,NA,NA,NA,NA,"incongruent","left","FALSE",NA,NA,NA,NA,NA,NA
"498","flanker_test","39","image-keyboard-response","169","1397091","0.0-5.0-2.0-0.1","2","2020-1-7 23:5:35","OTTER",NA,NA,NA,NA,NA,"congruent","right","TRUE",NA,NA,NA,NA,NA,NA
"664","flanker_test","39","image-keyboard-response","170","1398762","0.0-5.0-2.0-0.2","2","2020-1-7 23:5:35","OTTER",NA,NA,NA,NA,NA,"incongruent","right","TRUE",NA,NA,NA,NA,NA,NA
"433","flanker_test","37","image-keyboard-response","171","1400179","0.0-5.0-2.0-0.3","2","2020-1-7 23:5:35","OTTER",NA,NA,NA,NA,NA,"congruent","left","TRUE",NA,NA,NA,NA,NA,NA
"36462","sort_trial",NA,"free-sort","172","1437044","0.0-5.0-3.0","2","2020-1-7 23:5:35","OTTER",NA,NA,NA,NA,NA,NA,NA,NA,"[{""cat"":27,""src"":10,""x"":82,""y"":448},{""cat"":7,""src"":7,""x"":71,""y"":385},{""cat"":0,""src"":19,""x"":69,""y"":258},{""cat"":7,""src"":2,""x"":32,""y"":77},{""cat"":0,""src"":16,""x"":75,""y"":14},{""cat"":27,""src"":8,""x"":30,""y"":182},{""cat"":0,""src"":17,""x"":62,""y"":321},{""cat"":27,""src"":0,""x"":33,""y"":507},{""cat"":7,""src"":8,""x"":43,""y"":148}]","[{""cat"":""27"",""src"":""0"",""x"":0,""y"":0},{""cat"":""7"",""src"":""8"",""x"":0,""y"":0},{""cat"":""7"",""src"":""2"",""x"":0,""y"":0},{""cat"":""0"",""src"":""16"",""x"":0,""y"":0},{""cat"":""27"",""src"":""8"",""x"":0,""y"":0},{""cat"":""0"",""src"":""19"",""x"":0,""y"":0},{""cat"":""0"",""src"":""17"",""x"":0,""y"":0},{""cat"":""7"",""src"":""7"",""x"":0,""y"":0},{""cat"":""27"",""src"":""10"",""x"":0,""y"":0}]","[{""cat"":27,""src"":0,""loc"":5},{""cat"":7,""src"":8,""loc"":4},{""cat"":7,""src"":2,""loc"":3},{""cat"":0,""src"":16,""loc"":1},{""cat"":27,""src"":8,""loc"":0},{""cat"":0,""src"":19,""loc"":2},{""cat"":0,""src"":17,""loc"":6},{""cat"":7,""src"":7,""loc"":8},{""cat"":27,""src"":10,""loc"":7}]","2","27,0,0,7,7,27,0,27,7,8,16,19,2,8,0,17,10,7,0,1,2,3,4,5,6,7,8,4,3,5,2,1,0,6,8,7",NA
"1180","sort_feedback","32","html-keyboard-response","173","1438228","0.0-5.0-4.0","2","2020-1-7 23:5:35","OTTER",NA,NA,NA,NA,NA,NA,NA,NA,NA,NA,NA,NA,NA,NA
"19923","setup1",NA,"animation","174","1458152","0.0-5.0-5.0","2","2020-1-7 23:5:35","OTTER",NA,NA,"[{""cat"":14,""src"":0,""loc"":0},{""cat"":14,""src"":14,""loc"":1},{""cat"":14,""src"":7,""loc"":2},{""cat"":6,""src"":6,""loc"":5},{""cat"":6,""src"":4,""loc"":4},{""cat"":6,""src"":7,""loc"":3},{""cat"":10,""src"":8,""loc"":8},{""cat"":10,""src"":15,""loc"":7},{""cat"":10,""src"":10,""loc"":6}]","1","1106,1102,1101,1101,1102,1101,1102,1103,1104,10000",NA,NA,NA,NA,NA,NA,NA,NA,NA
"2499","flanker_instructions","39","html-keyboard-response","175","1460655","0.0-5.0-6.0","2","2020-1-7 23:5:35","OTTER",NA,NA,NA,NA,NA,NA,NA,NA,NA,NA,NA,NA,NA,NA
NA,"flanker_test",NA,"image-keyboard-response","176","1462558","0.0-5.0-7.0-0.0","2","2020-1-7 23:5:35","OTTER",NA,NA,NA,NA,NA,"incongruent","right","FALSE",NA,NA,NA,NA,NA,NA
NA,"flanker_test",NA,"image-keyboard-response","177","1464209","0.0-5.0-7.0-0.1","2","2020-1-7 23:5:35","OTTER",NA,NA,NA,NA,NA,"incongruent","left","FALSE",NA,NA,NA,NA,NA,NA
"468","flanker_test","37","image-keyboard-response","178","1465443","0.0-5.0-7.0-0.2","2","2020-1-7 23:5:35","OTTER",NA,NA,NA,NA,NA,"congruent","left","TRUE",NA,NA,NA,NA,NA,NA
"592","flanker_test","39","image-keyboard-response","179","1467189","0.0-5.0-7.0-0.3","2","2020-1-7 23:5:35","OTTER",NA,NA,NA,NA,NA,"congruent","right","TRUE",NA,NA,NA,NA,NA,NA
"30503","sort_trial",NA,"free-sort","180","1498591","0.0-5.0-8.0","2","2020-1-7 23:5:35","OTTER",NA,NA,NA,NA,NA,NA,NA,NA,"[{""cat"":14,""src"":0,""x"":67,""y"":76},{""cat"":14,""src"":14,""x"":54,""y"":250},{""cat"":14,""src"":7,""x"":55,""y"":489},{""cat"":6,""src"":6,""x"":33,""y"":184},{""cat"":6,""src"":4,""x"":22,""y"":140},{""cat"":6,""src"":7,""x"":69,""y"":23},{""cat"":10,""src"":8,""x"":56,""y"":437},{""cat"":10,""src"":15,""x"":27,""y"":361},{""cat"":10,""src"":10,""x"":8,""y"":300}]","[{""cat"":""6"",""src"":""6"",""x"":0,""y"":0},{""cat"":""6"",""src"":""4"",""x"":0,""y"":0},{""cat"":""6"",""src"":""7"",""x"":0,""y"":0},{""cat"":""14"",""src"":""0"",""x"":0,""y"":0},{""cat"":""14"",""src"":""14"",""x"":0,""y"":0},{""cat"":""14"",""src"":""7"",""x"":0,""y"":0},{""cat"":""10"",""src"":""10"",""x"":0,""y"":0},{""cat"":""10"",""src"":""15"",""x"":0,""y"":0},{""cat"":""10"",""src"":""8"",""x"":0,""y"":0}]","[{""cat"":6,""src"":6,""loc"":5},{""cat"":6,""src"":4,""loc"":4},{""cat"":6,""src"":7,""loc"":3},{""cat"":14,""src"":0,""loc"":1},{""cat"":14,""src"":14,""loc"":0},{""cat"":14,""src"":7,""loc"":2},{""cat"":10,""src"":10,""loc"":6},{""cat"":10,""src"":15,""loc"":7},{""cat"":10,""src"":8,""loc"":8}]","7","14,14,14,6,6,6,10,10,10,14,0,7,7,4,6,10,15,8,0,1,2,3,4,5,6,7,8,4,3,5,2,1,0,6,7,8",NA
"3704","sort_feedback","32","html-keyboard-response","181","1502298","0.0-5.0-9.0","2","2020-1-7 23:5:35","OTTER",NA,NA,NA,NA,NA,NA,NA,NA,NA,NA,NA,NA,NA,NA
"19926","setup4",NA,"animation","182","1522226","0.0-5.0-10.0","2","2020-1-7 23:5:35","OTTER",NA,NA,"[{""cat"":1,""src"":4,""loc"":5},{""cat"":1,""src"":9,""loc"":0},{""cat"":1,""src"":2,""loc"":8},{""cat"":20,""src"":1,""loc"":1},{""cat"":20,""src"":3,""loc"":7},{""cat"":20,""src"":16,""loc"":3},{""cat"":22,""src"":5,""loc"":6},{""cat"":22,""src"":1,""loc"":2},{""cat"":22,""src"":8,""loc"":4}]","4","1104,1103,1102,1102,1103,1103,1102,1103,1103,10001",NA,NA,NA,NA,NA,NA,NA,NA,NA
"789","flanker_instructions","39","html-keyboard-response","183","1523018","0.0-5.0-11.0","2","2020-1-7 23:5:35","OTTER",NA,NA,NA,NA,NA,NA,NA,NA,NA,NA,NA,NA,NA,NA
"682","flanker_test","39","image-keyboard-response","184","1524703","0.0-5.0-12.0-0.0","2","2020-1-7 23:5:35","OTTER",NA,NA,NA,NA,NA,"congruent","right","TRUE",NA,NA,NA,NA,NA,NA
"435","flanker_test","37","image-keyboard-response","185","1525501","0.0-5.0-12.0-0.1","2","2020-1-7 23:5:35","OTTER",NA,NA,NA,NA,NA,"incongruent","left","TRUE",NA,NA,NA,NA,NA,NA
"567","flanker_test","39","image-keyboard-response","186","1526914","0.0-5.0-12.0-0.2","2","2020-1-7 23:5:35","OTTER",NA,NA,NA,NA,NA,"incongruent","right","TRUE",NA,NA,NA,NA,NA,NA
"439","flanker_test","37","image-keyboard-response","187","1528295","0.0-5.0-12.0-0.3","2","2020-1-7 23:5:35","OTTER",NA,NA,NA,NA,NA,"congruent","left","TRUE",NA,NA,NA,NA,NA,NA
"39175","sort_trial",NA,"free-sort","188","1568015","0.0-5.0-13.0","2","2020-1-7 23:5:35","OTTER",NA,NA,NA,NA,NA,NA,NA,NA,"[{""cat"":1,""src"":4,""x"":41,""y"":88},{""cat"":1,""src"":9,""x"":25,""y"":260},{""cat"":1,""src"":2,""x"":32,""y"":441},{""cat"":20,""src"":1,""x"":36,""y"":131},{""cat"":20,""src"":3,""x"":7,""y"":328},{""cat"":20,""src"":16,""x"":27,""y"":9},{""cat"":22,""src"":5,""x"":71,""y"":500},{""cat"":22,""src"":1,""x"":8,""y"":202},{""cat"":22,""src"":8,""x"":44,""y"":366}]","[{""cat"":""1"",""src"":""4"",""x"":0,""y"":0},{""cat"":""22"",""src"":""8"",""x"":0,""y"":0},{""cat"":""20"",""src"":""16"",""x"":0,""y"":0},{""cat"":""20"",""src"":""1"",""x"":0,""y"":0},{""cat"":""22"",""src"":""1"",""x"":255,""y"":114},{""cat"":""22"",""src"":""1"",""x"":0,""y"":0},{""cat"":""1"",""src"":""9"",""x"":0,""y"":0},{""cat"":""20"",""src"":""3"",""x"":0,""y"":0},{""cat"":""1"",""src"":""2"",""x"":0,""y"":0},{""cat"":""22"",""src"":""5"",""x"":0,""y"":0}]","[{""cat"":1,""src"":4,""loc"":5},{""cat"":22,""src"":8,""loc"":4},{""cat"":20,""src"":16,""loc"":3},{""cat"":20,""src"":1,""loc"":1},{""cat"":22,""src"":1,""loc"":0},{""cat"":1,""src"":9,""loc"":2},{""cat"":20,""src"":3,""loc"":6},{""cat"":1,""src"":2,""loc"":7},{""cat"":22,""src"":5,""loc"":8}]","4","22,20,1,20,22,1,20,1,22,1,1,9,16,8,4,3,2,5,0,1,2,3,4,5,6,7,8,4,3,5,2,1,0,6,7,8",NA
"1279","sort_feedback","32","html-keyboard-response","189","1569299","0.0-5.0-14.0","2","2020-1-7 23:5:35","OTTER",NA,NA,NA,NA,NA,NA,NA,NA,NA,NA,NA,NA,NA,NA
"19923","setup3",NA,"animation","190","1589223","0.0-5.0-15.0","2","2020-1-7 23:5:35","OTTER",NA,NA,"[{""cat"":8,""src"":8,""loc"":7},{""cat"":28,""src"":14,""loc"":5},{""cat"":10,""src"":11,""loc"":0},{""cat"":10,""src"":18,""loc"":1},{""cat"":28,""src"":10,""loc"":3},{""cat"":8,""src"":10,""loc"":6},{""cat"":28,""src"":12,""loc"":4},{""cat"":10,""src"":7,""loc"":2},{""cat"":8,""src"":0,""loc"":8}]","3","1103,1102,1102,1102,1102,1103,1102,1103,1103,10001",NA,NA,NA,NA,NA,NA,NA,NA,NA
"848","flanker_instructions","39","html-keyboard-response","191","1590077","0.0-5.0-16.0","2","2020-1-7 23:5:35","OTTER",NA,NA,NA,NA,NA,NA,NA,NA,NA,NA,NA,NA,NA,NA
"432","flanker_test","39","image-keyboard-response","192","1591513","0.0-5.0-17.0-0.0","2","2020-1-7 23:5:35","OTTER",NA,NA,NA,NA,NA,"congruent","right","TRUE",NA,NA,NA,NA,NA,NA
"442","flanker_test","37","image-keyboard-response","193","1592900","0.0-5.0-17.0-0.1","2","2020-1-7 23:5:35","OTTER",NA,NA,NA,NA,NA,"congruent","left","TRUE",NA,NA,NA,NA,NA,NA
"639","flanker_test","37","image-keyboard-response","194","1594665","0.0-5.0-17.0-0.2","2","2020-1-7 23:5:35","OTTER",NA,NA,NA,NA,NA,"incongruent","left","TRUE",NA,NA,NA,NA,NA,NA
"585","flanker_test","39","image-keyboard-response","195","1595691","0.0-5.0-17.0-0.3","2","2020-1-7 23:5:35","OTTER",NA,NA,NA,NA,NA,"incongruent","right","TRUE",NA,NA,NA,NA,NA,NA
"32944","sort_trial",NA,"free-sort","196","1629220","0.0-5.0-18.0","2","2020-1-7 23:5:35","OTTER",NA,NA,NA,NA,NA,NA,NA,NA,"[{""cat"":8,""src"":8,""x"":15,""y"":500},{""cat"":28,""src"":14,""x"":20,""y"":359},{""cat"":10,""src"":11,""x"":59,""y"":250},{""cat"":10,""src"":18,""x"":53,""y"":143},{""cat"":28,""src"":10,""x"":13,""y"":314},{""cat"":8,""src"":10,""x"":82,""y"":14},{""cat"":28,""src"":12,""x"":26,""y"":70},{""cat"":10,""src"":7,""x"":51,""y"":444},{""cat"":8,""src"":0,""x"":6,""y"":187}]","[{""cat"":""28"",""src"":""12"",""x"":0,""y"":0},{""cat"":""28"",""src"":""14"",""x"":0,""y"":0},{""cat"":""28"",""src"":""10"",""x"":0,""y"":0},{""cat"":""10"",""src"":""18"",""x"":0,""y"":0},{""cat"":""8"",""src"":""10"",""x"":0,""y"":0},{""cat"":""10"",""src"":""7"",""x"":0,""y"":0},{""cat"":""8"",""src"":""0"",""x"":0,""y"":0},{""cat"":""10"",""src"":""11"",""x"":0,""y"":0},{""cat"":""8"",""src"":""8"",""x"":0,""y"":0}]","[{""cat"":28,""src"":12,""loc"":4},{""cat"":28,""src"":14,""loc"":5},{""cat"":28,""src"":10,""loc"":3},{""cat"":10,""src"":18,""loc"":1},{""cat"":8,""src"":10,""loc"":7},{""cat"":10,""src"":7,""loc"":0},{""cat"":8,""src"":0,""loc"":2},{""cat"":10,""src"":11,""loc"":6},{""cat"":8,""src"":8,""loc"":8}]","4","10,10,8,28,28,28,10,8,8,7,18,0,10,12,14,11,10,8,0,1,2,3,4,5,6,7,8,5,3,6,2,0,1,7,4,8",NA
"789","sort_feedback","32","html-keyboard-response","197","1630013","0.0-5.0-19.0","2","2020-1-7 23:5:35","OTTER",NA,NA,NA,NA,NA,NA,NA,NA,NA,NA,NA,NA,NA,NA
"19925","setup5",NA,"animation","198","1649939","0.0-5.0-20.0","2","2020-1-7 23:5:35","OTTER",NA,NA,"[{""cat"":15,""src"":17,""loc"":0},{""cat"":19,""src"":18,""loc"":8},{""cat"":32,""src"":10,""loc"":4},{""cat"":15,""src"":10,""loc"":3},{""cat"":32,""src"":15,""loc"":6},{""cat"":19,""src"":16,""loc"":2},{""cat"":32,""src"":0,""loc"":1},{""cat"":19,""src"":6,""loc"":5},{""cat"":15,""src"":1,""loc"":7}]","5","1105,1103,1102,1102,1102,1102,1102,1104,1102,10001",NA,NA,NA,NA,NA,NA,NA,NA,NA
"1065","flanker_instructions","39","html-keyboard-response","199","1651009","0.0-5.0-21.0","2","2020-1-7 23:5:35","OTTER",NA,NA,NA,NA,NA,NA,NA,NA,NA,NA,NA,NA,NA,NA
"259","flanker_test","39","image-keyboard-response","200","1652273","0.0-5.0-22.0-0.0","2","2020-1-7 23:5:35","OTTER",NA,NA,NA,NA,NA,"congruent","right","TRUE",NA,NA,NA,NA,NA,NA
"554","flanker_test","37","image-keyboard-response","201","1653777","0.0-5.0-22.0-0.1","2","2020-1-7 23:5:35","OTTER",NA,NA,NA,NA,NA,"incongruent","left","TRUE",NA,NA,NA,NA,NA,NA
"468","flanker_test","37","image-keyboard-response","202","1655283","0.0-5.0-22.0-0.2","2","2020-1-7 23:5:35","OTTER",NA,NA,NA,NA,NA,"incongruent","right","FALSE",NA,NA,NA,NA,NA,NA
"394","flanker_test","37","image-keyboard-response","203","1656696","0.0-5.0-22.0-0.3","2","2020-1-7 23:5:35","OTTER",NA,NA,NA,NA,NA,"congruent","left","TRUE",NA,NA,NA,NA,NA,NA
"31212","sort_trial",NA,"free-sort","204","1688387","0.0-5.0-23.0","2","2020-1-7 23:5:35","OTTER",NA,NA,NA,NA,NA,NA,NA,NA,"[{""cat"":15,""src"":17,""x"":33,""y"":317},{""cat"":19,""src"":18,""x"":68,""y"":85},{""cat"":32,""src"":10,""x"":65,""y"":432},{""cat"":15,""src"":10,""x"":10,""y"":128},{""cat"":32,""src"":15,""x"":45,""y"":26},{""cat"":19,""src"":16,""x"":77,""y"":260},{""cat"":32,""src"":0,""x"":16,""y"":492},{""cat"":19,""src"":6,""x"":19,""y"":198},{""cat"":15,""src"":1,""x"":40,""y"":376}]","[{""cat"":""15"",""src"":""10"",""x"":0,""y"":0},{""cat"":""32"",""src"":""0"",""x"":0,""y"":0},{""cat"":""15"",""src"":""17"",""x"":0,""y"":0},{""cat"":""32"",""src"":""15"",""x"":0,""y"":0},{""cat"":""19"",""src"":""18"",""x"":0,""y"":0},{""cat"":""19"",""src"":""6"",""x"":0,""y"":0},{""cat"":""19"",""src"":""16"",""x"":0,""y"":0},{""cat"":""15"",""src"":""1"",""x"":0,""y"":0},{""cat"":""32"",""src"":""10"",""x"":0,""y"":0}]","[{""cat"":15,""src"":10,""loc"":0},{""cat"":32,""src"":0,""loc"":1},{""cat"":15,""src"":17,""loc"":2},{""cat"":32,""src"":15,""loc"":5},{""cat"":19,""src"":18,""loc"":4},{""cat"":19,""src"":6,""loc"":3},{""cat"":19,""src"":16,""loc"":6},{""cat"":15,""src"":1,""loc"":8},{""cat"":32,""src"":10,""loc"":7}]","1","15,32,15,19,19,32,19,32,15,10,0,17,6,18,15,16,10,1,0,1,2,3,4,5,6,7,8,0,1,2,5,4,3,6,8,7",NA
"1239","sort_feedback","32","html-keyboard-response","205","1689632","0.0-5.0-24.0","2","2020-1-7 23:5:35","OTTER",NA,NA,NA,NA,NA,NA,NA,NA,NA,NA,NA,NA,NA,NA
"19923","setup3",NA,"animation","206","1709557","0.0-5.0-25.0","2","2020-1-7 23:5:35","OTTER",NA,NA,"[{""cat"":18,""src"":19,""loc"":1},{""cat"":26,""src"":1,""loc"":7},{""cat"":1,""src"":2,""loc"":4},{""cat"":26,""src"":11,""loc"":8},{""cat"":1,""src"":8,""loc"":5},{""cat"":18,""src"":8,""loc"":0},{""cat"":1,""src"":0,""loc"":3},{""cat"":26,""src"":19,""loc"":6},{""cat"":18,""src"":4,""loc"":2}]","3","1103,1102,1102,1102,1102,1102,1103,1103,1103,10001",NA,NA,NA,NA,NA,NA,NA,NA,NA
"918","flanker_instructions","39","html-keyboard-response","207","1710478","0.0-5.0-26.0","2","2020-1-7 23:5:35","OTTER",NA,NA,NA,NA,NA,NA,NA,NA,NA,NA,NA,NA,NA,NA
"551","flanker_test","39","image-keyboard-response","208","1712033","0.0-5.0-27.0-0.0","2","2020-1-7 23:5:35","OTTER",NA,NA,NA,NA,NA,"congruent","right","TRUE",NA,NA,NA,NA,NA,NA
"437","flanker_test","37","image-keyboard-response","209","1712779","0.0-5.0-27.0-0.1","2","2020-1-7 23:5:35","OTTER",NA,NA,NA,NA,NA,"congruent","left","TRUE",NA,NA,NA,NA,NA,NA
"542","flanker_test","39","image-keyboard-response","210","1714101","0.0-5.0-27.0-0.2","2","2020-1-7 23:5:35","OTTER",NA,NA,NA,NA,NA,"incongruent","right","TRUE",NA,NA,NA,NA,NA,NA
"529","flanker_test","37","image-keyboard-response","211","1715148","0.0-5.0-27.0-0.3","2","2020-1-7 23:5:35","OTTER",NA,NA,NA,NA,NA,"incongruent","left","TRUE",NA,NA,NA,NA,NA,NA
"34761","sort_trial",NA,"free-sort","212","1750491","0.0-5.0-28.0","2","2020-1-7 23:5:35","OTTER",NA,NA,NA,NA,NA,NA,NA,NA,"[{""cat"":18,""src"":19,""x"":20,""y"":143},{""cat"":26,""src"":1,""x"":65,""y"":198},{""cat"":1,""src"":2,""x"":81,""y"":64},{""cat"":26,""src"":11,""x"":23,""y"":383},{""cat"":1,""src"":8,""x"":45,""y"":483},{""cat"":18,""src"":8,""x"":43,""y"":442},{""cat"":1,""src"":0,""x"":35,""y"":20},{""cat"":26,""src"":19,""x"":55,""y"":315},{""cat"":18,""src"":4,""x"":27,""y"":261}]","[{""cat"":""1"",""src"":""8"",""x"":0,""y"":0},{""cat"":""1"",""src"":""2"",""x"":0,""y"":0},{""cat"":""1"",""src"":""0"",""x"":0,""y"":0},{""cat"":""18"",""src"":""8"",""x"":0,""y"":0},{""cat"":""18"",""src"":""19"",""x"":0,""y"":0},{""cat"":""18"",""src"":""4"",""x"":0,""y"":0},{""cat"":""26"",""src"":""1"",""x"":0,""y"":0},{""cat"":""26"",""src"":""19"",""x"":0,""y"":0},{""cat"":""26"",""src"":""11"",""x"":0,""y"":0}]","[{""cat"":1,""src"":8,""loc"":5},{""cat"":1,""src"":2,""loc"":4},{""cat"":1,""src"":0,""loc"":3},{""cat"":18,""src"":8,""loc"":1},{""cat"":18,""src"":19,""loc"":2},{""cat"":18,""src"":4,""loc"":0},{""cat"":26,""src"":1,""loc"":7},{""cat"":26,""src"":19,""loc"":6},{""cat"":26,""src"":11,""loc"":8}]","6","18,18,18,1,1,1,26,26,26,4,8,19,0,2,8,19,1,11,0,1,2,3,4,5,6,7,8,5,3,4,2,1,0,7,6,8",NA
"1292","sort_feedback","32","html-keyboard-response","213","1751787","0.0-5.0-29.0","2","2020-1-7 23:5:35","OTTER",NA,NA,NA,NA,NA,NA,NA,NA,NA,NA,NA,NA,NA,NA
"19926","setup1",NA,"animation","214","1771714","0.0-5.0-30.0","2","2020-1-7 23:5:35","OTTER",NA,NA,"[{""cat"":32,""src"":6,""loc"":5},{""cat"":32,""src"":18,""loc"":3},{""cat"":32,""src"":14,""loc"":4},{""cat"":17,""src"":13,""loc"":8},{""cat"":17,""src"":16,""loc"":6},{""cat"":17,""src"":12,""loc"":7},{""cat"":30,""src"":0,""loc"":1},{""cat"":30,""src"":18,""loc"":0},{""cat"":30,""src"":8,""loc"":2}]","1","1105,1102,1102,1102,1102,1103,1102,1104,1103,10001",NA,NA,NA,NA,NA,NA,NA,NA,NA
"374","flanker_instructions","39","html-keyboard-response","215","1772092","0.0-5.0-31.0","2","2020-1-7 23:5:35","OTTER",NA,NA,NA,NA,NA,NA,NA,NA,NA,NA,NA,NA,NA,NA
"535","flanker_test","39","image-keyboard-response","216","1773632","0.0-5.0-32.0-0.0","2","2020-1-7 23:5:35","OTTER",NA,NA,NA,NA,NA,"congruent","right","TRUE",NA,NA,NA,NA,NA,NA
"631","flanker_test","39","image-keyboard-response","217","1775042","0.0-5.0-32.0-0.1","2","2020-1-7 23:5:35","OTTER",NA,NA,NA,NA,NA,"incongruent","right","TRUE",NA,NA,NA,NA,NA,NA
"360","flanker_test","37","image-keyboard-response","218","1776005","0.0-5.0-32.0-0.2","2","2020-1-7 23:5:35","OTTER",NA,NA,NA,NA,NA,"congruent","left","TRUE",NA,NA,NA,NA,NA,NA
"672","flanker_test","37","image-keyboard-response","219","1777078","0.0-5.0-32.0-0.3","2","2020-1-7 23:5:35","OTTER",NA,NA,NA,NA,NA,"incongruent","left","TRUE",NA,NA,NA,NA,NA,NA
"31997","sort_trial",NA,"free-sort","220","1809394","0.0-5.0-33.0","2","2020-1-7 23:5:35","OTTER",NA,NA,NA,NA,NA,NA,NA,NA,"[{""cat"":32,""src"":6,""x"":0,""y"":268},{""cat"":32,""src"":18,""x"":79,""y"":428},{""cat"":32,""src"":14,""x"":27,""y"":314},{""cat"":17,""src"":13,""x"":2,""y"":183},{""cat"":17,""src"":16,""x"":80,""y"":21},{""cat"":17,""src"":12,""x"":31,""y"":387},{""cat"":30,""src"":0,""x"":46,""y"":73},{""cat"":30,""src"":18,""x"":66,""y"":486},{""cat"":30,""src"":8,""x"":28,""y"":125}]","[{""cat"":""32"",""src"":""6"",""x"":0,""y"":0},{""cat"":""32"",""src"":""14"",""x"":0,""y"":0},{""cat"":""32"",""src"":""18"",""x"":0,""y"":0},{""cat"":""17"",""src"":""16"",""x"":0,""y"":0},{""cat"":""30"",""src"":""0"",""x"":0,""y"":0},{""cat"":""30"",""src"":""8"",""x"":0,""y"":0},{""cat"":""17"",""src"":""13"",""x"":0,""y"":0},{""cat"":""17"",""src"":""12"",""x"":0,""y"":0},{""cat"":""30"",""src"":""18"",""x"":516,""y"":307},{""cat"":""30"",""src"":""18"",""x"":0,""y"":0}]","[{""cat"":32,""src"":6,""loc"":5},{""cat"":32,""src"":14,""loc"":4},{""cat"":32,""src"":18,""loc"":3},{""cat"":17,""src"":16,""loc"":1},{""cat"":30,""src"":0,""loc"":0},{""cat"":30,""src"":8,""loc"":2},{""cat"":17,""src"":13,""loc"":6},{""cat"":17,""src"":12,""loc"":7},{""cat"":30,""src"":18,""loc"":8}]","5","30,17,30,32,32,32,17,17,30,0,16,8,18,14,6,13,12,18,0,1,2,3,4,5,6,7,8,4,3,5,2,1,0,6,7,8",NA
"919","sort_feedback","32","html-keyboard-response","221","1810317","0.0-5.0-34.0","2","2020-1-7 23:5:35","OTTER",NA,NA,NA,NA,NA,NA,NA,NA,NA,NA,NA,NA,NA,NA
"19928","setup5",NA,"animation","222","1830246","0.0-5.0-35.0","2","2020-1-7 23:5:35","OTTER",NA,NA,"[{""cat"":16,""src"":3,""loc"":4},{""cat"":8,""src"":0,""loc"":0},{""cat"":15,""src"":18,""loc"":7},{""cat"":15,""src"":14,""loc"":5},{""cat"":16,""src"":15,""loc"":2},{""cat"":8,""src"":17,""loc"":8},{""cat"":16,""src"":9,""loc"":6},{""cat"":15,""src"":4,""loc"":1},{""cat"":8,""src"":1,""loc"":3}]","5","1105,1102,1103,1103,1103,1102,1102,1104,1103,10001",NA,NA,NA,NA,NA,NA,NA,NA,NA
"486","flanker_instructions","39","html-keyboard-response","223","1830737","0.0-5.0-36.0","2","2020-1-7 23:5:35","OTTER",NA,NA,NA,NA,NA,NA,NA,NA,NA,NA,NA,NA,NA,NA
"502","flanker_test","37","image-keyboard-response","224","1832243","0.0-5.0-37.0-0.0","2","2020-1-7 23:5:35","OTTER",NA,NA,NA,NA,NA,"congruent","left","TRUE",NA,NA,NA,NA,NA,NA
"410","flanker_test","39","image-keyboard-response","225","1833278","0.0-5.0-37.0-0.1","2","2020-1-7 23:5:35","OTTER",NA,NA,NA,NA,NA,"incongruent","left","FALSE",NA,NA,NA,NA,NA,NA
"503","flanker_test","39","image-keyboard-response","226","1834595","0.0-5.0-37.0-0.2","2","2020-1-7 23:5:35","OTTER",NA,NA,NA,NA,NA,"incongruent","right","TRUE",NA,NA,NA,NA,NA,NA
"418","flanker_test","39","image-keyboard-response","227","1835473","0.0-5.0-37.0-0.3","2","2020-1-7 23:5:35","OTTER",NA,NA,NA,NA,NA,"congruent","right","TRUE",NA,NA,NA,NA,NA,NA
"27191","sort_trial",NA,"free-sort","228","1863440","0.0-5.0-38.0","2","2020-1-7 23:5:35","OTTER",NA,NA,NA,NA,NA,NA,NA,NA,"[{""cat"":16,""src"":3,""x"":30,""y"":63},{""cat"":8,""src"":0,""x"":56,""y"":363},{""cat"":15,""src"":18,""x"":20,""y"":506},{""cat"":15,""src"":14,""x"":44,""y"":254},{""cat"":16,""src"":15,""x"":61,""y"":190},{""cat"":8,""src"":17,""x"":37,""y"":134},{""cat"":16,""src"":9,""x"":35,""y"":329},{""cat"":15,""src"":4,""x"":38,""y"":422},{""cat"":8,""src"":1,""x"":15,""y"":17}]","[{""cat"":""15"",""src"":""14"",""x"":0,""y"":0},{""cat"":""16"",""src"":""3"",""x"":0,""y"":0},{""cat"":""15"",""src"":""18"",""x"":0,""y"":0},{""cat"":""8"",""src"":""1"",""x"":0,""y"":0},{""cat"":""8"",""src"":""17"",""x"":0,""y"":0},{""cat"":""16"",""src"":""15"",""x"":0,""y"":0},{""cat"":""16"",""src"":""9"",""x"":0,""y"":0},{""cat"":""8"",""src"":""0"",""x"":0,""y"":0},{""cat"":""15"",""src"":""4"",""x"":0,""y"":0}]","[{""cat"":15,""src"":14,""loc"":5},{""cat"":16,""src"":3,""loc"":4},{""cat"":15,""src"":18,""loc"":3},{""cat"":8,""src"":1,""loc"":1},{""cat"":8,""src"":17,""loc"":0},{""cat"":16,""src"":15,""loc"":2},{""cat"":16,""src"":9,""loc"":6},{""cat"":8,""src"":0,""loc"":8},{""cat"":15,""src"":4,""loc"":7}]","4","8,8,16,15,16,15,16,15,8,17,1,15,18,3,14,9,4,0,0,1,2,3,4,5,6,7,8,4,3,5,2,1,0,6,8,7",NA
"893","sort_feedback","32","html-keyboard-response","229","1864337","0.0-5.0-39.0","2","2020-1-7 23:5:35","OTTER",NA,NA,NA,NA,NA,NA,NA,NA,NA,NA,NA,NA,NA,NA
"19921","setup4",NA,"animation","230","1884260","0.0-5.0-40.0","2","2020-1-7 23:5:35","OTTER",NA,NA,"[{""cat"":7,""src"":1,""loc"":4},{""cat"":7,""src"":11,""loc"":2},{""cat"":7,""src"":12,""loc"":7},{""cat"":5,""src"":8,""loc"":0},{""cat"":5,""src"":14,""loc"":3},{""cat"":5,""src"":19,""loc"":6},{""cat"":24,""src"":3,""loc"":8},{""cat"":24,""src"":13,""loc"":1},{""cat"":24,""src"":5,""loc"":5}]","4","1103,1102,1101,1102,1102,1102,1103,1103,1102,10001",NA,NA,NA,NA,NA,NA,NA,NA,NA
"463","flanker_instructions","39","html-keyboard-response","231","1884727","0.0-5.0-41.0","2","2020-1-7 23:5:35","OTTER",NA,NA,NA,NA,NA,NA,NA,NA,NA,NA,NA,NA,NA,NA
"444","flanker_test","39","image-keyboard-response","232","1886176","0.0-5.0-42.0-0.0","2","2020-1-7 23:5:35","OTTER",NA,NA,NA,NA,NA,"incongruent","left","FALSE",NA,NA,NA,NA,NA,NA
"663","flanker_test","37","image-keyboard-response","233","1887258","0.0-5.0-42.0-0.1","2","2020-1-7 23:5:35","OTTER",NA,NA,NA,NA,NA,"congruent","left","TRUE",NA,NA,NA,NA,NA,NA
"486","flanker_test","39","image-keyboard-response","234","1888914","0.0-5.0-42.0-0.2","2","2020-1-7 23:5:35","OTTER",NA,NA,NA,NA,NA,"congruent","right","TRUE",NA,NA,NA,NA,NA,NA
"652","flanker_test","39","image-keyboard-response","235","1890760","0.0-5.0-42.0-0.3","2","2020-1-7 23:5:35","OTTER",NA,NA,NA,NA,NA,"incongruent","right","TRUE",NA,NA,NA,NA,NA,NA
"31448","sort_trial",NA,"free-sort","236","1922825","0.0-5.0-43.0","2","2020-1-7 23:5:35","OTTER",NA,NA,NA,NA,NA,NA,NA,NA,"[{""cat"":7,""src"":1,""x"":68,""y"":443},{""cat"":7,""src"":11,""x"":13,""y"":139},{""cat"":7,""src"":12,""x"":59,""y"":78},{""cat"":5,""src"":8,""x"":13,""y"":310},{""cat"":5,""src"":14,""x"":72,""y"":493},{""cat"":5,""src"":19,""x"":82,""y"":360},{""cat"":24,""src"":3,""x"":57,""y"":8},{""cat"":24,""src"":13,""x"":44,""y"":196},{""cat"":24,""src"":5,""x"":83,""y"":261}]","[{""cat"":""24"",""src"":""13"",""x"":0,""y"":0},{""cat"":""5"",""src"":""8"",""x"":0,""y"":0},{""cat"":""24"",""src"":""5"",""x"":0,""y"":0},{""cat"":""24"",""src"":""3"",""x"":0,""y"":0},{""cat"":""7"",""src"":""12"",""x"":0,""y"":0},{""cat"":""7"",""src"":""11"",""x"":0,""y"":0},{""cat"":""5"",""src"":""19"",""x"":0,""y"":0},{""cat"":""7"",""src"":""1"",""x"":0,""y"":0},{""cat"":""5"",""src"":""14"",""x"":0,""y"":0}]","[{""cat"":24,""src"":13,""loc"":1},{""cat"":5,""src"":8,""loc"":0},{""cat"":24,""src"":5,""loc"":2},{""cat"":24,""src"":3,""loc"":6},{""cat"":7,""src"":12,""loc"":8},{""cat"":7,""src"":11,""loc"":7},{""cat"":5,""src"":19,""loc"":5},{""cat"":7,""src"":1,""loc"":4},{""cat"":5,""src"":14,""loc"":3}]","4","5,24,24,5,7,5,24,7,7,8,13,5,14,1,19,3,11,12,0,1,2,3,4,5,6,7,8,1,0,2,8,7,6,3,5,4",NA
"1126","sort_feedback","32","html-keyboard-response","237","1923957","0.0-5.0-44.0","2","2020-1-7 23:5:35","OTTER",NA,NA,NA,NA,NA,NA,NA,NA,NA,NA,NA,NA,NA,NA
"19927","setup2",NA,"animation","238","1943885","0.0-5.0-45.0","2","2020-1-7 23:5:35","OTTER",NA,NA,"[{""cat"":2,""src"":14,""loc"":2},{""cat"":14,""src"":14,""loc"":0},{""cat"":12,""src"":3,""loc"":1},{""cat"":12,""src"":19,""loc"":4},{""cat"":2,""src"":17,""loc"":5},{""cat"":14,""src"":6,""loc"":3},{""cat"":2,""src"":13,""loc"":6},{""cat"":12,""src"":4,""loc"":7},{""cat"":14,""src"":16,""loc"":8}]","2","1104,1104,1101,1103,1102,1103,1102,1104,1103,10001",NA,NA,NA,NA,NA,NA,NA,NA,NA
"691","flanker_instructions","39","html-keyboard-response","239","1944581","0.0-5.0-46.0","2","2020-1-7 23:5:35","OTTER",NA,NA,NA,NA,NA,NA,NA,NA,NA,NA,NA,NA,NA,NA
"641","flanker_test","39","image-keyboard-response","240","1946225","0.0-5.0-47.0-0.0","2","2020-1-7 23:5:35","OTTER",NA,NA,NA,NA,NA,"congruent","right","TRUE",NA,NA,NA,NA,NA,NA
"467","flanker_test","37","image-keyboard-response","241","1947133","0.0-5.0-47.0-0.1","2","2020-1-7 23:5:35","OTTER",NA,NA,NA,NA,NA,"incongruent","left","TRUE",NA,NA,NA,NA,NA,NA
"450","flanker_test","37","image-keyboard-response","242","1948006","0.0-5.0-47.0-0.2","2","2020-1-7 23:5:35","OTTER",NA,NA,NA,NA,NA,"congruent","left","TRUE",NA,NA,NA,NA,NA,NA
"627","flanker_test","39","image-keyboard-response","243","1949582","0.0-5.0-47.0-0.3","2","2020-1-7 23:5:35","OTTER",NA,NA,NA,NA,NA,"incongruent","right","TRUE",NA,NA,NA,NA,NA,NA
"27537","sort_trial",NA,"free-sort","244","1977931","0.0-5.0-48.0","2","2020-1-7 23:5:35","OTTER",NA,NA,NA,NA,NA,NA,NA,NA,"[{""cat"":2,""src"":14,""x"":39,""y"":197},{""cat"":14,""src"":14,""x"":34,""y"":248},{""cat"":12,""src"":3,""x"":71,""y"":482},{""cat"":12,""src"":19,""x"":83,""y"":374},{""cat"":2,""src"":17,""x"":47,""y"":74},{""cat"":14,""src"":6,""x"":13,""y"":304},{""cat"":2,""src"":13,""x"":82,""y"":146},{""cat"":12,""src"":4,""x"":51,""y"":448},{""cat"":14,""src"":16,""x"":25,""y"":25}]","[{""cat"":""2"",""src"":""17"",""x"":0,""y"":0},{""cat"":""12"",""src"":""19"",""x"":0,""y"":0},{""cat"":""14"",""src"":""6"",""x"":0,""y"":0},{""cat"":""14"",""src"":""16"",""x"":0,""y"":0},{""cat"":""2"",""src"":""13"",""x"":0,""y"":0},{""cat"":""2"",""src"":""14"",""x"":0,""y"":0},{""cat"":""14"",""src"":""14"",""x"":0,""y"":0},{""cat"":""12"",""src"":""4"",""x"":0,""y"":0},{""cat"":""12"",""src"":""3"",""x"":0,""y"":0}]","[{""cat"":2,""src"":17,""loc"":5},{""cat"":12,""src"":19,""loc"":4},{""cat"":14,""src"":6,""loc"":3},{""cat"":14,""src"":16,""loc"":1},{""cat"":2,""src"":13,""loc"":0},{""cat"":2,""src"":14,""loc"":2},{""cat"":14,""src"":14,""loc"":6},{""cat"":12,""src"":4,""loc"":7},{""cat"":12,""src"":3,""loc"":8}]","5","2,14,2,14,12,2,14,12,12,13,16,14,6,19,17,14,4,3,0,1,2,3,4,5,6,7,8,4,3,5,2,1,0,6,7,8",NA
"1475","sort_feedback","32","html-keyboard-response","245","1979412","0.0-5.0-49.0","2","2020-1-7 23:5:35","OTTER",NA,NA,NA,NA,NA,NA,NA,NA,NA,NA,NA,NA,NA,NA
"2843","demographics",NA,"html-button-response","246","1982258","0.0-6.0-0.0","2","2020-1-7 23:5:35","OTTER","0",NA,NA,NA,NA,NA,NA,NA,NA,NA,NA,NA,NA,NA
"4720","workerID",NA,"survey-text","247","1986983","0.0-6.0-1.0","2","2020-1-7 23:5:35","OTTER",NA,NA,NA,NA,NA,NA,NA,NA,NA,NA,NA,NA,NA,"{""Q0"":""A5NHP0N1XC09K""}"
"17294","attn_check",NA,"survey-multi-choice","248","2004290","0.0-6.0-2.0","2","2020-1-7 23:5:35","OTTER",NA,NA,NA,NA,NA,NA,NA,NA,NA,NA,NA,NA,NA,"{""Q0"":""OTTER""}"
"4676","age",NA,"survey-text","249","2008979","0.0-6.0-3.0","2","2020-1-7 23:5:35","OTTER",NA,NA,NA,NA,NA,NA,NA,NA,NA,NA,NA,NA,NA,"{""Q0"":""54""}"
"2697","gender",NA,"survey-multi-choice","250","2011681","0.0-6.0-4.0","2","2020-1-7 23:5:35","OTTER",NA,NA,NA,NA,NA,NA,NA,NA,NA,NA,NA,NA,NA,"{""Q0"":""Male""}"
"2638","ethnic",NA,"survey-multi-choice","251","2014324","0.0-6.0-5.0","2","2020-1-7 23:5:35","OTTER",NA,NA,NA,NA,NA,NA,NA,NA,NA,NA,NA,NA,NA,"{""Q0"":""Not Hispanic or Latino""}"
"3017","race",NA,"survey-multi-select","252","2017351","0.0-6.0-6.0","2","2020-1-7 23:5:35","OTTER",NA,NA,NA,NA,NA,NA,NA,NA,NA,NA,NA,NA,NA,"{""Q0"":[""White""]}"
"4777","english",NA,"survey-multi-choice","253","2022133","0.0-6.0-7.0","2","2020-1-7 23:5:35","OTTER",NA,NA,NA,NA,NA,NA,NA,NA,NA,NA,NA,NA,NA,"{""Q0"":""Yes""}"
"4375","understand",NA,"survey-multi-choice","254","2026515","0.0-6.0-8.0","2","2020-1-7 23:5:35","OTTER",NA,NA,NA,NA,NA,NA,NA,NA,NA,NA,NA,NA,NA,"{""Q0"":""No""}"
"16823","strategies",NA,"survey-text","255","2043342","0.0-6.0-9.0","2","2020-1-7 23:5:35","OTTER",NA,NA,NA,NA,NA,NA,NA,NA,NA,NA,NA,NA,NA,"{""Q0"":""few words""}"
"2683","comments",NA,"survey-text","256","2046028","0.0-6.0-10.0","2","2020-1-7 23:5:35","OTTER",NA,NA,NA,NA,NA,NA,NA,NA,NA,NA,NA,NA,NA,"{""Q0"":""""}"
"3950","study_end",NA,"html-button-response","257","2049980","0.0-7.0","2","2020-1-7 23:5:35","OTTER","0",NA,NA,NA,NA,NA,NA,NA,NA,NA,NA,NA,NA,NA
