"rt","stimulus","key_press","trial_type","trial_index","time_elapsed","internal_node_id","session","startTime","attn_word","button_pressed","view_history","animation_sequence","condition","time_sequence","stim_type","direction","correct","init_locations","moves","final_locations","sort_correct","finalLocations","responses"
"1950","welcome","32","html-keyboard-response","0","1973","0.0-0.0","2","2020-1-7 20:40:28","FISH",NA,NA,NA,NA,NA,NA,NA,NA,NA,NA,NA,NA,NA,NA
"571237","consent",NA,"html-button-response","1","573217","0.0-1.0","2","2020-1-7 20:40:28","FISH","0",NA,NA,NA,NA,NA,NA,NA,NA,NA,NA,NA,NA,NA
"25368","instructions",NA,"instructions","2","598590","0.0-2.0","2","2020-1-7 20:40:28","FISH",NA,"[{""page_index"":0,""viewing_time"":14456},{""page_index"":1,""viewing_time"":3376},{""page_index"":2,""viewing_time"":2132},{""page_index"":3,""viewing_time"":985},{""page_index"":4,""viewing_time"":2529},{""page_index"":5,""viewing_time"":1888}]",NA,NA,NA,NA,NA,NA,NA,NA,NA,NA,NA,NA
"1225","finalInstructions",NA,"html-button-response","3","599821","0.0-3.0-0.0","2","2020-1-7 20:40:28","FISH","0",NA,NA,NA,NA,NA,NA,NA,NA,NA,NA,NA,NA,NA
"19931","setup3",NA,"animation","4","619756","0.0-3.0-1.0","2","2020-1-7 20:40:28","FISH",NA,NA,"[{""cat"":8,""src"":2,""loc"":0},{""cat"":18,""src"":13,""loc"":8},{""cat"":33,""src"":7,""loc"":3},{""cat"":18,""src"":15,""loc"":7},{""cat"":8,""src"":16,""loc"":1},{""cat"":33,""src"":11,""loc"":5},{""cat"":8,""src"":0,""loc"":2},{""cat"":18,""src"":12,""loc"":6},{""cat"":33,""src"":18,""loc"":4}]","3","1107,1102,1102,1104,1103,1102,1104,1102,1102,10002",NA,NA,NA,NA,NA,NA,NA,NA,NA
"761","flanker_instructions","39","html-keyboard-response","5","620522","0.0-3.0-2.0","2","2020-1-7 20:40:28","FISH",NA,NA,NA,NA,NA,NA,NA,NA,NA,NA,NA,NA,NA,NA
"444","flanker_test","39","image-keyboard-response","6","621973","0.0-3.0-3.0-0.0","2","2020-1-7 20:40:28","FISH",NA,NA,NA,NA,NA,"incongruent","left","FALSE",NA,NA,NA,NA,NA,NA
"541","flanker_test","39","image-keyboard-response","7","623143","0.0-3.0-3.0-0.1","2","2020-1-7 20:40:28","FISH",NA,NA,NA,NA,NA,"incongruent","right","TRUE",NA,NA,NA,NA,NA,NA
"375","flanker_test","37","image-keyboard-response","8","624326","0.0-3.0-3.0-0.2","2","2020-1-7 20:40:28","FISH",NA,NA,NA,NA,NA,"congruent","left","TRUE",NA,NA,NA,NA,NA,NA
"538","flanker_test","39","image-keyboard-response","9","626034","0.0-3.0-3.0-0.3","2","2020-1-7 20:40:28","FISH",NA,NA,NA,NA,NA,"congruent","right","TRUE",NA,NA,NA,NA,NA,NA
"47050","sort_trial",NA,"free-sort","10","673838","0.0-3.0-4.0","2","2020-1-7 20:40:28","FISH",NA,NA,NA,NA,NA,NA,NA,NA,"[{""cat"":8,""src"":2,""x"":25,""y"":84},{""cat"":18,""src"":13,""x"":12,""y"":4},{""cat"":33,""src"":7,""x"":41,""y"":252},{""cat"":18,""src"":15,""x"":55,""y"":381},{""cat"":8,""src"":16,""x"":83,""y"":128},{""cat"":33,""src"":11,""x"":38,""y"":432},{""cat"":8,""src"":0,""x"":58,""y"":483},{""cat"":18,""src"":12,""x"":56,""y"":321},{""cat"":33,""src"":18,""x"":7,""y"":183}]","[{""cat"":""18"",""src"":""12"",""x"":0,""y"":0},{""cat"":""18"",""src"":""15"",""x"":0,""y"":0},{""cat"":""8"",""src"":""16"",""x"":83,""y"":128},{""cat"":""18"",""src"":""13"",""x"":12,""y"":4},{""cat"":""18"",""src"":""13"",""x"":0,""y"":0},{""cat"":""33"",""src"":""7"",""x"":0,""y"":0},{""cat"":""33"",""src"":""18"",""x"":0,""y"":0},{""cat"":""8"",""src"":""0"",""x"":-12,""y"":195},{""cat"":""8"",""src"":""16"",""x"":0,""y"":0},{""cat"":""8"",""src"":""2"",""x"":0,""y"":0},{""cat"":""8"",""src"":""0"",""x"":0,""y"":0},{""cat"":""33"",""src"":""11"",""x"":0,""y"":0}]","[{""cat"":18,""src"":12,""loc"":2},{""cat"":18,""src"":15,""loc"":7},{""cat"":18,""src"":13,""loc"":8},{""cat"":33,""src"":7,""loc"":3},{""cat"":33,""src"":18,""loc"":4},{""cat"":8,""src"":16,""loc"":5},{""cat"":8,""src"":2,""loc"":0},{""cat"":8,""src"":0,""loc"":1},{""cat"":33,""src"":11,""loc"":6}]","5","8,8,18,33,33,8,33,18,18,2,0,12,7,18,16,11,15,13,0,1,2,3,4,5,6,7,8,6,7,0,3,4,5,8,1,2",NA
"6000","sort_feedback","74","html-keyboard-response","11","679907","0.0-3.0-5.0","2","2020-1-7 20:40:28","FISH",NA,NA,NA,NA,NA,NA,NA,NA,NA,NA,NA,NA,NA,NA
"19930","setup5",NA,"animation","12","699839","0.0-3.0-6.0","2","2020-1-7 20:40:28","FISH",NA,NA,"[{""cat"":18,""src"":3,""loc"":5},{""cat"":7,""src"":8,""loc"":0},{""cat"":24,""src"":3,""loc"":6},{""cat"":18,""src"":15,""loc"":2},{""cat"":24,""src"":4,""loc"":3},{""cat"":7,""src"":6,""loc"":7},{""cat"":18,""src"":5,""loc"":8},{""cat"":24,""src"":19,""loc"":1},{""cat"":7,""src"":7,""loc"":4}]","5","1105,1102,1102,1103,1103,1102,1103,1103,1105,10002",NA,NA,NA,NA,NA,NA,NA,NA,NA
"2348","flanker_instructions","39","html-keyboard-response","13","702190","0.0-3.0-7.0","2","2020-1-7 20:40:28","FISH",NA,NA,NA,NA,NA,NA,NA,NA,NA,NA,NA,NA,NA,NA
"523","flanker_test","37","image-keyboard-response","14","703717","0.0-3.0-8.0-0.0","2","2020-1-7 20:40:28","FISH",NA,NA,NA,NA,NA,"congruent","left","TRUE",NA,NA,NA,NA,NA,NA
NA,"flanker_test",NA,"image-keyboard-response","15","705291","0.0-3.0-8.0-0.1","2","2020-1-7 20:40:28","FISH",NA,NA,NA,NA,NA,"incongruent","right","FALSE",NA,NA,NA,NA,NA,NA
"540","flanker_test","37","image-keyboard-response","16","706678","0.0-3.0-8.0-0.2","2","2020-1-7 20:40:28","FISH",NA,NA,NA,NA,NA,"incongruent","left","TRUE",NA,NA,NA,NA,NA,NA
"475","flanker_test","39","image-keyboard-response","17","708161","0.0-3.0-8.0-0.3","2","2020-1-7 20:40:28","FISH",NA,NA,NA,NA,NA,"congruent","right","TRUE",NA,NA,NA,NA,NA,NA
"35132","sort_trial",NA,"free-sort","18","743841","0.0-3.0-9.0","2","2020-1-7 20:40:28","FISH",NA,NA,NA,NA,NA,NA,NA,NA,"[{""cat"":18,""src"":3,""x"":7,""y"":324},{""cat"":7,""src"":8,""x"":54,""y"":420},{""cat"":24,""src"":3,""x"":14,""y"":67},{""cat"":18,""src"":15,""x"":5,""y"":29},{""cat"":24,""src"":4,""x"":1,""y"":507},{""cat"":7,""src"":6,""x"":25,""y"":248},{""cat"":18,""src"":5,""x"":37,""y"":359},{""cat"":24,""src"":19,""x"":56,""y"":119},{""cat"":7,""src"":7,""x"":63,""y"":200}]","[{""cat"":""24"",""src"":""4"",""x"":372,""y"":171},{""cat"":""24"",""src"":""3"",""x"":0,""y"":0},{""cat"":""24"",""src"":""4"",""x"":0,""y"":0},{""cat"":""18"",""src"":""5"",""x"":0,""y"":0},{""cat"":""18"",""src"":""3"",""x"":0,""y"":0},{""cat"":""18"",""src"":""15"",""x"":5,""y"":29},{""cat"":""18"",""src"":""15"",""x"":0,""y"":0},{""cat"":""7"",""src"":""6"",""x"":0,""y"":0},{""cat"":""24"",""src"":""19"",""x"":0,""y"":0},{""cat"":""7"",""src"":""7"",""x"":0,""y"":0},{""cat"":""7"",""src"":""8"",""x"":0,""y"":0}]","[{""cat"":24,""src"":3,""loc"":0},{""cat"":24,""src"":4,""loc"":2},{""cat"":18,""src"":5,""loc"":3},{""cat"":18,""src"":3,""loc"":5},{""cat"":18,""src"":15,""loc"":4},{""cat"":7,""src"":6,""loc"":6},{""cat"":24,""src"":19,""loc"":1},{""cat"":7,""src"":7,""loc"":7},{""cat"":7,""src"":8,""loc"":8}]","2","24,24,24,18,18,18,7,7,7,3,19,4,5,15,3,6,7,8,0,1,2,3,4,5,6,7,8,0,6,1,2,4,3,5,7,8",NA
"1841","sort_feedback","74","html-keyboard-response","19","745686","0.0-3.0-10.0","2","2020-1-7 20:40:28","FISH",NA,NA,NA,NA,NA,NA,NA,NA,NA,NA,NA,NA,NA,NA
"19931","setup1",NA,"animation","20","765619","0.0-3.0-11.0","2","2020-1-7 20:40:28","FISH",NA,NA,"[{""cat"":19,""src"":19,""loc"":4},{""cat"":19,""src"":16,""loc"":3},{""cat"":19,""src"":15,""loc"":5},{""cat"":2,""src"":14,""loc"":8},{""cat"":2,""src"":18,""loc"":6},{""cat"":2,""src"":13,""loc"":7},{""cat"":24,""src"":12,""loc"":0},{""cat"":24,""src"":0,""loc"":2},{""cat"":24,""src"":13,""loc"":1}]","1","1105,1102,1102,1103,1102,1104,1101,1107,1103,10002",NA,NA,NA,NA,NA,NA,NA,NA,NA
"1416","flanker_instructions","39","html-keyboard-response","21","767039","0.0-3.0-12.0","2","2020-1-7 20:40:28","FISH",NA,NA,NA,NA,NA,NA,NA,NA,NA,NA,NA,NA,NA,NA
"717","flanker_test","37","image-keyboard-response","22","768761","0.0-3.0-13.0-0.0","2","2020-1-7 20:40:28","FISH",NA,NA,NA,NA,NA,"incongruent","left","TRUE",NA,NA,NA,NA,NA,NA
"531","flanker_test","37","image-keyboard-response","23","770478","0.0-3.0-13.0-0.1","2","2020-1-7 20:40:28","FISH",NA,NA,NA,NA,NA,"congruent","left","TRUE",NA,NA,NA,NA,NA,NA
"396","flanker_test","39","image-keyboard-response","24","771439","0.0-3.0-13.0-0.2","2","2020-1-7 20:40:28","FISH",NA,NA,NA,NA,NA,"congruent","right","TRUE",NA,NA,NA,NA,NA,NA
"733","flanker_test","39","image-keyboard-response","25","773100","0.0-3.0-13.0-0.3","2","2020-1-7 20:40:28","FISH",NA,NA,NA,NA,NA,"incongruent","right","TRUE",NA,NA,NA,NA,NA,NA
"24044","sort_trial",NA,"free-sort","26","797947","0.0-3.0-14.0","2","2020-1-7 20:40:28","FISH",NA,NA,NA,NA,NA,NA,NA,NA,"[{""cat"":19,""src"":19,""x"":70,""y"":308},{""cat"":19,""src"":16,""x"":35,""y"":367},{""cat"":19,""src"":15,""x"":82,""y"":140},{""cat"":2,""src"":14,""x"":74,""y"":261},{""cat"":2,""src"":18,""x"":16,""y"":84},{""cat"":2,""src"":13,""x"":76,""y"":483},{""cat"":24,""src"":12,""x"":41,""y"":423},{""cat"":24,""src"":0,""x"":29,""y"":202},{""cat"":24,""src"":13,""x"":42,""y"":28}]","[{""cat"":""19"",""src"":""15"",""x"":0,""y"":0},{""cat"":""19"",""src"":""19"",""x"":0,""y"":0},{""cat"":""19"",""src"":""16"",""x"":0,""y"":0},{""cat"":""2"",""src"":""14"",""x"":0,""y"":0},{""cat"":""2"",""src"":""13"",""x"":0,""y"":0},{""cat"":""2"",""src"":""18"",""x"":0,""y"":0},{""cat"":""24"",""src"":""0"",""x"":0,""y"":0},{""cat"":""24"",""src"":""12"",""x"":0,""y"":0},{""cat"":""24"",""src"":""13"",""x"":0,""y"":0}]","[{""cat"":19,""src"":15,""loc"":5},{""cat"":19,""src"":19,""loc"":4},{""cat"":19,""src"":16,""loc"":3},{""cat"":2,""src"":14,""loc"":8},{""cat"":2,""src"":13,""loc"":7},{""cat"":2,""src"":18,""loc"":6},{""cat"":24,""src"":0,""loc"":2},{""cat"":24,""src"":12,""loc"":0},{""cat"":24,""src"":13,""loc"":1}]","9","24,24,24,19,19,19,2,2,2,12,13,0,16,19,15,18,13,14,0,1,2,3,4,5,6,7,8,7,8,6,2,1,0,5,4,3",NA
"80880","sort_feedback","77","html-keyboard-response","27","878833","0.0-3.0-15.0","2","2020-1-7 20:40:28","FISH",NA,NA,NA,NA,NA,NA,NA,NA,NA,NA,NA,NA,NA,NA
"19928","setup2",NA,"animation","28","898764","0.0-3.0-16.0","2","2020-1-7 20:40:28","FISH",NA,NA,"[{""cat"":6,""src"":4,""loc"":7},{""cat"":15,""src"":18,""loc"":6},{""cat"":22,""src"":6,""loc"":8},{""cat"":6,""src"":10,""loc"":1},{""cat"":15,""src"":1,""loc"":0},{""cat"":22,""src"":10,""loc"":2},{""cat"":6,""src"":12,""loc"":5},{""cat"":15,""src"":12,""loc"":4},{""cat"":22,""src"":9,""loc"":3}]","2","1105,1101,1105,1103,1102,1102,1104,1102,1103,10001",NA,NA,NA,NA,NA,NA,NA,NA,NA
"1399","flanker_instructions","39","html-keyboard-response","29","900167","0.0-3.0-17.0","2","2020-1-7 20:40:28","FISH",NA,NA,NA,NA,NA,NA,NA,NA,NA,NA,NA,NA,NA,NA
"444","flanker_test","37","image-keyboard-response","30","901615","0.0-3.0-18.0-0.0","2","2020-1-7 20:40:28","FISH",NA,NA,NA,NA,NA,"congruent","left","TRUE",NA,NA,NA,NA,NA,NA
"601","flanker_test","37","image-keyboard-response","31","902953","0.0-3.0-18.0-0.1","2","2020-1-7 20:40:28","FISH",NA,NA,NA,NA,NA,"incongruent","left","TRUE",NA,NA,NA,NA,NA,NA
"463","flanker_test","39","image-keyboard-response","32","904516","0.0-3.0-18.0-0.2","2","2020-1-7 20:40:28","FISH",NA,NA,NA,NA,NA,"congruent","right","TRUE",NA,NA,NA,NA,NA,NA
"482","flanker_test","37","image-keyboard-response","33","906138","0.0-3.0-18.0-0.3","2","2020-1-7 20:40:28","FISH",NA,NA,NA,NA,NA,"incongruent","right","FALSE",NA,NA,NA,NA,NA,NA
"25948","sort_trial",NA,"free-sort","34","933170","0.0-3.0-19.0","2","2020-1-7 20:40:28","FISH",NA,NA,NA,NA,NA,NA,NA,NA,"[{""cat"":6,""src"":4,""x"":36,""y"":326},{""cat"":15,""src"":18,""x"":72,""y"":423},{""cat"":22,""src"":6,""x"":32,""y"":257},{""cat"":6,""src"":10,""x"":41,""y"":196},{""cat"":15,""src"":1,""x"":12,""y"":129},{""cat"":22,""src"":10,""x"":59,""y"":366},{""cat"":6,""src"":12,""x"":23,""y"":75},{""cat"":15,""src"":12,""x"":0,""y"":14},{""cat"":22,""src"":9,""x"":67,""y"":505}]","[{""cat"":""6"",""src"":""10"",""x"":0,""y"":0},{""cat"":""6"",""src"":""12"",""x"":0,""y"":0},{""cat"":""22"",""src"":""9"",""x"":0,""y"":0},{""cat"":""15"",""src"":""12"",""x"":0,""y"":0},{""cat"":""22"",""src"":""6"",""x"":0,""y"":0},{""cat"":""22"",""src"":""10"",""x"":0,""y"":0},{""cat"":""15"",""src"":""1"",""x"":0,""y"":0},{""cat"":""6"",""src"":""4"",""x"":0,""y"":0},{""cat"":""15"",""src"":""18"",""x"":0,""y"":0}]","[{""cat"":6,""src"":10,""loc"":1},{""cat"":6,""src"":12,""loc"":5},{""cat"":22,""src"":9,""loc"":3},{""cat"":15,""src"":12,""loc"":4},{""cat"":22,""src"":6,""loc"":8},{""cat"":22,""src"":10,""loc"":2},{""cat"":15,""src"":1,""loc"":0},{""cat"":6,""src"":4,""loc"":6},{""cat"":15,""src"":18,""loc"":7}]","7","15,6,22,22,15,6,6,15,22,1,10,10,9,12,12,4,18,6,0,1,2,3,4,5,6,7,8,6,0,5,2,3,1,7,8,4",NA
"1360","sort_feedback","74","html-keyboard-response","35","934535","0.0-3.0-20.0","2","2020-1-7 20:40:28","FISH",NA,NA,NA,NA,NA,NA,NA,NA,NA,NA,NA,NA,NA,NA
"19933","setup4",NA,"animation","36","954470","0.0-3.0-21.0","2","2020-1-7 20:40:28","FISH",NA,NA,"[{""cat"":4,""src"":18,""loc"":5},{""cat"":4,""src"":12,""loc"":2},{""cat"":4,""src"":5,""loc"":8},{""cat"":31,""src"":0,""loc"":1},{""cat"":31,""src"":18,""loc"":3},{""cat"":31,""src"":10,""loc"":7},{""cat"":21,""src"":10,""loc"":0},{""cat"":21,""src"":11,""loc"":6},{""cat"":21,""src"":15,""loc"":4}]","4","1103,1103,1101,1103,1103,1102,1103,1111,1103,10000",NA,NA,NA,NA,NA,NA,NA,NA,NA
"2437","flanker_instructions","39","html-keyboard-response","37","956910","0.0-3.0-22.0","2","2020-1-7 20:40:28","FISH",NA,NA,NA,NA,NA,NA,NA,NA,NA,NA,NA,NA,NA,NA
"455","flanker_test","37","image-keyboard-response","38","958369","0.0-3.0-23.0-0.0","2","2020-1-7 20:40:28","FISH",NA,NA,NA,NA,NA,"congruent","left","TRUE",NA,NA,NA,NA,NA,NA
"407","flanker_test","39","image-keyboard-response","39","959353","0.0-3.0-23.0-0.1","2","2020-1-7 20:40:28","FISH",NA,NA,NA,NA,NA,"congruent","right","TRUE",NA,NA,NA,NA,NA,NA
"492","flanker_test","39","image-keyboard-response","40","960157","0.0-3.0-23.0-0.2","2","2020-1-7 20:40:28","FISH",NA,NA,NA,NA,NA,"incongruent","right","TRUE",NA,NA,NA,NA,NA,NA
"518","flanker_test","37","image-keyboard-response","41","961624","0.0-3.0-23.0-0.3","2","2020-1-7 20:40:28","FISH",NA,NA,NA,NA,NA,"incongruent","left","TRUE",NA,NA,NA,NA,NA,NA
"30176","sort_trial",NA,"free-sort","42","992612","0.0-3.0-24.0","2","2020-1-7 20:40:28","FISH",NA,NA,NA,NA,NA,NA,NA,NA,"[{""cat"":4,""src"":18,""x"":65,""y"":144},{""cat"":4,""src"":12,""x"":13,""y"":494},{""cat"":4,""src"":5,""x"":82,""y"":309},{""cat"":31,""src"":0,""x"":35,""y"":184},{""cat"":31,""src"":18,""x"":82,""y"":380},{""cat"":31,""src"":10,""x"":15,""y"":257},{""cat"":21,""src"":10,""x"":25,""y"":29},{""cat"":21,""src"":11,""x"":59,""y"":424},{""cat"":21,""src"":15,""x"":20,""y"":68}]","[{""cat"":""31"",""src"":""0"",""x"":0,""y"":0},{""cat"":""31"",""src"":""10"",""x"":276,""y"":153},{""cat"":""31"",""src"":""10"",""x"":0,""y"":0},{""cat"":""4"",""src"":""12"",""x"":0,""y"":0},{""cat"":""4"",""src"":""18"",""x"":0,""y"":0},{""cat"":""4"",""src"":""5"",""x"":0,""y"":0},{""cat"":""31"",""src"":""18"",""x"":0,""y"":0},{""cat"":""21"",""src"":""11"",""x"":0,""y"":0},{""cat"":""21"",""src"":""10"",""x"":0,""y"":0},{""cat"":""21"",""src"":""15"",""x"":0,""y"":0}]","[{""cat"":31,""src"":0,""loc"":1},{""cat"":31,""src"":10,""loc"":0},{""cat"":4,""src"":12,""loc"":2},{""cat"":4,""src"":18,""loc"":5},{""cat"":4,""src"":5,""loc"":8},{""cat"":31,""src"":18,""loc"":6},{""cat"":21,""src"":11,""loc"":7},{""cat"":21,""src"":10,""loc"":4},{""cat"":21,""src"":15,""loc"":3}]","4","31,31,4,21,21,4,31,21,4,10,0,12,15,10,18,18,11,5,0,1,2,3,4,5,6,7,8,1,0,2,8,7,3,5,6,4",NA
"109470","sort_feedback","77","html-keyboard-response","43","1102086","0.0-3.0-25.0","2","2020-1-7 20:40:28","FISH",NA,NA,NA,NA,NA,NA,NA,NA,NA,NA,NA,NA,NA,NA
"19925","setup3",NA,"animation","44","1122013","0.0-3.0-26.0","2","2020-1-7 20:40:28","FISH",NA,NA,"[{""cat"":0,""src"":2,""loc"":0},{""cat"":13,""src"":3,""loc"":5},{""cat"":20,""src"":4,""loc"":8},{""cat"":20,""src"":2,""loc"":7},{""cat"":0,""src"":12,""loc"":2},{""cat"":13,""src"":19,""loc"":3},{""cat"":20,""src"":13,""loc"":6},{""cat"":0,""src"":3,""loc"":1},{""cat"":13,""src"":18,""loc"":4}]","3","1104,1102,1102,1102,1102,1101,1103,1105,1104,10000",NA,NA,NA,NA,NA,NA,NA,NA,NA
"1813","flanker_instructions","39","html-keyboard-response","45","1123828","0.0-3.0-27.0","2","2020-1-7 20:40:28","FISH",NA,NA,NA,NA,NA,NA,NA,NA,NA,NA,NA,NA,NA,NA
"581","flanker_test","37","image-keyboard-response","46","1125414","0.0-3.0-28.0-0.0","2","2020-1-7 20:40:28","FISH",NA,NA,NA,NA,NA,"incongruent","left","TRUE",NA,NA,NA,NA,NA,NA
"579","flanker_test","37","image-keyboard-response","47","1126565","0.0-3.0-28.0-0.1","2","2020-1-7 20:40:28","FISH",NA,NA,NA,NA,NA,"congruent","left","TRUE",NA,NA,NA,NA,NA,NA
"553","flanker_test","39","image-keyboard-response","48","1128295","0.0-3.0-28.0-0.2","2","2020-1-7 20:40:28","FISH",NA,NA,NA,NA,NA,"incongruent","right","TRUE",NA,NA,NA,NA,NA,NA
"505","flanker_test","39","image-keyboard-response","49","1129555","0.0-3.0-28.0-0.3","2","2020-1-7 20:40:28","FISH",NA,NA,NA,NA,NA,"congruent","right","TRUE",NA,NA,NA,NA,NA,NA
"33363","sort_trial",NA,"free-sort","50","1163709","0.0-3.0-29.0","2","2020-1-7 20:40:28","FISH",NA,NA,NA,NA,NA,NA,NA,NA,"[{""cat"":0,""src"":2,""x"":68,""y"":371},{""cat"":13,""src"":3,""x"":32,""y"":310},{""cat"":20,""src"":4,""x"":70,""y"":80},{""cat"":20,""src"":2,""x"":24,""y"":208},{""cat"":0,""src"":12,""x"":1,""y"":421},{""cat"":13,""src"":19,""x"":17,""y"":493},{""cat"":20,""src"":13,""x"":22,""y"":138},{""cat"":0,""src"":3,""x"":9,""y"":20},{""cat"":13,""src"":18,""x"":66,""y"":248}]","[{""cat"":""13"",""src"":""3"",""x"":0,""y"":0},{""cat"":""13"",""src"":""18"",""x"":0,""y"":0},{""cat"":""13"",""src"":""19"",""x"":0,""y"":0},{""cat"":""0"",""src"":""2"",""x"":0,""y"":0},{""cat"":""0"",""src"":""3"",""x"":0,""y"":0},{""cat"":""0"",""src"":""12"",""x"":0,""y"":0},{""cat"":""20"",""src"":""4"",""x"":0,""y"":0},{""cat"":""20"",""src"":""13"",""x"":0,""y"":0},{""cat"":""20"",""src"":""2"",""x"":0,""y"":0}]","[{""cat"":13,""src"":3,""loc"":5},{""cat"":13,""src"":18,""loc"":4},{""cat"":13,""src"":19,""loc"":3},{""cat"":0,""src"":2,""loc"":0},{""cat"":0,""src"":3,""loc"":1},{""cat"":0,""src"":12,""loc"":2},{""cat"":20,""src"":4,""loc"":6},{""cat"":20,""src"":13,""loc"":7},{""cat"":20,""src"":2,""loc"":8}]","6","0,0,0,13,13,13,20,20,20,2,3,12,19,18,3,4,13,2,0,1,2,3,4,5,6,7,8,3,4,5,2,1,0,6,7,8",NA
"1065","sort_feedback","74","html-keyboard-response","51","1164778","0.0-3.0-30.0","2","2020-1-7 20:40:28","FISH",NA,NA,NA,NA,NA,NA,NA,NA,NA,NA,NA,NA,NA,NA
"19924","setup1",NA,"animation","52","1184706","0.0-3.0-31.0","2","2020-1-7 20:40:28","FISH",NA,NA,"[{""cat"":25,""src"":16,""loc"":5},{""cat"":25,""src"":8,""loc"":4},{""cat"":25,""src"":0,""loc"":3},{""cat"":22,""src"":8,""loc"":6},{""cat"":22,""src"":10,""loc"":8},{""cat"":22,""src"":14,""loc"":7},{""cat"":9,""src"":2,""loc"":2},{""cat"":9,""src"":5,""loc"":0},{""cat"":9,""src"":4,""loc"":1}]","1","1104,1102,1104,1102,1102,1101,1102,1103,1103,10001",NA,NA,NA,NA,NA,NA,NA,NA,NA
"683","flanker_instructions","39","html-keyboard-response","53","1185392","0.0-3.0-32.0","2","2020-1-7 20:40:28","FISH",NA,NA,NA,NA,NA,NA,NA,NA,NA,NA,NA,NA,NA,NA
"641","flanker_test","37","image-keyboard-response","54","1187036","0.0-3.0-33.0-0.0","2","2020-1-7 20:40:28","FISH",NA,NA,NA,NA,NA,"incongruent","left","TRUE",NA,NA,NA,NA,NA,NA
"373","flanker_test","39","image-keyboard-response","55","1188586","0.0-3.0-33.0-0.1","2","2020-1-7 20:40:28","FISH",NA,NA,NA,NA,NA,"congruent","right","TRUE",NA,NA,NA,NA,NA,NA
"528","flanker_test","39","image-keyboard-response","56","1189452","0.0-3.0-33.0-0.2","2","2020-1-7 20:40:28","FISH",NA,NA,NA,NA,NA,"incongruent","right","TRUE",NA,NA,NA,NA,NA,NA
"382","flanker_test","37","image-keyboard-response","57","1190417","0.0-3.0-33.0-0.3","2","2020-1-7 20:40:28","FISH",NA,NA,NA,NA,NA,"congruent","left","TRUE",NA,NA,NA,NA,NA,NA
"22608","sort_trial",NA,"free-sort","58","1214014","0.0-3.0-34.0","2","2020-1-7 20:40:28","FISH",NA,NA,NA,NA,NA,NA,NA,NA,"[{""cat"":25,""src"":16,""x"":40,""y"":133},{""cat"":25,""src"":8,""x"":68,""y"":64},{""cat"":25,""src"":0,""x"":1,""y"":15},{""cat"":22,""src"":8,""x"":11,""y"":302},{""cat"":22,""src"":10,""x"":83,""y"":488},{""cat"":22,""src"":14,""x"":23,""y"":445},{""cat"":9,""src"":2,""x"":47,""y"":252},{""cat"":9,""src"":5,""x"":35,""y"":362},{""cat"":9,""src"":4,""x"":47,""y"":197}]","[{""cat"":""25"",""src"":""8"",""x"":0,""y"":0},{""cat"":""25"",""src"":""16"",""x"":0,""y"":0},{""cat"":""25"",""src"":""0"",""x"":0,""y"":0},{""cat"":""9"",""src"":""4"",""x"":0,""y"":0},{""cat"":""9"",""src"":""2"",""x"":0,""y"":0},{""cat"":""9"",""src"":""5"",""x"":0,""y"":0},{""cat"":""22"",""src"":""8"",""x"":0,""y"":0},{""cat"":""22"",""src"":""10"",""x"":0,""y"":0},{""cat"":""22"",""src"":""14"",""x"":0,""y"":0}]","[{""cat"":25,""src"":8,""loc"":4},{""cat"":25,""src"":16,""loc"":5},{""cat"":25,""src"":0,""loc"":3},{""cat"":9,""src"":4,""loc"":1},{""cat"":9,""src"":2,""loc"":2},{""cat"":9,""src"":5,""loc"":0},{""cat"":22,""src"":8,""loc"":6},{""cat"":22,""src"":10,""loc"":7},{""cat"":22,""src"":14,""loc"":8}]","7","9,9,9,25,25,25,22,22,22,5,4,2,0,8,16,8,10,14,0,1,2,3,4,5,6,7,8,5,3,4,2,0,1,6,7,8",NA
"173326","sort_feedback","78","html-keyboard-response","59","1387344","0.0-3.0-35.0","2","2020-1-7 20:40:28","FISH",NA,NA,NA,NA,NA,NA,NA,NA,NA,NA,NA,NA,NA,NA
"19928","setup4",NA,"animation","60","1407274","0.0-3.0-36.0","2","2020-1-7 20:40:28","FISH",NA,NA,"[{""cat"":10,""src"":13,""loc"":7},{""cat"":10,""src"":2,""loc"":2},{""cat"":10,""src"":1,""loc"":3},{""cat"":25,""src"":8,""loc"":6},{""cat"":25,""src"":1,""loc"":1},{""cat"":25,""src"":6,""loc"":4},{""cat"":21,""src"":2,""loc"":5},{""cat"":21,""src"":7,""loc"":8},{""cat"":21,""src"":17,""loc"":0}]","4","1105,1102,1103,1102,1102,1103,1102,1103,1104,10001",NA,NA,NA,NA,NA,NA,NA,NA,NA
"1042","flanker_instructions","39","html-keyboard-response","61","1408319","0.0-3.0-37.0","2","2020-1-7 20:40:28","FISH",NA,NA,NA,NA,NA,NA,NA,NA,NA,NA,NA,NA,NA,NA
"529","flanker_test","39","image-keyboard-response","62","1409851","0.0-3.0-38.0-0.0","2","2020-1-7 20:40:28","FISH",NA,NA,NA,NA,NA,"congruent","right","TRUE",NA,NA,NA,NA,NA,NA
"595","flanker_test","39","image-keyboard-response","63","1411566","0.0-3.0-38.0-0.1","2","2020-1-7 20:40:28","FISH",NA,NA,NA,NA,NA,"incongruent","right","TRUE",NA,NA,NA,NA,NA,NA
"461","flanker_test","37","image-keyboard-response","64","1413215","0.0-3.0-38.0-0.2","2","2020-1-7 20:40:28","FISH",NA,NA,NA,NA,NA,"congruent","left","TRUE",NA,NA,NA,NA,NA,NA
"588","flanker_test","37","image-keyboard-response","65","1414378","0.0-3.0-38.0-0.3","2","2020-1-7 20:40:28","FISH",NA,NA,NA,NA,NA,"incongruent","left","TRUE",NA,NA,NA,NA,NA,NA
"28895","sort_trial",NA,"free-sort","66","1444316","0.0-3.0-39.0","2","2020-1-7 20:40:28","FISH",NA,NA,NA,NA,NA,NA,NA,NA,"[{""cat"":10,""src"":13,""x"":65,""y"":65},{""cat"":10,""src"":2,""x"":5,""y"":491},{""cat"":10,""src"":1,""x"":15,""y"":361},{""cat"":25,""src"":8,""x"":38,""y"":438},{""cat"":25,""src"":1,""x"":34,""y"":19},{""cat"":25,""src"":6,""x"":6,""y"":191},{""cat"":21,""src"":2,""x"":52,""y"":137},{""cat"":21,""src"":7,""x"":0,""y"":242},{""cat"":21,""src"":17,""x"":57,""y"":310}]","[{""cat"":""21"",""src"":""2"",""x"":0,""y"":0},{""cat"":""25"",""src"":""6"",""x"":0,""y"":0},{""cat"":""10"",""src"":""1"",""x"":0,""y"":0},{""cat"":""10"",""src"":""13"",""x"":0,""y"":0},{""cat"":""10"",""src"":""2"",""x"":0,""y"":0},{""cat"":""25"",""src"":""8"",""x"":-21,""y"":367},{""cat"":""21"",""src"":""7"",""x"":0,""y"":0},{""cat"":""25"",""src"":""1"",""x"":0,""y"":0},{""cat"":""25"",""src"":""8"",""x"":0,""y"":0},{""cat"":""21"",""src"":""17"",""x"":0,""y"":0}]","[{""cat"":21,""src"":2,""loc"":5},{""cat"":25,""src"":6,""loc"":4},{""cat"":10,""src"":1,""loc"":3},{""cat"":10,""src"":13,""loc"":7},{""cat"":10,""src"":2,""loc"":1},{""cat"":21,""src"":7,""loc"":8},{""cat"":25,""src"":1,""loc"":6},{""cat"":25,""src"":8,""loc"":2},{""cat"":21,""src"":17,""loc"":0}]","6","21,10,25,10,25,21,25,10,21,17,2,8,1,6,2,1,13,7,0,1,2,3,4,5,6,7,8,8,4,7,2,1,0,6,3,5",NA
"62976","sort_feedback","74","html-keyboard-response","67","1507295","0.0-3.0-40.0","2","2020-1-7 20:40:28","FISH",NA,NA,NA,NA,NA,NA,NA,NA,NA,NA,NA,NA,NA,NA
"19927","setup5",NA,"animation","68","1527224","0.0-3.0-41.0","2","2020-1-7 20:40:28","FISH",NA,NA,"[{""cat"":12,""src"":1,""loc"":8},{""cat"":22,""src"":19,""loc"":4},{""cat"":11,""src"":3,""loc"":0},{""cat"":11,""src"":0,""loc"":3},{""cat"":22,""src"":0,""loc"":7},{""cat"":12,""src"":16,""loc"":2},{""cat"":12,""src"":5,""loc"":5},{""cat"":11,""src"":13,""loc"":6},{""cat"":22,""src"":14,""loc"":1}]","5","1104,1102,1104,1102,1101,1103,1103,1102,1104,10001",NA,NA,NA,NA,NA,NA,NA,NA,NA
"832","flanker_instructions","39","html-keyboard-response","69","1528058","0.0-3.0-42.0","2","2020-1-7 20:40:28","FISH",NA,NA,NA,NA,NA,NA,NA,NA,NA,NA,NA,NA,NA,NA
"557","flanker_test","39","image-keyboard-response","70","1529619","0.0-3.0-43.0-0.0","2","2020-1-7 20:40:28","FISH",NA,NA,NA,NA,NA,"congruent","right","TRUE",NA,NA,NA,NA,NA,NA
"623","flanker_test","37","image-keyboard-response","71","1531215","0.0-3.0-43.0-0.1","2","2020-1-7 20:40:28","FISH",NA,NA,NA,NA,NA,"incongruent","left","TRUE",NA,NA,NA,NA,NA,NA
"528","flanker_test","39","image-keyboard-response","72","1532931","0.0-3.0-43.0-0.2","2","2020-1-7 20:40:28","FISH",NA,NA,NA,NA,NA,"incongruent","right","TRUE",NA,NA,NA,NA,NA,NA
"491","flanker_test","37","image-keyboard-response","73","1534133","0.0-3.0-43.0-0.3","2","2020-1-7 20:40:28","FISH",NA,NA,NA,NA,NA,"congruent","left","TRUE",NA,NA,NA,NA,NA,NA
"24473","sort_trial",NA,"free-sort","74","1559779","0.0-3.0-44.0","2","2020-1-7 20:40:28","FISH",NA,NA,NA,NA,NA,NA,NA,NA,"[{""cat"":12,""src"":1,""x"":1,""y"":1},{""cat"":22,""src"":19,""x"":48,""y"":127},{""cat"":11,""src"":3,""x"":51,""y"":76},{""cat"":11,""src"":0,""x"":77,""y"":249},{""cat"":22,""src"":0,""x"":55,""y"":321},{""cat"":12,""src"":16,""x"":29,""y"":505},{""cat"":12,""src"":5,""x"":73,""y"":364},{""cat"":11,""src"":13,""x"":29,""y"":181},{""cat"":22,""src"":14,""x"":36,""y"":446}]","[{""cat"":""11"",""src"":""13"",""x"":0,""y"":0},{""cat"":""12"",""src"":""16"",""x"":0,""y"":0},{""cat"":""22"",""src"":""0"",""x"":0,""y"":0},{""cat"":""12"",""src"":""1"",""x"":0,""y"":0},{""cat"":""22"",""src"":""19"",""x"":0,""y"":0},{""cat"":""11"",""src"":""3"",""x"":0,""y"":0},{""cat"":""11"",""src"":""0"",""x"":0,""y"":0},{""cat"":""12"",""src"":""5"",""x"":0,""y"":0},{""cat"":""22"",""src"":""14"",""x"":0,""y"":0}]","[{""cat"":11,""src"":13,""loc"":6},{""cat"":12,""src"":16,""loc"":2},{""cat"":22,""src"":0,""loc"":7},{""cat"":12,""src"":1,""loc"":8},{""cat"":22,""src"":19,""loc"":4},{""cat"":11,""src"":3,""loc"":1},{""cat"":11,""src"":0,""loc"":0},{""cat"":12,""src"":5,""loc"":3},{""cat"":22,""src"":14,""loc"":5}]","5","11,11,12,12,22,22,11,22,12,0,3,16,5,19,14,13,0,1,0,1,2,3,4,5,6,7,8,6,5,1,7,4,8,0,2,3",NA
"1197","sort_feedback","74","html-keyboard-response","75","1560979","0.0-3.0-45.0","2","2020-1-7 20:40:28","FISH",NA,NA,NA,NA,NA,NA,NA,NA,NA,NA,NA,NA,NA,NA
"19928","setup2",NA,"animation","76","1580908","0.0-3.0-46.0","2","2020-1-7 20:40:28","FISH",NA,NA,"[{""cat"":21,""src"":15,""loc"":5},{""cat"":1,""src"":8,""loc"":4},{""cat"":25,""src"":4,""loc"":3},{""cat"":1,""src"":10,""loc"":2},{""cat"":25,""src"":18,""loc"":0},{""cat"":21,""src"":10,""loc"":1},{""cat"":21,""src"":6,""loc"":6},{""cat"":25,""src"":7,""loc"":7},{""cat"":1,""src"":15,""loc"":8}]","2","1104,1101,1103,1102,1102,1103,1103,1103,1102,10004",NA,NA,NA,NA,NA,NA,NA,NA,NA
"1718","flanker_instructions","39","html-keyboard-response","77","1582629","0.0-3.0-47.0","2","2020-1-7 20:40:28","FISH",NA,NA,NA,NA,NA,NA,NA,NA,NA,NA,NA,NA,NA,NA
"460","flanker_test","37","image-keyboard-response","78","1584094","0.0-3.0-48.0-0.0","2","2020-1-7 20:40:28","FISH",NA,NA,NA,NA,NA,"congruent","left","TRUE",NA,NA,NA,NA,NA,NA
"422","flanker_test","39","image-keyboard-response","79","1585467","0.0-3.0-48.0-0.1","2","2020-1-7 20:40:28","FISH",NA,NA,NA,NA,NA,"incongruent","left","FALSE",NA,NA,NA,NA,NA,NA
"415","flanker_test","39","image-keyboard-response","80","1587039","0.0-3.0-48.0-0.2","2","2020-1-7 20:40:28","FISH",NA,NA,NA,NA,NA,"congruent","right","TRUE",NA,NA,NA,NA,NA,NA
"604","flanker_test","39","image-keyboard-response","81","1588210","0.0-3.0-48.0-0.3","2","2020-1-7 20:40:28","FISH",NA,NA,NA,NA,NA,"incongruent","right","TRUE",NA,NA,NA,NA,NA,NA
"18895","sort_trial",NA,"free-sort","82","1607787","0.0-3.0-49.0","2","2020-1-7 20:40:28","FISH",NA,NA,NA,NA,NA,NA,NA,NA,"[{""cat"":21,""src"":15,""x"":9,""y"":24},{""cat"":1,""src"":8,""x"":55,""y"":191},{""cat"":25,""src"":4,""x"":66,""y"":322},{""cat"":1,""src"":10,""x"":16,""y"":239},{""cat"":25,""src"":18,""x"":65,""y"":128},{""cat"":21,""src"":10,""x"":72,""y"":76},{""cat"":21,""src"":6,""x"":0,""y"":441},{""cat"":25,""src"":7,""x"":47,""y"":486},{""cat"":1,""src"":15,""x"":16,""y"":374}]","[{""cat"":""21"",""src"":""15"",""x"":0,""y"":0},{""cat"":""25"",""src"":""4"",""x"":0,""y"":0},{""cat"":""1"",""src"":""8"",""x"":0,""y"":0},{""cat"":""25"",""src"":""7"",""x"":0,""y"":0},{""cat"":""1"",""src"":""15"",""x"":0,""y"":0},{""cat"":""21"",""src"":""6"",""x"":0,""y"":0},{""cat"":""1"",""src"":""10"",""x"":0,""y"":0},{""cat"":""21"",""src"":""10"",""x"":0,""y"":0},{""cat"":""25"",""src"":""18"",""x"":0,""y"":0}]","[{""cat"":21,""src"":15,""loc"":5},{""cat"":25,""src"":4,""loc"":3},{""cat"":1,""src"":8,""loc"":4},{""cat"":25,""src"":7,""loc"":7},{""cat"":1,""src"":15,""loc"":8},{""cat"":21,""src"":6,""loc"":6},{""cat"":1,""src"":10,""loc"":1},{""cat"":21,""src"":10,""loc"":2},{""cat"":25,""src"":18,""loc"":0}]","7","25,1,21,25,1,21,21,25,1,18,10,10,4,8,15,6,7,15,0,1,2,3,4,5,6,7,8,8,6,7,1,2,0,5,3,4",NA
"73008","sort_feedback","72","html-keyboard-response","83","1680799","0.0-3.0-50.0","2","2020-1-7 20:40:28","FISH",NA,NA,NA,NA,NA,NA,NA,NA,NA,NA,NA,NA,NA,NA
"19936","setup1",NA,"animation","84","1700738","0.0-3.0-51.0","2","2020-1-7 20:40:28","FISH",NA,NA,"[{""cat"":32,""src"":10,""loc"":5},{""cat"":32,""src"":2,""loc"":4},{""cat"":32,""src"":11,""loc"":3},{""cat"":6,""src"":15,""loc"":1},{""cat"":6,""src"":8,""loc"":0},{""cat"":6,""src"":7,""loc"":2},{""cat"":25,""src"":14,""loc"":8},{""cat"":25,""src"":4,""loc"":7},{""cat"":25,""src"":8,""loc"":6}]","1","1103,1102,1103,1114,1103,1103,1101,1103,1103,10001",NA,NA,NA,NA,NA,NA,NA,NA,NA
"1682","flanker_instructions","39","html-keyboard-response","85","1702423","0.0-3.0-52.0","2","2020-1-7 20:40:28","FISH",NA,NA,NA,NA,NA,NA,NA,NA,NA,NA,NA,NA,NA,NA
"514","flanker_test","39","image-keyboard-response","86","1703942","0.0-3.0-53.0-0.0","2","2020-1-7 20:40:28","FISH",NA,NA,NA,NA,NA,"incongruent","right","TRUE",NA,NA,NA,NA,NA,NA
"630","flanker_test","37","image-keyboard-response","87","1704898","0.0-3.0-53.0-0.1","2","2020-1-7 20:40:28","FISH",NA,NA,NA,NA,NA,"congruent","left","TRUE",NA,NA,NA,NA,NA,NA
NA,"flanker_test",NA,"image-keyboard-response","88","1706882","0.0-3.0-53.0-0.2","2","2020-1-7 20:40:28","FISH",NA,NA,NA,NA,NA,"incongruent","left","FALSE",NA,NA,NA,NA,NA,NA
NA,"flanker_test",NA,"image-keyboard-response","89","1708124","0.0-3.0-53.0-0.3","2","2020-1-7 20:40:28","FISH",NA,NA,NA,NA,NA,"congruent","right","FALSE",NA,NA,NA,NA,NA,NA
"35826","sort_trial",NA,"free-sort","90","1744920","0.0-3.0-54.0","2","2020-1-7 20:40:28","FISH",NA,NA,NA,NA,NA,NA,NA,NA,"[{""cat"":32,""src"":10,""x"":72,""y"":28},{""cat"":32,""src"":2,""x"":60,""y"":501},{""cat"":32,""src"":11,""x"":0,""y"":446},{""cat"":6,""src"":15,""x"":6,""y"":197},{""cat"":6,""src"":8,""x"":6,""y"":328},{""cat"":6,""src"":7,""x"":54,""y"":126},{""cat"":25,""src"":14,""x"":20,""y"":267},{""cat"":25,""src"":4,""x"":66,""y"":63},{""cat"":25,""src"":8,""x"":83,""y"":360}]","[{""cat"":""6"",""src"":""7"",""x"":0,""y"":0},{""cat"":""6"",""src"":""15"",""x"":0,""y"":0},{""cat"":""6"",""src"":""8"",""x"":0,""y"":0},{""cat"":""32"",""src"":""11"",""x"":35,""y"":443},{""cat"":""32"",""src"":""2"",""x"":0,""y"":0},{""cat"":""25"",""src"":""8"",""x"":83,""y"":360},{""cat"":""32"",""src"":""11"",""x"":0,""y"":0},{""cat"":""32"",""src"":""10"",""x"":0,""y"":0},{""cat"":""25"",""src"":""8"",""x"":0,""y"":0},{""cat"":""25"",""src"":""14"",""x"":0,""y"":0},{""cat"":""25"",""src"":""4"",""x"":0,""y"":0}]","[{""cat"":6,""src"":7,""loc"":2},{""cat"":6,""src"":15,""loc"":1},{""cat"":6,""src"":8,""loc"":0},{""cat"":32,""src"":2,""loc"":4},{""cat"":32,""src"":11,""loc"":3},{""cat"":32,""src"":10,""loc"":5},{""cat"":25,""src"":8,""loc"":8},{""cat"":25,""src"":14,""loc"":6},{""cat"":25,""src"":4,""loc"":7}]","7","6,6,6,32,32,32,25,25,25,8,15,7,11,2,10,14,4,8,0,1,2,3,4,5,6,7,8,2,1,0,4,3,5,7,8,6",NA
"722","sort_feedback","74","html-keyboard-response","91","1745647","0.0-3.0-55.0","2","2020-1-7 20:40:28","FISH",NA,NA,NA,NA,NA,NA,NA,NA,NA,NA,NA,NA,NA,NA
"19926","setup2",NA,"animation","92","1765575","0.0-3.0-56.0","2","2020-1-7 20:40:28","FISH",NA,NA,"[{""cat"":16,""src"":6,""loc"":8},{""cat"":15,""src"":7,""loc"":6},{""cat"":20,""src"":15,""loc"":7},{""cat"":20,""src"":6,""loc"":4},{""cat"":16,""src"":7,""loc"":3},{""cat"":15,""src"":8,""loc"":5},{""cat"":20,""src"":17,""loc"":0},{""cat"":16,""src"":11,""loc"":1},{""cat"":15,""src"":17,""loc"":2}]","2","1104,1102,1103,1103,1101,1102,1105,1102,1103,10001",NA,NA,NA,NA,NA,NA,NA,NA,NA
"820","flanker_instructions","39","html-keyboard-response","93","1766398","0.0-3.0-57.0","2","2020-1-7 20:40:28","FISH",NA,NA,NA,NA,NA,NA,NA,NA,NA,NA,NA,NA,NA,NA
"625","flanker_test","39","image-keyboard-response","94","1768027","0.0-3.0-58.0-0.0","2","2020-1-7 20:40:28","FISH",NA,NA,NA,NA,NA,"incongruent","right","TRUE",NA,NA,NA,NA,NA,NA
"412","flanker_test","39","image-keyboard-response","95","1769612","0.0-3.0-58.0-0.1","2","2020-1-7 20:40:28","FISH",NA,NA,NA,NA,NA,"congruent","right","TRUE",NA,NA,NA,NA,NA,NA
"570","flanker_test","37","image-keyboard-response","96","1770921","0.0-3.0-58.0-0.2","2","2020-1-7 20:40:28","FISH",NA,NA,NA,NA,NA,"incongruent","left","TRUE",NA,NA,NA,NA,NA,NA
"775","flanker_test","37","image-keyboard-response","97","1772151","0.0-3.0-58.0-0.3","2","2020-1-7 20:40:28","FISH",NA,NA,NA,NA,NA,"congruent","left","TRUE",NA,NA,NA,NA,NA,NA
"26942","sort_trial",NA,"free-sort","98","1799908","0.0-3.0-59.0","2","2020-1-7 20:40:28","FISH",NA,NA,NA,NA,NA,NA,NA,NA,"[{""cat"":16,""src"":6,""x"":59,""y"":208},{""cat"":15,""src"":7,""x"":33,""y"":361},{""cat"":20,""src"":15,""x"":35,""y"":508},{""cat"":20,""src"":6,""x"":76,""y"":429},{""cat"":16,""src"":7,""x"":39,""y"":325},{""cat"":15,""src"":8,""x"":7,""y"":72},{""cat"":20,""src"":17,""x"":28,""y"":14},{""cat"":16,""src"":11,""x"":13,""y"":267},{""cat"":15,""src"":17,""x"":45,""y"":126}]","[{""cat"":""16"",""src"":""11"",""x"":0,""y"":0},{""cat"":""20"",""src"":""17"",""x"":0,""y"":0},{""cat"":""15"",""src"":""17"",""x"":0,""y"":0},{""cat"":""16"",""src"":""6"",""x"":0,""y"":0},{""cat"":""20"",""src"":""6"",""x"":0,""y"":0},{""cat"":""15"",""src"":""7"",""x"":0,""y"":0},{""cat"":""20"",""src"":""15"",""x"":0,""y"":0},{""cat"":""16"",""src"":""7"",""x"":0,""y"":0},{""cat"":""15"",""src"":""8"",""x"":0,""y"":0}]","[{""cat"":16,""src"":11,""loc"":1},{""cat"":20,""src"":17,""loc"":0},{""cat"":15,""src"":17,""loc"":2},{""cat"":16,""src"":6,""loc"":8},{""cat"":20,""src"":6,""loc"":4},{""cat"":15,""src"":7,""loc"":6},{""cat"":20,""src"":15,""loc"":7},{""cat"":16,""src"":7,""loc"":3},{""cat"":15,""src"":8,""loc"":5}]","9","20,16,15,16,20,15,15,20,16,17,11,17,7,6,8,7,15,6,0,1,2,3,4,5,6,7,8,1,0,2,7,4,8,5,6,3",NA
"911","sort_feedback","72","html-keyboard-response","99","1800823","0.0-3.0-60.0","2","2020-1-7 20:40:28","FISH",NA,NA,NA,NA,NA,NA,NA,NA,NA,NA,NA,NA,NA,NA
"19926","setup4",NA,"animation","100","1820750","0.0-3.0-61.0","2","2020-1-7 20:40:28","FISH",NA,NA,"[{""cat"":25,""src"":8,""loc"":2},{""cat"":25,""src"":18,""loc"":8},{""cat"":25,""src"":5,""loc"":4},{""cat"":8,""src"":1,""loc"":3},{""cat"":8,""src"":5,""loc"":7},{""cat"":8,""src"":7,""loc"":1},{""cat"":27,""src"":17,""loc"":5},{""cat"":27,""src"":1,""loc"":0},{""cat"":27,""src"":10,""loc"":6}]","4","1102,1103,1103,1102,1103,1103,1102,1103,1103,10001",NA,NA,NA,NA,NA,NA,NA,NA,NA
"1423","flanker_instructions","39","html-keyboard-response","101","1822176","0.0-3.0-62.0","2","2020-1-7 20:40:28","FISH",NA,NA,NA,NA,NA,NA,NA,NA,NA,NA,NA,NA,NA,NA
"679","flanker_test","39","image-keyboard-response","102","1823858","0.0-3.0-63.0-0.0","2","2020-1-7 20:40:28","FISH",NA,NA,NA,NA,NA,"incongruent","right","TRUE",NA,NA,NA,NA,NA,NA
"583","flanker_test","37","image-keyboard-response","103","1825397","0.0-3.0-63.0-0.1","2","2020-1-7 20:40:28","FISH",NA,NA,NA,NA,NA,"incongruent","left","TRUE",NA,NA,NA,NA,NA,NA
"476","flanker_test","39","image-keyboard-response","104","1827053","0.0-3.0-63.0-0.2","2","2020-1-7 20:40:28","FISH",NA,NA,NA,NA,NA,"congruent","right","TRUE",NA,NA,NA,NA,NA,NA
"500","flanker_test","37","image-keyboard-response","105","1828562","0.0-3.0-63.0-0.3","2","2020-1-7 20:40:28","FISH",NA,NA,NA,NA,NA,"congruent","left","TRUE",NA,NA,NA,NA,NA,NA
"26812","sort_trial",NA,"free-sort","106","1855977","0.0-3.0-64.0","2","2020-1-7 20:40:28","FISH",NA,NA,NA,NA,NA,NA,NA,NA,"[{""cat"":25,""src"":8,""x"":21,""y"":504},{""cat"":25,""src"":18,""x"":37,""y"":123},{""cat"":25,""src"":5,""x"":13,""y"":446},{""cat"":8,""src"":1,""x"":15,""y"":182},{""cat"":8,""src"":5,""x"":80,""y"":19},{""cat"":8,""src"":7,""x"":25,""y"":67},{""cat"":27,""src"":17,""x"":39,""y"":368},{""cat"":27,""src"":1,""x"":31,""y"":300},{""cat"":27,""src"":10,""x"":43,""y"":259}]","[{""cat"":""27"",""src"":""10"",""x"":0,""y"":0},{""cat"":""25"",""src"":""18"",""x"":0,""y"":0},{""cat"":""8"",""src"":""5"",""x"":0,""y"":0},{""cat"":""27"",""src"":""17"",""x"":0,""y"":0},{""cat"":""8"",""src"":""1"",""x"":0,""y"":0},{""cat"":""25"",""src"":""5"",""x"":0,""y"":0},{""cat"":""8"",""src"":""7"",""x"":0,""y"":0},{""cat"":""27"",""src"":""1"",""x"":0,""y"":0},{""cat"":""25"",""src"":""8"",""x"":0,""y"":0}]","[{""cat"":27,""src"":10,""loc"":6},{""cat"":25,""src"":18,""loc"":8},{""cat"":8,""src"":5,""loc"":7},{""cat"":27,""src"":17,""loc"":5},{""cat"":8,""src"":1,""loc"":3},{""cat"":25,""src"":5,""loc"":4},{""cat"":8,""src"":7,""loc"":1},{""cat"":27,""src"":1,""loc"":0},{""cat"":25,""src"":8,""loc"":2}]","9","27,8,25,8,25,27,27,8,25,1,7,8,1,5,17,10,5,18,0,1,2,3,4,5,6,7,8,7,6,8,4,5,3,0,2,1",NA
"54704","sort_feedback","74","html-keyboard-response","107","1910686","0.0-3.0-65.0","2","2020-1-7 20:40:28","FISH",NA,NA,NA,NA,NA,NA,NA,NA,NA,NA,NA,NA,NA,NA
"19926","setup3",NA,"animation","108","1930613","0.0-3.0-66.0","2","2020-1-7 20:40:28","FISH",NA,NA,"[{""cat"":14,""src"":5,""loc"":7},{""cat"":3,""src"":16,""loc"":5},{""cat"":33,""src"":10,""loc"":0},{""cat"":3,""src"":14,""loc"":3},{""cat"":14,""src"":2,""loc"":6},{""cat"":33,""src"":1,""loc"":2},{""cat"":14,""src"":4,""loc"":8},{""cat"":3,""src"":19,""loc"":4},{""cat"":33,""src"":2,""loc"":1}]","3","1104,1103,1102,1103,1103,1102,1102,1103,1103,10001",NA,NA,NA,NA,NA,NA,NA,NA,NA
"951","flanker_instructions","39","html-keyboard-response","109","1931568","0.0-3.0-67.0","2","2020-1-7 20:40:28","FISH",NA,NA,NA,NA,NA,NA,NA,NA,NA,NA,NA,NA,NA,NA
"612","flanker_test","37","image-keyboard-response","110","1933187","0.0-3.0-68.0-0.0","2","2020-1-7 20:40:28","FISH",NA,NA,NA,NA,NA,"congruent","left","TRUE",NA,NA,NA,NA,NA,NA
"517","flanker_test","39","image-keyboard-response","111","1934306","0.0-3.0-68.0-0.1","2","2020-1-7 20:40:28","FISH",NA,NA,NA,NA,NA,"incongruent","right","TRUE",NA,NA,NA,NA,NA,NA
"476","flanker_test","37","image-keyboard-response","112","1935452","0.0-3.0-68.0-0.2","2","2020-1-7 20:40:28","FISH",NA,NA,NA,NA,NA,"incongruent","left","TRUE",NA,NA,NA,NA,NA,NA
"370","flanker_test","39","image-keyboard-response","113","1936499","0.0-3.0-68.0-0.3","2","2020-1-7 20:40:28","FISH",NA,NA,NA,NA,NA,"congruent","right","TRUE",NA,NA,NA,NA,NA,NA
"33252","sort_trial",NA,"free-sort","114","1970687","0.0-3.0-69.0","2","2020-1-7 20:40:28","FISH",NA,NA,NA,NA,NA,NA,NA,NA,"[{""cat"":14,""src"":5,""x"":72,""y"":147},{""cat"":3,""src"":16,""x"":61,""y"":70},{""cat"":33,""src"":10,""x"":42,""y"":196},{""cat"":3,""src"":14,""x"":11,""y"":261},{""cat"":14,""src"":2,""x"":67,""y"":494},{""cat"":33,""src"":1,""x"":41,""y"":329},{""cat"":14,""src"":4,""x"":67,""y"":18},{""cat"":3,""src"":19,""x"":73,""y"":361},{""cat"":33,""src"":2,""x"":60,""y"":422}]","[{""cat"":""3"",""src"":""16"",""x"":0,""y"":0},{""cat"":""3"",""src"":""14"",""x"":0,""y"":0},{""cat"":""33"",""src"":""10"",""x"":0,""y"":0},{""cat"":""33"",""src"":""1"",""x"":0,""y"":0},{""cat"":""14"",""src"":""2"",""x"":257,""y"":412},{""cat"":""14"",""src"":""4"",""x"":110,""y"":402},{""cat"":""3"",""src"":""19"",""x"":0,""y"":0},{""cat"":""14"",""src"":""2"",""x"":0,""y"":0},{""cat"":""14"",""src"":""5"",""x"":0,""y"":0},{""cat"":""33"",""src"":""2"",""x"":0,""y"":0},{""cat"":""14"",""src"":""4"",""x"":0,""y"":0}]","[{""cat"":3,""src"":16,""loc"":5},{""cat"":3,""src"":14,""loc"":4},{""cat"":33,""src"":10,""loc"":6},{""cat"":33,""src"":1,""loc"":2},{""cat"":3,""src"":19,""loc"":3},{""cat"":14,""src"":2,""loc"":8},{""cat"":14,""src"":5,""loc"":7},{""cat"":33,""src"":2,""loc"":1},{""cat"":14,""src"":4,""loc"":0}]","4","14,33,33,3,3,3,33,14,14,4,2,1,19,14,16,10,5,2,0,1,2,3,4,5,6,7,8,8,7,3,4,1,0,2,6,5",NA
"78718","sort_feedback","75","html-keyboard-response","115","2049409","0.0-3.0-70.0","2","2020-1-7 20:40:28","FISH",NA,NA,NA,NA,NA,NA,NA,NA,NA,NA,NA,NA,NA,NA
"19931","setup5",NA,"animation","116","2069341","0.0-3.0-71.0","2","2020-1-7 20:40:28","FISH",NA,NA,"[{""cat"":33,""src"":16,""loc"":3},{""cat"":31,""src"":6,""loc"":6},{""cat"":18,""src"":0,""loc"":0},{""cat"":33,""src"":3,""loc"":2},{""cat"":31,""src"":10,""loc"":5},{""cat"":18,""src"":3,""loc"":8},{""cat"":31,""src"":9,""loc"":1},{""cat"":18,""src"":9,""loc"":4},{""cat"":33,""src"":1,""loc"":7}]","5","1107,1102,1102,1105,1103,1102,1102,1103,1103,10002",NA,NA,NA,NA,NA,NA,NA,NA,NA
"828","flanker_instructions","39","html-keyboard-response","117","2070174","0.0-3.0-72.0","2","2020-1-7 20:40:28","FISH",NA,NA,NA,NA,NA,NA,NA,NA,NA,NA,NA,NA,NA,NA
"564","flanker_test","39","image-keyboard-response","118","2071742","0.0-3.0-73.0-0.0","2","2020-1-7 20:40:28","FISH",NA,NA,NA,NA,NA,"incongruent","right","TRUE",NA,NA,NA,NA,NA,NA
"484","flanker_test","37","image-keyboard-response","119","2073368","0.0-3.0-73.0-0.1","2","2020-1-7 20:40:28","FISH",NA,NA,NA,NA,NA,"congruent","left","TRUE",NA,NA,NA,NA,NA,NA
"694","flanker_test","37","image-keyboard-response","120","2074715","0.0-3.0-73.0-0.2","2","2020-1-7 20:40:28","FISH",NA,NA,NA,NA,NA,"incongruent","left","TRUE",NA,NA,NA,NA,NA,NA
"397","flanker_test","39","image-keyboard-response","121","2076295","0.0-3.0-73.0-0.3","2","2020-1-7 20:40:28","FISH",NA,NA,NA,NA,NA,"congruent","right","TRUE",NA,NA,NA,NA,NA,NA
"27796","sort_trial",NA,"free-sort","122","2105147","0.0-3.0-74.0","2","2020-1-7 20:40:28","FISH",NA,NA,NA,NA,NA,NA,NA,NA,"[{""cat"":33,""src"":16,""x"":49,""y"":8},{""cat"":31,""src"":6,""x"":16,""y"":315},{""cat"":18,""src"":0,""x"":49,""y"":431},{""cat"":33,""src"":3,""x"":32,""y"":246},{""cat"":31,""src"":10,""x"":27,""y"":378},{""cat"":18,""src"":3,""x"":40,""y"":193},{""cat"":31,""src"":9,""x"":78,""y"":63},{""cat"":18,""src"":9,""x"":75,""y"":489},{""cat"":33,""src"":1,""x"":33,""y"":132}]","[{""cat"":""31"",""src"":""10"",""x"":0,""y"":0},{""cat"":""18"",""src"":""9"",""x"":0,""y"":0},{""cat"":""33"",""src"":""1"",""x"":0,""y"":0},{""cat"":""31"",""src"":""9"",""x"":0,""y"":0},{""cat"":""33"",""src"":""16"",""x"":0,""y"":0},{""cat"":""18"",""src"":""3"",""x"":0,""y"":0},{""cat"":""18"",""src"":""0"",""x"":0,""y"":0},{""cat"":""31"",""src"":""6"",""x"":0,""y"":0},{""cat"":""33"",""src"":""3"",""x"":0,""y"":0}]","[{""cat"":31,""src"":10,""loc"":5},{""cat"":18,""src"":9,""loc"":4},{""cat"":33,""src"":1,""loc"":3},{""cat"":31,""src"":9,""loc"":1},{""cat"":33,""src"":16,""loc"":2},{""cat"":18,""src"":3,""loc"":8},{""cat"":18,""src"":0,""loc"":6},{""cat"":31,""src"":6,""loc"":7},{""cat"":33,""src"":3,""loc"":0}]","4","33,31,33,33,18,31,18,31,18,3,9,16,1,9,10,0,6,3,0,1,2,3,4,5,6,7,8,8,3,4,2,1,0,6,7,5",NA
"67784","sort_feedback","76","html-keyboard-response","123","2172934","0.0-3.0-75.0","2","2020-1-7 20:40:28","FISH",NA,NA,NA,NA,NA,NA,NA,NA,NA,NA,NA,NA,NA,NA
"19925","setup1",NA,"animation","124","2192862","0.0-3.0-76.0","2","2020-1-7 20:40:28","FISH",NA,NA,"[{""cat"":13,""src"":4,""loc"":3},{""cat"":13,""src"":0,""loc"":4},{""cat"":13,""src"":14,""loc"":5},{""cat"":2,""src"":2,""loc"":8},{""cat"":2,""src"":4,""loc"":6},{""cat"":2,""src"":7,""loc"":7},{""cat"":3,""src"":12,""loc"":0},{""cat"":3,""src"":5,""loc"":2},{""cat"":3,""src"":6,""loc"":1}]","1","1104,1101,1102,1102,1103,1103,1102,1102,1103,10003",NA,NA,NA,NA,NA,NA,NA,NA,NA
"815","flanker_instructions","39","html-keyboard-response","125","2193685","0.0-3.0-77.0","2","2020-1-7 20:40:28","FISH",NA,NA,NA,NA,NA,NA,NA,NA,NA,NA,NA,NA,NA,NA
"475","flanker_test","39","image-keyboard-response","126","2195165","0.0-3.0-78.0-0.0","2","2020-1-7 20:40:28","FISH",NA,NA,NA,NA,NA,"congruent","right","TRUE",NA,NA,NA,NA,NA,NA
"528","flanker_test","37","image-keyboard-response","127","2196213","0.0-3.0-78.0-0.1","2","2020-1-7 20:40:28","FISH",NA,NA,NA,NA,NA,"congruent","left","TRUE",NA,NA,NA,NA,NA,NA
"431","flanker_test","39","image-keyboard-response","128","2197158","0.0-3.0-78.0-0.2","2","2020-1-7 20:40:28","FISH",NA,NA,NA,NA,NA,"incongruent","right","TRUE",NA,NA,NA,NA,NA,NA
"559","flanker_test","37","image-keyboard-response","129","2198050","0.0-3.0-78.0-0.3","2","2020-1-7 20:40:28","FISH",NA,NA,NA,NA,NA,"incongruent","left","TRUE",NA,NA,NA,NA,NA,NA
"22469","sort_trial",NA,"free-sort","130","2221138","0.0-3.0-79.0","2","2020-1-7 20:40:28","FISH",NA,NA,NA,NA,NA,NA,NA,NA,"[{""cat"":13,""src"":4,""x"":7,""y"":76},{""cat"":13,""src"":0,""x"":54,""y"":497},{""cat"":13,""src"":14,""x"":36,""y"":386},{""cat"":2,""src"":2,""x"":61,""y"":247},{""cat"":2,""src"":4,""x"":12,""y"":321},{""cat"":2,""src"":7,""x"":69,""y"":139},{""cat"":3,""src"":12,""x"":83,""y"":0},{""cat"":3,""src"":5,""x"":83,""y"":423},{""cat"":3,""src"":6,""x"":67,""y"":188}]","[{""cat"":""13"",""src"":""14"",""x"":0,""y"":0},{""cat"":""13"",""src"":""0"",""x"":0,""y"":0},{""cat"":""13"",""src"":""4"",""x"":0,""y"":0},{""cat"":""3"",""src"":""5"",""x"":0,""y"":0},{""cat"":""3"",""src"":""6"",""x"":0,""y"":0},{""cat"":""3"",""src"":""12"",""x"":0,""y"":0},{""cat"":""2"",""src"":""2"",""x"":0,""y"":0},{""cat"":""2"",""src"":""7"",""x"":0,""y"":0},{""cat"":""2"",""src"":""4"",""x"":0,""y"":0}]","[{""cat"":13,""src"":14,""loc"":5},{""cat"":13,""src"":0,""loc"":4},{""cat"":13,""src"":4,""loc"":3},{""cat"":3,""src"":5,""loc"":2},{""cat"":3,""src"":6,""loc"":1},{""cat"":3,""src"":12,""loc"":0},{""cat"":2,""src"":2,""loc"":8},{""cat"":2,""src"":7,""loc"":6},{""cat"":2,""src"":4,""loc"":7}]","7","3,3,3,13,13,13,2,2,2,12,6,5,4,0,14,7,4,2,0,1,2,3,4,5,6,7,8,5,4,3,2,1,0,7,8,6",NA
"890","sort_feedback","78","html-keyboard-response","131","2222032","0.0-3.0-80.0","2","2020-1-7 20:40:28","FISH",NA,NA,NA,NA,NA,NA,NA,NA,NA,NA,NA,NA,NA,NA
"19924","setup3",NA,"animation","132","2241958","0.0-3.0-81.0","2","2020-1-7 20:40:28","FISH",NA,NA,"[{""cat"":9,""src"":11,""loc"":6},{""cat"":2,""src"":8,""loc"":1},{""cat"":13,""src"":6,""loc"":4},{""cat"":2,""src"":11,""loc"":2},{""cat"":9,""src"":19,""loc"":7},{""cat"":13,""src"":14,""loc"":3},{""cat"":13,""src"":17,""loc"":5},{""cat"":2,""src"":15,""loc"":0},{""cat"":9,""src"":6,""loc"":8}]","3","1103,1102,1102,1103,1102,1103,1102,1103,1102,10002",NA,NA,NA,NA,NA,NA,NA,NA,NA
"863","flanker_instructions","39","html-keyboard-response","133","2242824","0.0-3.0-82.0","2","2020-1-7 20:40:28","FISH",NA,NA,NA,NA,NA,NA,NA,NA,NA,NA,NA,NA,NA,NA
"564","flanker_test","37","image-keyboard-response","134","2244391","0.0-3.0-83.0-0.0","2","2020-1-7 20:40:28","FISH",NA,NA,NA,NA,NA,"incongruent","left","TRUE",NA,NA,NA,NA,NA,NA
"437","flanker_test","39","image-keyboard-response","135","2245466","0.0-3.0-83.0-0.1","2","2020-1-7 20:40:28","FISH",NA,NA,NA,NA,NA,"congruent","right","TRUE",NA,NA,NA,NA,NA,NA
"482","flanker_test","39","image-keyboard-response","136","2246904","0.0-3.0-83.0-0.2","2","2020-1-7 20:40:28","FISH",NA,NA,NA,NA,NA,"incongruent","right","TRUE",NA,NA,NA,NA,NA,NA
"448","flanker_test","37","image-keyboard-response","137","2248138","0.0-3.0-83.0-0.3","2","2020-1-7 20:40:28","FISH",NA,NA,NA,NA,NA,"congruent","left","TRUE",NA,NA,NA,NA,NA,NA
"18969","sort_trial",NA,"free-sort","138","2267868","0.0-3.0-84.0","2","2020-1-7 20:40:28","FISH",NA,NA,NA,NA,NA,NA,NA,NA,"[{""cat"":9,""src"":11,""x"":38,""y"":261},{""cat"":2,""src"":8,""x"":0,""y"":19},{""cat"":13,""src"":6,""x"":59,""y"":77},{""cat"":2,""src"":11,""x"":62,""y"":383},{""cat"":9,""src"":19,""x"":59,""y"":502},{""cat"":13,""src"":14,""x"":32,""y"":431},{""cat"":13,""src"":17,""x"":38,""y"":195},{""cat"":2,""src"":15,""x"":30,""y"":130},{""cat"":9,""src"":6,""x"":82,""y"":311}]","[{""cat"":""2"",""src"":""8"",""x"":0,""y"":0},{""cat"":""2"",""src"":""15"",""x"":0,""y"":0},{""cat"":""2"",""src"":""11"",""x"":0,""y"":0},{""cat"":""13"",""src"":""6"",""x"":0,""y"":0},{""cat"":""13"",""src"":""17"",""x"":0,""y"":0},{""cat"":""13"",""src"":""14"",""x"":0,""y"":0},{""cat"":""9"",""src"":""19"",""x"":0,""y"":0},{""cat"":""9"",""src"":""11"",""x"":0,""y"":0},{""cat"":""9"",""src"":""6"",""x"":0,""y"":0}]","[{""cat"":2,""src"":8,""loc"":1},{""cat"":2,""src"":15,""loc"":0},{""cat"":2,""src"":11,""loc"":2},{""cat"":13,""src"":6,""loc"":4},{""cat"":13,""src"":17,""loc"":5},{""cat"":13,""src"":14,""loc"":3},{""cat"":9,""src"":19,""loc"":7},{""cat"":9,""src"":11,""loc"":6},{""cat"":9,""src"":6,""loc"":8}]","9","2,2,2,13,13,13,9,9,9,15,8,11,14,6,17,11,19,6,0,1,2,3,4,5,6,7,8,1,0,2,5,3,4,7,6,8",NA
"39622","sort_feedback","77","html-keyboard-response","139","2307494","0.0-3.0-85.0","2","2020-1-7 20:40:28","FISH",NA,NA,NA,NA,NA,NA,NA,NA,NA,NA,NA,NA,NA,NA
"19930","setup2",NA,"animation","140","2327425","0.0-3.0-86.0","2","2020-1-7 20:40:28","FISH",NA,NA,"[{""cat"":18,""src"":9,""loc"":6},{""cat"":28,""src"":10,""loc"":7},{""cat"":9,""src"":10,""loc"":8},{""cat"":9,""src"":17,""loc"":1},{""cat"":18,""src"":12,""loc"":0},{""cat"":28,""src"":5,""loc"":2},{""cat"":18,""src"":19,""loc"":5},{""cat"":9,""src"":0,""loc"":4},{""cat"":28,""src"":13,""loc"":3}]","2","1104,1103,1109,1102,1102,1103,1102,1102,1102,10001",NA,NA,NA,NA,NA,NA,NA,NA,NA
"1062","flanker_instructions","39","html-keyboard-response","141","2328490","0.0-3.0-87.0","2","2020-1-7 20:40:28","FISH",NA,NA,NA,NA,NA,NA,NA,NA,NA,NA,NA,NA,NA,NA
"433","flanker_test","37","image-keyboard-response","142","2329927","0.0-3.0-88.0-0.0","2","2020-1-7 20:40:28","FISH",NA,NA,NA,NA,NA,"congruent","left","TRUE",NA,NA,NA,NA,NA,NA
"546","flanker_test","37","image-keyboard-response","143","2331423","0.0-3.0-88.0-0.1","2","2020-1-7 20:40:28","FISH",NA,NA,NA,NA,NA,"incongruent","left","TRUE",NA,NA,NA,NA,NA,NA
"496","flanker_test","39","image-keyboard-response","144","2332985","0.0-3.0-88.0-0.2","2","2020-1-7 20:40:28","FISH",NA,NA,NA,NA,NA,"incongruent","right","TRUE",NA,NA,NA,NA,NA,NA
"387","flanker_test","39","image-keyboard-response","145","2334272","0.0-3.0-88.0-0.3","2","2020-1-7 20:40:28","FISH",NA,NA,NA,NA,NA,"congruent","right","TRUE",NA,NA,NA,NA,NA,NA
"27286","sort_trial",NA,"free-sort","146","2362212","0.0-3.0-89.0","2","2020-1-7 20:40:28","FISH",NA,NA,NA,NA,NA,NA,NA,NA,"[{""cat"":18,""src"":9,""x"":66,""y"":434},{""cat"":28,""src"":10,""x"":56,""y"":266},{""cat"":9,""src"":10,""x"":21,""y"":378},{""cat"":9,""src"":17,""x"":10,""y"":79},{""cat"":18,""src"":12,""x"":1,""y"":488},{""cat"":28,""src"":5,""x"":59,""y"":21},{""cat"":18,""src"":19,""x"":60,""y"":326},{""cat"":9,""src"":0,""x"":34,""y"":126},{""cat"":28,""src"":13,""x"":18,""y"":184}]","[{""cat"":""28"",""src"":""5"",""x"":0,""y"":0},{""cat"":""9"",""src"":""17"",""x"":0,""y"":0},{""cat"":""18"",""src"":""19"",""x"":0,""y"":0},{""cat"":""9"",""src"":""0"",""x"":0,""y"":0},{""cat"":""28"",""src"":""13"",""x"":0,""y"":0},{""cat"":""18"",""src"":""9"",""x"":0,""y"":0},{""cat"":""9"",""src"":""10"",""x"":0,""y"":0},{""cat"":""28"",""src"":""10"",""x"":0,""y"":0},{""cat"":""18"",""src"":""12"",""x"":0,""y"":0}]","[{""cat"":28,""src"":5,""loc"":2},{""cat"":9,""src"":17,""loc"":1},{""cat"":18,""src"":19,""loc"":5},{""cat"":9,""src"":0,""loc"":4},{""cat"":28,""src"":13,""loc"":3},{""cat"":18,""src"":9,""loc"":6},{""cat"":9,""src"":10,""loc"":8},{""cat"":28,""src"":10,""loc"":7},{""cat"":18,""src"":12,""loc"":0}]","9","18,9,28,28,9,18,18,28,9,12,17,5,13,0,19,9,10,10,0,1,2,3,4,5,6,7,8,8,1,0,4,3,2,5,7,6",NA
"799","sort_feedback","74","html-keyboard-response","147","2363015","0.0-3.0-90.0","2","2020-1-7 20:40:28","FISH",NA,NA,NA,NA,NA,NA,NA,NA,NA,NA,NA,NA,NA,NA
"19925","setup4",NA,"animation","148","2382941","0.0-3.0-91.0","2","2020-1-7 20:40:28","FISH",NA,NA,"[{""cat"":12,""src"":13,""loc"":8},{""cat"":12,""src"":6,""loc"":5},{""cat"":12,""src"":4,""loc"":1},{""cat"":19,""src"":11,""loc"":4},{""cat"":19,""src"":4,""loc"":6},{""cat"":19,""src"":2,""loc"":2},{""cat"":23,""src"":10,""loc"":0},{""cat"":23,""src"":4,""loc"":7},{""cat"":23,""src"":5,""loc"":3}]","4","1104,1102,1103,1102,1102,1103,1102,1103,1103,10001",NA,NA,NA,NA,NA,NA,NA,NA,NA
"1441","flanker_instructions","39","html-keyboard-response","149","2384385","0.0-3.0-92.0","2","2020-1-7 20:40:28","FISH",NA,NA,NA,NA,NA,NA,NA,NA,NA,NA,NA,NA,NA,NA
"529","flanker_test","37","image-keyboard-response","150","2385918","0.0-3.0-93.0-0.0","2","2020-1-7 20:40:28","FISH",NA,NA,NA,NA,NA,"congruent","left","TRUE",NA,NA,NA,NA,NA,NA
"639","flanker_test","37","image-keyboard-response","151","2387369","0.0-3.0-93.0-0.1","2","2020-1-7 20:40:28","FISH",NA,NA,NA,NA,NA,"incongruent","left","TRUE",NA,NA,NA,NA,NA,NA
"425","flanker_test","39","image-keyboard-response","152","2388891","0.0-3.0-93.0-0.2","2","2020-1-7 20:40:28","FISH",NA,NA,NA,NA,NA,"congruent","right","TRUE",NA,NA,NA,NA,NA,NA
"535","flanker_test","39","image-keyboard-response","153","2389999","0.0-3.0-93.0-0.3","2","2020-1-7 20:40:28","FISH",NA,NA,NA,NA,NA,"incongruent","right","TRUE",NA,NA,NA,NA,NA,NA
"21513","sort_trial",NA,"free-sort","154","2412332","0.0-3.0-94.0","2","2020-1-7 20:40:28","FISH",NA,NA,NA,NA,NA,NA,NA,NA,"[{""cat"":12,""src"":13,""x"":7,""y"":147},{""cat"":12,""src"":6,""x"":75,""y"":250},{""cat"":12,""src"":4,""x"":51,""y"":364},{""cat"":19,""src"":11,""x"":11,""y"":82},{""cat"":19,""src"":4,""x"":46,""y"":6},{""cat"":19,""src"":2,""x"":83,""y"":448},{""cat"":23,""src"":10,""x"":46,""y"":207},{""cat"":23,""src"":4,""x"":70,""y"":300},{""cat"":23,""src"":5,""x"":78,""y"":503}]","[{""cat"":""12"",""src"":""4"",""x"":0,""y"":0},{""cat"":""23"",""src"":""10"",""x"":0,""y"":0},{""cat"":""19"",""src"":""2"",""x"":0,""y"":0},{""cat"":""23"",""src"":""4"",""x"":0,""y"":0},{""cat"":""19"",""src"":""11"",""x"":0,""y"":0},{""cat"":""12"",""src"":""13"",""x"":0,""y"":0},{""cat"":""19"",""src"":""4"",""x"":0,""y"":0},{""cat"":""12"",""src"":""6"",""x"":0,""y"":0},{""cat"":""23"",""src"":""5"",""x"":0,""y"":0}]","[{""cat"":12,""src"":4,""loc"":1},{""cat"":23,""src"":10,""loc"":0},{""cat"":19,""src"":2,""loc"":2},{""cat"":23,""src"":4,""loc"":7},{""cat"":19,""src"":11,""loc"":4},{""cat"":12,""src"":13,""loc"":8},{""cat"":19,""src"":4,""loc"":6},{""cat"":12,""src"":6,""loc"":3},{""cat"":23,""src"":5,""loc"":5}]","7","23,12,19,12,19,23,19,23,12,10,4,2,6,11,5,4,4,13,0,1,2,3,4,5,6,7,8,1,0,2,7,4,8,6,3,5",NA
"533","sort_feedback","74","html-keyboard-response","155","2412870","0.0-3.0-95.0","2","2020-1-7 20:40:28","FISH",NA,NA,NA,NA,NA,NA,NA,NA,NA,NA,NA,NA,NA,NA
"19930","setup5",NA,"animation","156","2432801","0.0-3.0-96.0","2","2020-1-7 20:40:28","FISH",NA,NA,"[{""cat"":22,""src"":14,""loc"":2},{""cat"":9,""src"":9,""loc"":7},{""cat"":17,""src"":7,""loc"":4},{""cat"":22,""src"":18,""loc"":6},{""cat"":9,""src"":19,""loc"":3},{""cat"":17,""src"":17,""loc"":1},{""cat"":17,""src"":3,""loc"":8},{""cat"":22,""src"":13,""loc"":5},{""cat"":9,""src"":3,""loc"":0}]","5","1106,1103,1102,1103,1102,1103,1104,1102,1104,10001",NA,NA,NA,NA,NA,NA,NA,NA,NA
"854","flanker_instructions","39","html-keyboard-response","157","2433658","0.0-3.0-97.0","2","2020-1-7 20:40:28","FISH",NA,NA,NA,NA,NA,NA,NA,NA,NA,NA,NA,NA,NA,NA
"609","flanker_test","37","image-keyboard-response","158","2435273","0.0-3.0-98.0-0.0","2","2020-1-7 20:40:28","FISH",NA,NA,NA,NA,NA,"incongruent","left","TRUE",NA,NA,NA,NA,NA,NA
"522","flanker_test","37","image-keyboard-response","159","2436869","0.0-3.0-98.0-0.1","2","2020-1-7 20:40:28","FISH",NA,NA,NA,NA,NA,"congruent","left","TRUE",NA,NA,NA,NA,NA,NA
"450","flanker_test","39","image-keyboard-response","160","2438397","0.0-3.0-98.0-0.2","2","2020-1-7 20:40:28","FISH",NA,NA,NA,NA,NA,"congruent","right","TRUE",NA,NA,NA,NA,NA,NA
"651","flanker_test","39","image-keyboard-response","161","2439678","0.0-3.0-98.0-0.3","2","2020-1-7 20:40:28","FISH",NA,NA,NA,NA,NA,"incongruent","right","TRUE",NA,NA,NA,NA,NA,NA
"21403","sort_trial",NA,"free-sort","162","2461903","0.0-3.0-99.0","2","2020-1-7 20:40:28","FISH",NA,NA,NA,NA,NA,NA,NA,NA,"[{""cat"":22,""src"":14,""x"":12,""y"":21},{""cat"":9,""src"":9,""x"":38,""y"":490},{""cat"":17,""src"":7,""x"":28,""y"":87},{""cat"":22,""src"":18,""x"":38,""y"":135},{""cat"":9,""src"":19,""x"":33,""y"":384},{""cat"":17,""src"":17,""x"":14,""y"":250},{""cat"":17,""src"":3,""x"":6,""y"":194},{""cat"":22,""src"":13,""x"":32,""y"":317},{""cat"":9,""src"":3,""x"":37,""y"":445}]","[{""cat"":""17"",""src"":""17"",""x"":0,""y"":0},{""cat"":""9"",""src"":""3"",""x"":0,""y"":0},{""cat"":""22"",""src"":""14"",""x"":0,""y"":0},{""cat"":""17"",""src"":""7"",""x"":0,""y"":0},{""cat"":""9"",""src"":""19"",""x"":0,""y"":0},{""cat"":""17"",""src"":""3"",""x"":0,""y"":0},{""cat"":""22"",""src"":""18"",""x"":0,""y"":0},{""cat"":""22"",""src"":""13"",""x"":0,""y"":0},{""cat"":""9"",""src"":""9"",""x"":0,""y"":0}]","[{""cat"":17,""src"":17,""loc"":1},{""cat"":9,""src"":3,""loc"":0},{""cat"":22,""src"":14,""loc"":2},{""cat"":17,""src"":7,""loc"":4},{""cat"":9,""src"":19,""loc"":7},{""cat"":17,""src"":3,""loc"":8},{""cat"":22,""src"":18,""loc"":6},{""cat"":22,""src"":13,""loc"":3},{""cat"":9,""src"":9,""loc"":5}]","6","9,17,22,22,17,9,22,9,17,3,17,14,13,7,9,18,19,3,0,1,2,3,4,5,6,7,8,1,0,2,7,3,8,6,4,5",NA
"30735","sort_feedback","76","html-keyboard-response","163","2492642","0.0-3.0-100.0","2","2020-1-7 20:40:28","FISH",NA,NA,NA,NA,NA,NA,NA,NA,NA,NA,NA,NA,NA,NA
"4438","breakStart","76","html-keyboard-response","164","2522660","0.0-4.0-0.0","2","2020-1-7 20:40:28","FISH",NA,NA,NA,NA,NA,NA,NA,NA,NA,NA,NA,NA,NA,NA
"16492","breakEnd",NA,"html-button-response","165","2539157","0.0-4.0-1.0","2","2020-1-7 20:40:28","FISH","0",NA,NA,NA,NA,NA,NA,NA,NA,NA,NA,NA,NA,NA
"19927","setup5",NA,"animation","166","2559086","0.0-5.0-0.0","2","2020-1-7 20:40:28","FISH",NA,NA,"[{""cat"":6,""src"":4,""loc"":0},{""cat"":7,""src"":19,""loc"":5},{""cat"":11,""src"":19,""loc"":6},{""cat"":6,""src"":18,""loc"":4},{""cat"":11,""src"":6,""loc"":2},{""cat"":7,""src"":4,""loc"":7},{""cat"":7,""src"":2,""loc"":1},{""cat"":6,""src"":11,""loc"":8},{""cat"":11,""src"":11,""loc"":3}]","5","1105,1105,1102,1101,1103,1102,1102,1102,1103,10001",NA,NA,NA,NA,NA,NA,NA,NA,NA
"960","flanker_instructions","39","html-keyboard-response","167","2560050","0.0-5.0-1.0","2","2020-1-7 20:40:28","FISH",NA,NA,NA,NA,NA,NA,NA,NA,NA,NA,NA,NA,NA,NA
"621","flanker_test","37","image-keyboard-response","168","2561675","0.0-5.0-2.0-0.0","2","2020-1-7 20:40:28","FISH",NA,NA,NA,NA,NA,"congruent","left","TRUE",NA,NA,NA,NA,NA,NA
"550","flanker_test","39","image-keyboard-response","169","2563426","0.0-5.0-2.0-0.1","2","2020-1-7 20:40:28","FISH",NA,NA,NA,NA,NA,"incongruent","right","TRUE",NA,NA,NA,NA,NA,NA
"593","flanker_test","37","image-keyboard-response","170","2564478","0.0-5.0-2.0-0.2","2","2020-1-7 20:40:28","FISH",NA,NA,NA,NA,NA,"incongruent","left","TRUE",NA,NA,NA,NA,NA,NA
"562","flanker_test","39","image-keyboard-response","171","2565539","0.0-5.0-2.0-0.3","2","2020-1-7 20:40:28","FISH",NA,NA,NA,NA,NA,"congruent","right","TRUE",NA,NA,NA,NA,NA,NA
"28415","sort_trial",NA,"free-sort","172","2594787","0.0-5.0-3.0","2","2020-1-7 20:40:28","FISH",NA,NA,NA,NA,NA,NA,NA,NA,"[{""cat"":6,""src"":4,""x"":4,""y"":313},{""cat"":7,""src"":19,""x"":57,""y"":85},{""cat"":11,""src"":19,""x"":36,""y"":126},{""cat"":6,""src"":18,""x"":44,""y"":424},{""cat"":11,""src"":6,""x"":37,""y"":500},{""cat"":7,""src"":4,""x"":53,""y"":10},{""cat"":7,""src"":2,""x"":64,""y"":384},{""cat"":6,""src"":11,""x"":72,""y"":241},{""cat"":11,""src"":11,""x"":35,""y"":184}]","[{""cat"":""11"",""src"":""19"",""x"":0,""y"":0},{""cat"":""7"",""src"":""4"",""x"":0,""y"":0},{""cat"":""6"",""src"":""11"",""x"":0,""y"":0},{""cat"":""6"",""src"":""4"",""x"":11,""y"":271},{""cat"":""11"",""src"":""6"",""x"":0,""y"":0},{""cat"":""11"",""src"":""11"",""x"":0,""y"":0},{""cat"":""6"",""src"":""4"",""x"":0,""y"":0},{""cat"":""7"",""src"":""19"",""x"":0,""y"":0},{""cat"":""7"",""src"":""2"",""x"":0,""y"":0},{""cat"":""6"",""src"":""18"",""x"":0,""y"":0}]","[{""cat"":11,""src"":19,""loc"":6},{""cat"":7,""src"":4,""loc"":7},{""cat"":6,""src"":11,""loc"":8},{""cat"":11,""src"":6,""loc"":2},{""cat"":11,""src"":11,""loc"":1},{""cat"":6,""src"":4,""loc"":0},{""cat"":7,""src"":19,""loc"":3},{""cat"":7,""src"":2,""loc"":4},{""cat"":6,""src"":18,""loc"":5}]","5","6,11,11,7,7,6,11,7,6,4,11,6,19,2,18,19,4,11,0,1,2,3,4,5,6,7,8,5,4,3,6,7,8,0,1,2",NA
"28611","sort_feedback","75","html-keyboard-response","173","2623403","0.0-5.0-4.0","2","2020-1-7 20:40:28","FISH",NA,NA,NA,NA,NA,NA,NA,NA,NA,NA,NA,NA,NA,NA
"19928","setup1",NA,"animation","174","2643333","0.0-5.0-5.0","2","2020-1-7 20:40:28","FISH",NA,NA,"[{""cat"":29,""src"":6,""loc"":4},{""cat"":29,""src"":9,""loc"":3},{""cat"":29,""src"":13,""loc"":5},{""cat"":9,""src"":14,""loc"":8},{""cat"":9,""src"":4,""loc"":7},{""cat"":9,""src"":10,""loc"":6},{""cat"":19,""src"":18,""loc"":0},{""cat"":19,""src"":8,""loc"":2},{""cat"":19,""src"":6,""loc"":1}]","1","1104,1103,1102,1102,1102,1102,1104,1105,1104,10000",NA,NA,NA,NA,NA,NA,NA,NA,NA
"802","flanker_instructions","39","html-keyboard-response","175","2644138","0.0-5.0-6.0","2","2020-1-7 20:40:28","FISH",NA,NA,NA,NA,NA,NA,NA,NA,NA,NA,NA,NA,NA,NA
"490","flanker_test","37","image-keyboard-response","176","2645633","0.0-5.0-7.0-0.0","2","2020-1-7 20:40:28","FISH",NA,NA,NA,NA,NA,"incongruent","left","TRUE",NA,NA,NA,NA,NA,NA
"544","flanker_test","37","image-keyboard-response","177","2646595","0.0-5.0-7.0-0.1","2","2020-1-7 20:40:28","FISH",NA,NA,NA,NA,NA,"congruent","left","TRUE",NA,NA,NA,NA,NA,NA
"398","flanker_test","39","image-keyboard-response","178","2647895","0.0-5.0-7.0-0.2","2","2020-1-7 20:40:28","FISH",NA,NA,NA,NA,NA,"congruent","right","TRUE",NA,NA,NA,NA,NA,NA
"862","flanker_test","39","image-keyboard-response","179","2649716","0.0-5.0-7.0-0.3","2","2020-1-7 20:40:28","FISH",NA,NA,NA,NA,NA,"incongruent","right","TRUE",NA,NA,NA,NA,NA,NA
"28358","sort_trial",NA,"free-sort","180","2678872","0.0-5.0-8.0","2","2020-1-7 20:40:28","FISH",NA,NA,NA,NA,NA,NA,NA,NA,"[{""cat"":29,""src"":6,""x"":29,""y"":248},{""cat"":29,""src"":9,""x"":8,""y"":302},{""cat"":29,""src"":13,""x"":36,""y"":445},{""cat"":9,""src"":14,""x"":55,""y"":79},{""cat"":9,""src"":4,""x"":13,""y"":193},{""cat"":9,""src"":10,""x"":57,""y"":362},{""cat"":19,""src"":18,""x"":37,""y"":496},{""cat"":19,""src"":8,""x"":71,""y"":9},{""cat"":19,""src"":6,""x"":81,""y"":141}]","[{""cat"":""19"",""src"":""6"",""x"":0,""y"":0},{""cat"":""19"",""src"":""18"",""x"":0,""y"":0},{""cat"":""19"",""src"":""8"",""x"":0,""y"":0},{""cat"":""9"",""src"":""4"",""x"":13,""y"":193},{""cat"":""29"",""src"":""9"",""x"":0,""y"":0},{""cat"":""29"",""src"":""13"",""x"":0,""y"":0},{""cat"":""29"",""src"":""6"",""x"":0,""y"":0},{""cat"":""9"",""src"":""10"",""x"":0,""y"":0},{""cat"":""9"",""src"":""4"",""x"":0,""y"":0},{""cat"":""9"",""src"":""14"",""x"":0,""y"":0}]","[{""cat"":19,""src"":6,""loc"":1},{""cat"":19,""src"":18,""loc"":0},{""cat"":19,""src"":8,""loc"":2},{""cat"":29,""src"":9,""loc"":3},{""cat"":29,""src"":13,""loc"":4},{""cat"":29,""src"":6,""loc"":5},{""cat"":9,""src"":10,""loc"":6},{""cat"":9,""src"":4,""loc"":8},{""cat"":9,""src"":14,""loc"":7}]","5","19,19,19,29,29,29,9,9,9,18,6,8,9,13,6,10,14,4,0,1,2,3,4,5,6,7,8,1,0,2,3,4,5,6,8,7",NA
"16567","sort_feedback","74","html-keyboard-response","181","2695444","0.0-5.0-9.0","2","2020-1-7 20:40:28","FISH",NA,NA,NA,NA,NA,NA,NA,NA,NA,NA,NA,NA,NA,NA
"19927","setup4",NA,"animation","182","2715372","0.0-5.0-10.0","2","2020-1-7 20:40:28","FISH",NA,NA,"[{""cat"":24,""src"":18,""loc"":8},{""cat"":24,""src"":7,""loc"":0},{""cat"":24,""src"":9,""loc"":4},{""cat"":16,""src"":4,""loc"":6},{""cat"":16,""src"":10,""loc"":5},{""cat"":16,""src"":8,""loc"":1},{""cat"":2,""src"":2,""loc"":3},{""cat"":2,""src"":19,""loc"":2},{""cat"":2,""src"":8,""loc"":7}]","4","1105,1102,1102,1102,1102,1104,1103,1104,1102,10001",NA,NA,NA,NA,NA,NA,NA,NA,NA
"1248","flanker_instructions","39","html-keyboard-response","183","2716623","0.0-5.0-11.0","2","2020-1-7 20:40:28","FISH",NA,NA,NA,NA,NA,NA,NA,NA,NA,NA,NA,NA,NA,NA
"525","flanker_test","37","image-keyboard-response","184","2718151","0.0-5.0-12.0-0.0","2","2020-1-7 20:40:28","FISH",NA,NA,NA,NA,NA,"congruent","left","TRUE",NA,NA,NA,NA,NA,NA
"445","flanker_test","37","image-keyboard-response","185","2718941","0.0-5.0-12.0-0.1","2","2020-1-7 20:40:28","FISH",NA,NA,NA,NA,NA,"incongruent","left","TRUE",NA,NA,NA,NA,NA,NA
"475","flanker_test","39","image-keyboard-response","186","2720178","0.0-5.0-12.0-0.2","2","2020-1-7 20:40:28","FISH",NA,NA,NA,NA,NA,"congruent","right","TRUE",NA,NA,NA,NA,NA,NA
"504","flanker_test","37","image-keyboard-response","187","2721387","0.0-5.0-12.0-0.3","2","2020-1-7 20:40:28","FISH",NA,NA,NA,NA,NA,"incongruent","right","FALSE",NA,NA,NA,NA,NA,NA
"22655","sort_trial",NA,"free-sort","188","2744690","0.0-5.0-13.0","2","2020-1-7 20:40:28","FISH",NA,NA,NA,NA,NA,NA,NA,NA,"[{""cat"":24,""src"":18,""x"":77,""y"":120},{""cat"":24,""src"":7,""x"":79,""y"":192},{""cat"":24,""src"":9,""x"":50,""y"":259},{""cat"":16,""src"":4,""x"":39,""y"":80},{""cat"":16,""src"":10,""x"":17,""y"":441},{""cat"":16,""src"":8,""x"":25,""y"":488},{""cat"":2,""src"":2,""x"":17,""y"":10},{""cat"":2,""src"":19,""x"":46,""y"":324},{""cat"":2,""src"":8,""x"":41,""y"":360}]","[{""cat"":""2"",""src"":""8"",""x"":0,""y"":0},{""cat"":""16"",""src"":""4"",""x"":0,""y"":0},{""cat"":""24"",""src"":""18"",""x"":0,""y"":0},{""cat"":""24"",""src"":""7"",""x"":0,""y"":0},{""cat"":""24"",""src"":""9"",""x"":0,""y"":0},{""cat"":""16"",""src"":""10"",""x"":0,""y"":0},{""cat"":""2"",""src"":""19"",""x"":0,""y"":0},{""cat"":""16"",""src"":""8"",""x"":0,""y"":0},{""cat"":""2"",""src"":""2"",""x"":0,""y"":0}]","[{""cat"":2,""src"":8,""loc"":7},{""cat"":16,""src"":4,""loc"":6},{""cat"":24,""src"":18,""loc"":8},{""cat"":24,""src"":7,""loc"":1},{""cat"":24,""src"":9,""loc"":4},{""cat"":16,""src"":10,""loc"":3},{""cat"":2,""src"":19,""loc"":0},{""cat"":16,""src"":8,""loc"":5},{""cat"":2,""src"":2,""loc"":2}]","4","2,24,2,16,24,16,16,2,24,19,7,2,10,9,8,4,8,18,0,1,2,3,4,5,6,7,8,6,3,8,5,4,7,1,0,2",NA
"14720","sort_feedback","74","html-keyboard-response","189","2759414","0.0-5.0-14.0","2","2020-1-7 20:40:28","FISH",NA,NA,NA,NA,NA,NA,NA,NA,NA,NA,NA,NA,NA,NA
"19931","setup3",NA,"animation","190","2779346","0.0-5.0-15.0","2","2020-1-7 20:40:28","FISH",NA,NA,"[{""cat"":22,""src"":12,""loc"":2},{""cat"":24,""src"":7,""loc"":3},{""cat"":29,""src"":4,""loc"":7},{""cat"":22,""src"":15,""loc"":1},{""cat"":24,""src"":8,""loc"":4},{""cat"":29,""src"":11,""loc"":8},{""cat"":29,""src"":14,""loc"":6},{""cat"":24,""src"":3,""loc"":5},{""cat"":22,""src"":7,""loc"":0}]","3","1106,1102,1103,1103,1103,1102,1103,1103,1106,10000",NA,NA,NA,NA,NA,NA,NA,NA,NA
"1041","flanker_instructions","39","html-keyboard-response","191","2780391","0.0-5.0-16.0","2","2020-1-7 20:40:28","FISH",NA,NA,NA,NA,NA,NA,NA,NA,NA,NA,NA,NA,NA,NA
"531","flanker_test","37","image-keyboard-response","192","2781928","0.0-5.0-17.0-0.0","2","2020-1-7 20:40:28","FISH",NA,NA,NA,NA,NA,"congruent","left","TRUE",NA,NA,NA,NA,NA,NA
"535","flanker_test","37","image-keyboard-response","193","2783203","0.0-5.0-17.0-0.1","2","2020-1-7 20:40:28","FISH",NA,NA,NA,NA,NA,"incongruent","left","TRUE",NA,NA,NA,NA,NA,NA
"460","flanker_test","39","image-keyboard-response","194","2784181","0.0-5.0-17.0-0.2","2","2020-1-7 20:40:28","FISH",NA,NA,NA,NA,NA,"congruent","right","TRUE",NA,NA,NA,NA,NA,NA
"562","flanker_test","39","image-keyboard-response","195","2785639","0.0-5.0-17.0-0.3","2","2020-1-7 20:40:28","FISH",NA,NA,NA,NA,NA,"incongruent","right","TRUE",NA,NA,NA,NA,NA,NA
"23110","sort_trial",NA,"free-sort","196","2809803","0.0-5.0-18.0","2","2020-1-7 20:40:28","FISH",NA,NA,NA,NA,NA,NA,NA,NA,"[{""cat"":22,""src"":12,""x"":57,""y"":190},{""cat"":24,""src"":7,""x"":82,""y"":24},{""cat"":29,""src"":4,""x"":42,""y"":389},{""cat"":22,""src"":15,""x"":6,""y"":305},{""cat"":24,""src"":8,""x"":20,""y"":420},{""cat"":29,""src"":11,""x"":4,""y"":268},{""cat"":29,""src"":14,""x"":10,""y"":479},{""cat"":24,""src"":3,""x"":50,""y"":84},{""cat"":22,""src"":7,""x"":12,""y"":127}]","[{""cat"":""22"",""src"":""15"",""x"":0,""y"":0},{""cat"":""22"",""src"":""12"",""x"":0,""y"":0},{""cat"":""29"",""src"":""4"",""x"":0,""y"":0},{""cat"":""29"",""src"":""11"",""x"":0,""y"":0},{""cat"":""24"",""src"":""8"",""x"":0,""y"":0},{""cat"":""29"",""src"":""14"",""x"":0,""y"":0},{""cat"":""24"",""src"":""7"",""x"":0,""y"":0},{""cat"":""24"",""src"":""3"",""x"":0,""y"":0},{""cat"":""22"",""src"":""7"",""x"":0,""y"":0}]","[{""cat"":22,""src"":15,""loc"":1},{""cat"":22,""src"":12,""loc"":2},{""cat"":29,""src"":4,""loc"":6},{""cat"":29,""src"":11,""loc"":8},{""cat"":24,""src"":8,""loc"":4},{""cat"":29,""src"":14,""loc"":7},{""cat"":24,""src"":7,""loc"":3},{""cat"":24,""src"":3,""loc"":5},{""cat"":22,""src"":7,""loc"":0}]","7","22,22,22,24,24,24,29,29,29,7,15,12,7,8,3,4,14,11,0,1,2,3,4,5,6,7,8,8,0,1,6,4,7,2,5,3",NA
"51283","sort_feedback","74","html-keyboard-response","197","2861091","0.0-5.0-19.0","2","2020-1-7 20:40:28","FISH",NA,NA,NA,NA,NA,NA,NA,NA,NA,NA,NA,NA,NA,NA
"19927","setup2",NA,"animation","198","2881021","0.0-5.0-20.0","2","2020-1-7 20:40:28","FISH",NA,NA,"[{""cat"":16,""src"":15,""loc"":2},{""cat"":8,""src"":2,""loc"":1},{""cat"":25,""src"":7,""loc"":0},{""cat"":8,""src"":12,""loc"":8},{""cat"":16,""src"":1,""loc"":7},{""cat"":25,""src"":15,""loc"":6},{""cat"":16,""src"":7,""loc"":3},{""cat"":25,""src"":9,""loc"":4},{""cat"":8,""src"":8,""loc"":5}]","2","1104,1102,1103,1103,1102,1101,1104,1103,1103,10002",NA,NA,NA,NA,NA,NA,NA,NA,NA
"1930","flanker_instructions","39","html-keyboard-response","199","2882954","0.0-5.0-21.0","2","2020-1-7 20:40:28","FISH",NA,NA,NA,NA,NA,NA,NA,NA,NA,NA,NA,NA,NA,NA
"658","flanker_test","39","image-keyboard-response","200","2884616","0.0-5.0-22.0-0.0","2","2020-1-7 20:40:28","FISH",NA,NA,NA,NA,NA,"incongruent","right","TRUE",NA,NA,NA,NA,NA,NA
"447","flanker_test","37","image-keyboard-response","201","2886086","0.0-5.0-22.0-0.1","2","2020-1-7 20:40:28","FISH",NA,NA,NA,NA,NA,"congruent","left","TRUE",NA,NA,NA,NA,NA,NA
"588","flanker_test","37","image-keyboard-response","202","2887169","0.0-5.0-22.0-0.2","2","2020-1-7 20:40:28","FISH",NA,NA,NA,NA,NA,"incongruent","left","TRUE",NA,NA,NA,NA,NA,NA
"417","flanker_test","39","image-keyboard-response","203","2888345","0.0-5.0-22.0-0.3","2","2020-1-7 20:40:28","FISH",NA,NA,NA,NA,NA,"congruent","right","TRUE",NA,NA,NA,NA,NA,NA
"22707","sort_trial",NA,"free-sort","204","2912078","0.0-5.0-23.0","2","2020-1-7 20:40:28","FISH",NA,NA,NA,NA,NA,NA,NA,NA,"[{""cat"":16,""src"":15,""x"":22,""y"":19},{""cat"":8,""src"":2,""x"":57,""y"":313},{""cat"":25,""src"":7,""x"":13,""y"":425},{""cat"":8,""src"":12,""x"":52,""y"":77},{""cat"":16,""src"":1,""x"":80,""y"":259},{""cat"":25,""src"":15,""x"":72,""y"":497},{""cat"":16,""src"":7,""x"":77,""y"":198},{""cat"":25,""src"":9,""x"":68,""y"":373},{""cat"":8,""src"":8,""x"":68,""y"":123}]","[{""cat"":""25"",""src"":""9"",""x"":0,""y"":0},{""cat"":""25"",""src"":""15"",""x"":0,""y"":0},{""cat"":""25"",""src"":""7"",""x"":0,""y"":0},{""cat"":""16"",""src"":""7"",""x"":0,""y"":0},{""cat"":""8"",""src"":""2"",""x"":0,""y"":0},{""cat"":""16"",""src"":""1"",""x"":0,""y"":0},{""cat"":""16"",""src"":""15"",""x"":0,""y"":0},{""cat"":""8"",""src"":""12"",""x"":0,""y"":0},{""cat"":""8"",""src"":""8"",""x"":0,""y"":0}]","[{""cat"":25,""src"":9,""loc"":4},{""cat"":25,""src"":15,""loc"":8},{""cat"":25,""src"":7,""loc"":0},{""cat"":16,""src"":7,""loc"":3},{""cat"":8,""src"":2,""loc"":6},{""cat"":16,""src"":1,""loc"":1},{""cat"":16,""src"":15,""loc"":2},{""cat"":8,""src"":12,""loc"":7},{""cat"":8,""src"":8,""loc"":5}]","5","25,16,16,16,25,8,8,8,25,7,1,15,7,9,8,2,12,15,0,1,2,3,4,5,6,7,8,2,5,6,3,0,8,4,7,1",NA
"620","sort_feedback","74","html-keyboard-response","205","2912702","0.0-5.0-24.0","2","2020-1-7 20:40:28","FISH",NA,NA,NA,NA,NA,NA,NA,NA,NA,NA,NA,NA,NA,NA
"19922","setup4",NA,"animation","206","2932625","0.0-5.0-25.0","2","2020-1-7 20:40:28","FISH",NA,NA,"[{""cat"":7,""src"":1,""loc"":1},{""cat"":7,""src"":13,""loc"":5},{""cat"":7,""src"":5,""loc"":6},{""cat"":24,""src"":7,""loc"":4},{""cat"":24,""src"":0,""loc"":2},{""cat"":24,""src"":16,""loc"":8},{""cat"":3,""src"":17,""loc"":7},{""cat"":3,""src"":1,""loc"":3},{""cat"":3,""src"":8,""loc"":0}]","4","1104,1102,1102,1102,1102,1102,1102,1103,1102,10001",NA,NA,NA,NA,NA,NA,NA,NA,NA
"1613","flanker_instructions","39","html-keyboard-response","207","2934241","0.0-5.0-26.0","2","2020-1-7 20:40:28","FISH",NA,NA,NA,NA,NA,NA,NA,NA,NA,NA,NA,NA,NA,NA
"668","flanker_test","37","image-keyboard-response","208","2935915","0.0-5.0-27.0-0.0","2","2020-1-7 20:40:28","FISH",NA,NA,NA,NA,NA,"incongruent","left","TRUE",NA,NA,NA,NA,NA,NA
"419","flanker_test","39","image-keyboard-response","209","2936954","0.0-5.0-27.0-0.1","2","2020-1-7 20:40:28","FISH",NA,NA,NA,NA,NA,"incongruent","right","TRUE",NA,NA,NA,NA,NA,NA
"450","flanker_test","37","image-keyboard-response","210","2938533","0.0-5.0-27.0-0.2","2","2020-1-7 20:40:28","FISH",NA,NA,NA,NA,NA,"congruent","left","TRUE",NA,NA,NA,NA,NA,NA
"465","flanker_test","39","image-keyboard-response","211","2939909","0.0-5.0-27.0-0.3","2","2020-1-7 20:40:28","FISH",NA,NA,NA,NA,NA,"congruent","right","TRUE",NA,NA,NA,NA,NA,NA
"22346","sort_trial",NA,"free-sort","212","2963431","0.0-5.0-28.0","2","2020-1-7 20:40:28","FISH",NA,NA,NA,NA,NA,NA,NA,NA,"[{""cat"":7,""src"":1,""x"":5,""y"":26},{""cat"":7,""src"":13,""x"":30,""y"":195},{""cat"":7,""src"":5,""x"":33,""y"":254},{""cat"":24,""src"":7,""x"":72,""y"":127},{""cat"":24,""src"":0,""x"":44,""y"":328},{""cat"":24,""src"":16,""x"":33,""y"":498},{""cat"":3,""src"":17,""x"":72,""y"":364},{""cat"":3,""src"":1,""x"":10,""y"":64},{""cat"":3,""src"":8,""x"":61,""y"":425}]","[{""cat"":""7"",""src"":""1"",""x"":0,""y"":0},{""cat"":""7"",""src"":""13"",""x"":0,""y"":0},{""cat"":""7"",""src"":""5"",""x"":0,""y"":0},{""cat"":""24"",""src"":""0"",""x"":0,""y"":0},{""cat"":""3"",""src"":""17"",""x"":0,""y"":0},{""cat"":""3"",""src"":""8"",""x"":0,""y"":0},{""cat"":""3"",""src"":""1"",""x"":0,""y"":0},{""cat"":""24"",""src"":""7"",""x"":0,""y"":0},{""cat"":""24"",""src"":""16"",""x"":0,""y"":0}]","[{""cat"":7,""src"":1,""loc"":1},{""cat"":7,""src"":13,""loc"":5},{""cat"":7,""src"":5,""loc"":6},{""cat"":24,""src"":0,""loc"":2},{""cat"":3,""src"":17,""loc"":7},{""cat"":3,""src"":8,""loc"":0},{""cat"":3,""src"":1,""loc"":3},{""cat"":24,""src"":7,""loc"":4},{""cat"":24,""src"":16,""loc"":8}]","9","3,7,24,3,24,7,7,3,24,8,1,0,1,7,13,5,17,16,0,1,2,3,4,5,6,7,8,5,0,3,6,7,1,2,4,8",NA
"697","sort_feedback","74","html-keyboard-response","213","2964132","0.0-5.0-29.0","2","2020-1-7 20:40:28","FISH",NA,NA,NA,NA,NA,NA,NA,NA,NA,NA,NA,NA,NA,NA
"19929","setup5",NA,"animation","214","2984062","0.0-5.0-30.0","2","2020-1-7 20:40:28","FISH",NA,NA,"[{""cat"":25,""src"":18,""loc"":6},{""cat"":31,""src"":6,""loc"":3},{""cat"":1,""src"":2,""loc"":1},{""cat"":25,""src"":13,""loc"":5},{""cat"":31,""src"":4,""loc"":0},{""cat"":1,""src"":15,""loc"":8},{""cat"":31,""src"":3,""loc"":7},{""cat"":25,""src"":10,""loc"":2},{""cat"":1,""src"":8,""loc"":4}]","5","1106,1103,1104,1102,1103,1102,1102,1103,1103,10001",NA,NA,NA,NA,NA,NA,NA,NA,NA
"834","flanker_instructions","39","html-keyboard-response","215","2984899","0.0-5.0-31.0","2","2020-1-7 20:40:28","FISH",NA,NA,NA,NA,NA,NA,NA,NA,NA,NA,NA,NA,NA,NA
"604","flanker_test","39","image-keyboard-response","216","2986511","0.0-5.0-32.0-0.0","2","2020-1-7 20:40:28","FISH",NA,NA,NA,NA,NA,"incongruent","right","TRUE",NA,NA,NA,NA,NA,NA
"680","flanker_test","39","image-keyboard-response","217","2988147","0.0-5.0-32.0-0.1","2","2020-1-7 20:40:28","FISH",NA,NA,NA,NA,NA,"congruent","right","TRUE",NA,NA,NA,NA,NA,NA
"597","flanker_test","37","image-keyboard-response","218","2989391","0.0-5.0-32.0-0.2","2","2020-1-7 20:40:28","FISH",NA,NA,NA,NA,NA,"incongruent","left","TRUE",NA,NA,NA,NA,NA,NA
"452","flanker_test","37","image-keyboard-response","219","2990671","0.0-5.0-32.0-0.3","2","2020-1-7 20:40:28","FISH",NA,NA,NA,NA,NA,"congruent","left","TRUE",NA,NA,NA,NA,NA,NA
"26344","sort_trial",NA,"free-sort","220","3017752","0.0-5.0-33.0","2","2020-1-7 20:40:28","FISH",NA,NA,NA,NA,NA,NA,NA,NA,"[{""cat"":25,""src"":18,""x"":24,""y"":315},{""cat"":31,""src"":6,""x"":42,""y"":501},{""cat"":1,""src"":2,""x"":2,""y"":27},{""cat"":25,""src"":13,""x"":19,""y"":267},{""cat"":31,""src"":4,""x"":34,""y"":86},{""cat"":1,""src"":15,""x"":37,""y"":441},{""cat"":31,""src"":3,""x"":62,""y"":193},{""cat"":25,""src"":10,""x"":41,""y"":133},{""cat"":1,""src"":8,""x"":51,""y"":375}]","[{""cat"":""25"",""src"":""13"",""x"":0,""y"":0},{""cat"":""25"",""src"":""18"",""x"":0,""y"":0},{""cat"":""1"",""src"":""8"",""x"":0,""y"":0},{""cat"":""31"",""src"":""6"",""x"":0,""y"":0},{""cat"":""1"",""src"":""15"",""x"":0,""y"":0},{""cat"":""31"",""src"":""3"",""x"":0,""y"":0},{""cat"":""1"",""src"":""2"",""x"":0,""y"":0},{""cat"":""31"",""src"":""4"",""x"":0,""y"":0},{""cat"":""25"",""src"":""10"",""x"":0,""y"":0}]","[{""cat"":25,""src"":13,""loc"":5},{""cat"":25,""src"":18,""loc"":6},{""cat"":1,""src"":8,""loc"":3},{""cat"":31,""src"":6,""loc"":4},{""cat"":1,""src"":15,""loc"":8},{""cat"":31,""src"":3,""loc"":7},{""cat"":1,""src"":2,""loc"":1},{""cat"":31,""src"":4,""loc"":2},{""cat"":25,""src"":10,""loc"":0}]","5","25,1,31,1,31,25,25,31,1,10,2,4,8,6,13,18,3,15,0,1,2,3,4,5,6,7,8,8,6,7,2,3,0,1,5,4",NA
"15338","sort_feedback","74","html-keyboard-response","221","3033093","0.0-5.0-34.0","2","2020-1-7 20:40:28","FISH",NA,NA,NA,NA,NA,NA,NA,NA,NA,NA,NA,NA,NA,NA
"19927","setup3",NA,"animation","222","3053021","0.0-5.0-35.0","2","2020-1-7 20:40:28","FISH",NA,NA,"[{""cat"":22,""src"":4,""loc"":6},{""cat"":3,""src"":4,""loc"":0},{""cat"":4,""src"":4,""loc"":5},{""cat"":22,""src"":5,""loc"":8},{""cat"":3,""src"":0,""loc"":2},{""cat"":4,""src"":12,""loc"":4},{""cat"":22,""src"":19,""loc"":7},{""cat"":4,""src"":14,""loc"":3},{""cat"":3,""src"":10,""loc"":1}]","3","1104,1103,1101,1104,1102,1102,1103,1102,1104,10002",NA,NA,NA,NA,NA,NA,NA,NA,NA
"1456","flanker_instructions","39","html-keyboard-response","223","3054480","0.0-5.0-36.0","2","2020-1-7 20:40:28","FISH",NA,NA,NA,NA,NA,NA,NA,NA,NA,NA,NA,NA,NA,NA
"561","flanker_test","37","image-keyboard-response","224","3056045","0.0-5.0-37.0-0.0","2","2020-1-7 20:40:28","FISH",NA,NA,NA,NA,NA,"incongruent","left","TRUE",NA,NA,NA,NA,NA,NA
"429","flanker_test","37","image-keyboard-response","225","3057612","0.0-5.0-37.0-0.1","2","2020-1-7 20:40:28","FISH",NA,NA,NA,NA,NA,"congruent","left","TRUE",NA,NA,NA,NA,NA,NA
"512","flanker_test","39","image-keyboard-response","226","3058770","0.0-5.0-37.0-0.2","2","2020-1-7 20:40:28","FISH",NA,NA,NA,NA,NA,"congruent","right","TRUE",NA,NA,NA,NA,NA,NA
"579","flanker_test","39","image-keyboard-response","227","3060014","0.0-5.0-37.0-0.3","2","2020-1-7 20:40:28","FISH",NA,NA,NA,NA,NA,"incongruent","right","TRUE",NA,NA,NA,NA,NA,NA
"21173","sort_trial",NA,"free-sort","228","3081867","0.0-5.0-38.0","2","2020-1-7 20:40:28","FISH",NA,NA,NA,NA,NA,NA,NA,NA,"[{""cat"":22,""src"":4,""x"":33,""y"":325},{""cat"":3,""src"":4,""x"":76,""y"":205},{""cat"":4,""src"":4,""x"":72,""y"":486},{""cat"":22,""src"":5,""x"":48,""y"":368},{""cat"":3,""src"":0,""x"":38,""y"":447},{""cat"":4,""src"":12,""x"":25,""y"":119},{""cat"":22,""src"":19,""x"":68,""y"":84},{""cat"":4,""src"":14,""x"":31,""y"":24},{""cat"":3,""src"":10,""x"":78,""y"":253}]","[{""cat"":""3"",""src"":""10"",""x"":0,""y"":0},{""cat"":""3"",""src"":""4"",""x"":0,""y"":0},{""cat"":""3"",""src"":""0"",""x"":0,""y"":0},{""cat"":""22"",""src"":""4"",""x"":0,""y"":0},{""cat"":""22"",""src"":""5"",""x"":0,""y"":0},{""cat"":""22"",""src"":""19"",""x"":0,""y"":0},{""cat"":""4"",""src"":""14"",""x"":0,""y"":0},{""cat"":""4"",""src"":""4"",""x"":0,""y"":0},{""cat"":""4"",""src"":""12"",""x"":0,""y"":0}]","[{""cat"":3,""src"":10,""loc"":1},{""cat"":3,""src"":4,""loc"":0},{""cat"":3,""src"":0,""loc"":2},{""cat"":22,""src"":4,""loc"":6},{""cat"":22,""src"":5,""loc"":8},{""cat"":22,""src"":19,""loc"":7},{""cat"":4,""src"":14,""loc"":3},{""cat"":4,""src"":4,""loc"":5},{""cat"":4,""src"":12,""loc"":4}]","9","3,3,3,4,4,4,22,22,22,4,10,0,14,12,4,4,19,5,0,1,2,3,4,5,6,7,8,1,0,2,6,8,7,3,5,4",NA
"6465","sort_feedback","73","html-keyboard-response","229","3088338","0.0-5.0-39.0","2","2020-1-7 20:40:28","FISH",NA,NA,NA,NA,NA,NA,NA,NA,NA,NA,NA,NA,NA,NA
"19924","setup1",NA,"animation","230","3108264","0.0-5.0-40.0","2","2020-1-7 20:40:28","FISH",NA,NA,"[{""cat"":27,""src"":14,""loc"":5},{""cat"":27,""src"":2,""loc"":3},{""cat"":27,""src"":13,""loc"":4},{""cat"":28,""src"":8,""loc"":6},{""cat"":28,""src"":15,""loc"":8},{""cat"":28,""src"":10,""loc"":7},{""cat"":9,""src"":14,""loc"":2},{""cat"":9,""src"":13,""loc"":1},{""cat"":9,""src"":2,""loc"":0}]","1","1104,1102,1102,1101,1102,1102,1103,1104,1103,10001",NA,NA,NA,NA,NA,NA,NA,NA,NA
"1666","flanker_instructions","39","html-keyboard-response","231","3109933","0.0-5.0-41.0","2","2020-1-7 20:40:28","FISH",NA,NA,NA,NA,NA,NA,NA,NA,NA,NA,NA,NA,NA,NA
"508","flanker_test","39","image-keyboard-response","232","3111445","0.0-5.0-42.0-0.0","2","2020-1-7 20:40:28","FISH",NA,NA,NA,NA,NA,"congruent","right","TRUE",NA,NA,NA,NA,NA,NA
"456","flanker_test","39","image-keyboard-response","233","3112732","0.0-5.0-42.0-0.1","2","2020-1-7 20:40:28","FISH",NA,NA,NA,NA,NA,"incongruent","right","TRUE",NA,NA,NA,NA,NA,NA
"527","flanker_test","37","image-keyboard-response","234","3113664","0.0-5.0-42.0-0.2","2","2020-1-7 20:40:28","FISH",NA,NA,NA,NA,NA,"incongruent","left","TRUE",NA,NA,NA,NA,NA,NA
"415","flanker_test","37","image-keyboard-response","235","3114999","0.0-5.0-42.0-0.3","2","2020-1-7 20:40:28","FISH",NA,NA,NA,NA,NA,"congruent","left","TRUE",NA,NA,NA,NA,NA,NA
"20512","sort_trial",NA,"free-sort","236","3136016","0.0-5.0-43.0","2","2020-1-7 20:40:28","FISH",NA,NA,NA,NA,NA,NA,NA,NA,"[{""cat"":27,""src"":14,""x"":55,""y"":137},{""cat"":27,""src"":2,""x"":33,""y"":316},{""cat"":27,""src"":13,""x"":6,""y"":7},{""cat"":28,""src"":8,""x"":37,""y"":71},{""cat"":28,""src"":15,""x"":54,""y"":183},{""cat"":28,""src"":10,""x"":23,""y"":249},{""cat"":9,""src"":14,""x"":71,""y"":494},{""cat"":9,""src"":13,""x"":55,""y"":448},{""cat"":9,""src"":2,""x"":23,""y"":366}]","[{""cat"":""9"",""src"":""13"",""x"":0,""y"":0},{""cat"":""9"",""src"":""2"",""x"":0,""y"":0},{""cat"":""9"",""src"":""14"",""x"":0,""y"":0},{""cat"":""27"",""src"":""2"",""x"":0,""y"":0},{""cat"":""27"",""src"":""13"",""x"":0,""y"":0},{""cat"":""27"",""src"":""14"",""x"":0,""y"":0},{""cat"":""28"",""src"":""15"",""x"":0,""y"":0},{""cat"":""28"",""src"":""8"",""x"":0,""y"":0},{""cat"":""28"",""src"":""10"",""x"":0,""y"":0}]","[{""cat"":9,""src"":13,""loc"":1},{""cat"":9,""src"":2,""loc"":0},{""cat"":9,""src"":14,""loc"":2},{""cat"":27,""src"":2,""loc"":3},{""cat"":27,""src"":13,""loc"":4},{""cat"":27,""src"":14,""loc"":5},{""cat"":28,""src"":15,""loc"":8},{""cat"":28,""src"":8,""loc"":6},{""cat"":28,""src"":10,""loc"":7}]","9","9,9,9,27,27,27,28,28,28,2,13,14,2,13,14,8,10,15,0,1,2,3,4,5,6,7,8,1,0,2,3,4,5,7,8,6",NA
"1099","sort_feedback","72","html-keyboard-response","237","3137118","0.0-5.0-44.0","2","2020-1-7 20:40:28","FISH",NA,NA,NA,NA,NA,NA,NA,NA,NA,NA,NA,NA,NA,NA
"19927","setup2",NA,"animation","238","3157046","0.0-5.0-45.0","2","2020-1-7 20:40:28","FISH",NA,NA,"[{""cat"":31,""src"":17,""loc"":2},{""cat"":14,""src"":15,""loc"":0},{""cat"":21,""src"":14,""loc"":1},{""cat"":21,""src"":9,""loc"":4},{""cat"":31,""src"":14,""loc"":3},{""cat"":14,""src"":18,""loc"":5},{""cat"":14,""src"":3,""loc"":8},{""cat"":21,""src"":2,""loc"":7},{""cat"":31,""src"":8,""loc"":6}]","2","1104,1102,1103,1103,1102,1103,1103,1102,1103,10002",NA,NA,NA,NA,NA,NA,NA,NA,NA
"1636","flanker_instructions","39","html-keyboard-response","239","3158686","0.0-5.0-46.0","2","2020-1-7 20:40:28","FISH",NA,NA,NA,NA,NA,NA,NA,NA,NA,NA,NA,NA,NA,NA
"577","flanker_test","39","image-keyboard-response","240","3160267","0.0-5.0-47.0-0.0","2","2020-1-7 20:40:28","FISH",NA,NA,NA,NA,NA,"incongruent","right","TRUE",NA,NA,NA,NA,NA,NA
"480","flanker_test","37","image-keyboard-response","241","3161355","0.0-5.0-47.0-0.1","2","2020-1-7 20:40:28","FISH",NA,NA,NA,NA,NA,"incongruent","left","TRUE",NA,NA,NA,NA,NA,NA
"423","flanker_test","37","image-keyboard-response","242","3162715","0.0-5.0-47.0-0.2","2","2020-1-7 20:40:28","FISH",NA,NA,NA,NA,NA,"congruent","left","TRUE",NA,NA,NA,NA,NA,NA
"434","flanker_test","39","image-keyboard-response","243","3164257","0.0-5.0-47.0-0.3","2","2020-1-7 20:40:28","FISH",NA,NA,NA,NA,NA,"congruent","right","TRUE",NA,NA,NA,NA,NA,NA
"21224","sort_trial",NA,"free-sort","244","3186684","0.0-5.0-48.0","2","2020-1-7 20:40:28","FISH",NA,NA,NA,NA,NA,NA,NA,NA,"[{""cat"":31,""src"":17,""x"":44,""y"":125},{""cat"":14,""src"":15,""x"":73,""y"":18},{""cat"":21,""src"":14,""x"":16,""y"":434},{""cat"":21,""src"":9,""x"":7,""y"":255},{""cat"":31,""src"":14,""x"":54,""y"":490},{""cat"":14,""src"":18,""x"":38,""y"":206},{""cat"":14,""src"":3,""x"":77,""y"":385},{""cat"":21,""src"":2,""x"":44,""y"":66},{""cat"":31,""src"":8,""x"":27,""y"":317}]","[{""cat"":""21"",""src"":""2"",""x"":0,""y"":0},{""cat"":""14"",""src"":""18"",""x"":0,""y"":0},{""cat"":""31"",""src"":""14"",""x"":0,""y"":0},{""cat"":""21"",""src"":""9"",""x"":0,""y"":0},{""cat"":""31"",""src"":""17"",""x"":0,""y"":0},{""cat"":""31"",""src"":""8"",""x"":0,""y"":0},{""cat"":""14"",""src"":""3"",""x"":0,""y"":0},{""cat"":""21"",""src"":""14"",""x"":0,""y"":0},{""cat"":""14"",""src"":""15"",""x"":0,""y"":0}]","[{""cat"":21,""src"":2,""loc"":7},{""cat"":14,""src"":18,""loc"":5},{""cat"":31,""src"":14,""loc"":3},{""cat"":21,""src"":9,""loc"":4},{""cat"":31,""src"":17,""loc"":2},{""cat"":31,""src"":8,""loc"":6},{""cat"":14,""src"":3,""loc"":1},{""cat"":21,""src"":14,""loc"":8},{""cat"":14,""src"":15,""loc"":0}]","7","14,14,31,31,21,14,31,21,21,15,3,17,14,9,18,8,2,14,0,1,2,3,4,5,6,7,8,8,6,4,2,3,1,5,0,7",NA
"1064","sort_feedback","74","html-keyboard-response","245","3187753","0.0-5.0-49.0","2","2020-1-7 20:40:28","FISH",NA,NA,NA,NA,NA,NA,NA,NA,NA,NA,NA,NA,NA,NA
"1534","demographics",NA,"html-button-response","246","3189290","0.0-6.0-0.0","2","2020-1-7 20:40:28","FISH","0",NA,NA,NA,NA,NA,NA,NA,NA,NA,NA,NA,NA,NA
"4075","workerID",NA,"survey-text","247","3193372","0.0-6.0-1.0","2","2020-1-7 20:40:28","FISH",NA,NA,NA,NA,NA,NA,NA,NA,NA,NA,NA,NA,NA,"{""Q0"":""A1OSRAPSRT934Z""}"
"5320","attn_check",NA,"survey-multi-choice","248","3198713","0.0-6.0-2.0","2","2020-1-7 20:40:28","FISH",NA,NA,NA,NA,NA,NA,NA,NA,NA,NA,NA,NA,NA,"{""Q0"":""FISH""}"
"2866","age",NA,"survey-text","249","3201586","0.0-6.0-3.0","2","2020-1-7 20:40:28","FISH",NA,NA,NA,NA,NA,NA,NA,NA,NA,NA,NA,NA,NA,"{""Q0"":""30""}"
"2999","gender",NA,"survey-multi-choice","250","3204593","0.0-6.0-4.0","2","2020-1-7 20:40:28","FISH",NA,NA,NA,NA,NA,NA,NA,NA,NA,NA,NA,NA,NA,"{""Q0"":""Female""}"
"4029","ethnic",NA,"survey-multi-choice","251","3208628","0.0-6.0-5.0","2","2020-1-7 20:40:28","FISH",NA,NA,NA,NA,NA,NA,NA,NA,NA,NA,NA,NA,NA,"{""Q0"":""Not Hispanic or Latino""}"
"2111","race",NA,"survey-multi-select","252","3210751","0.0-6.0-6.0","2","2020-1-7 20:40:28","FISH",NA,NA,NA,NA,NA,NA,NA,NA,NA,NA,NA,NA,NA,"{""Q0"":[""Black or African American""]}"
"2223","english",NA,"survey-multi-choice","253","3212980","0.0-6.0-7.0","2","2020-1-7 20:40:28","FISH",NA,NA,NA,NA,NA,NA,NA,NA,NA,NA,NA,NA,NA,"{""Q0"":""Yes""}"
"3985","understand",NA,"survey-multi-choice","254","3216971","0.0-6.0-8.0","2","2020-1-7 20:40:28","FISH",NA,NA,NA,NA,NA,NA,NA,NA,NA,NA,NA,NA,NA,"{""Q0"":""No""}"
"23220","strategies",NA,"survey-text","255","3240195","0.0-6.0-9.0","2","2020-1-7 20:40:28","FISH",NA,NA,NA,NA,NA,NA,NA,NA,NA,NA,NA,NA,NA,"{""Q0"":""I tried to remember the whole scene. Sometimes the rooms belonged together and were categorized.""}"
"2782","comments",NA,"survey-text","256","3242980","0.0-6.0-10.0","2","2020-1-7 20:40:28","FISH",NA,NA,NA,NA,NA,NA,NA,NA,NA,NA,NA,NA,NA,"{""Q0"":""""}"
"2117","study_end",NA,"html-button-response","257","3245103","0.0-7.0","2","2020-1-7 20:40:28","FISH","0",NA,NA,NA,NA,NA,NA,NA,NA,NA,NA,NA,NA,NA
