"rt","stimulus","key_press","trial_type","trial_index","time_elapsed","internal_node_id","session","startTime","attn_word","button_pressed","view_history","animation_sequence","condition","time_sequence","stim_type","direction","correct","init_locations","moves","final_locations","sort_correct","finalLocations","responses"
"39504","welcome","32","html-keyboard-response","0","39506","0.0-0.0","2","2020-1-7 22:46:45","PORCUPINE",NA,NA,NA,NA,NA,NA,NA,NA,NA,NA,NA,NA,NA,NA
"3124","consent",NA,"html-button-response","1","42631","0.0-1.0","2","2020-1-7 22:46:45","PORCUPINE","0",NA,NA,NA,NA,NA,NA,NA,NA,NA,NA,NA,NA,NA
"13150","instructions",NA,"instructions","2","55782","0.0-2.0","2","2020-1-7 22:46:45","PORCUPINE",NA,"[{""page_index"":0,""viewing_time"":6718},{""page_index"":1,""viewing_time"":1169},{""page_index"":2,""viewing_time"":512},{""page_index"":3,""viewing_time"":1933},{""page_index"":4,""viewing_time"":651},{""page_index"":5,""viewing_time"":2166}]",NA,NA,NA,NA,NA,NA,NA,NA,NA,NA,NA,NA
"1552","finalInstructions",NA,"html-button-response","3","57335","0.0-3.0-0.0","2","2020-1-7 22:46:45","PORCUPINE","0",NA,NA,NA,NA,NA,NA,NA,NA,NA,NA,NA,NA,NA
"19915","setup1",NA,"animation","4","77251","0.0-3.0-1.0","2","2020-1-7 22:46:45","PORCUPINE",NA,NA,"[{""cat"":32,""src"":2,""loc"":7},{""cat"":32,""src"":19,""loc"":8},{""cat"":32,""src"":14,""loc"":6},{""cat"":0,""src"":12,""loc"":5},{""cat"":0,""src"":15,""loc"":3},{""cat"":0,""src"":18,""loc"":4},{""cat"":26,""src"":16,""loc"":2},{""cat"":26,""src"":8,""loc"":1},{""cat"":26,""src"":18,""loc"":0}]","1","1102,1101,1101,1102,1100,1102,1102,1102,1101,10002",NA,NA,NA,NA,NA,NA,NA,NA,NA
"1996","flanker_instructions","39","html-keyboard-response","5","79248","0.0-3.0-2.0","2","2020-1-7 22:46:45","PORCUPINE",NA,NA,NA,NA,NA,NA,NA,NA,NA,NA,NA,NA,NA,NA
"488","flanker_test","39","image-keyboard-response","6","80738","0.0-3.0-3.0-0.0","2","2020-1-7 22:46:45","PORCUPINE",NA,NA,NA,NA,NA,"congruent","right","TRUE",NA,NA,NA,NA,NA,NA
"634","flanker_test","37","image-keyboard-response","7","82290","0.0-3.0-3.0-0.1","2","2020-1-7 22:46:45","PORCUPINE",NA,NA,NA,NA,NA,"incongruent","left","TRUE",NA,NA,NA,NA,NA,NA
"422","flanker_test","37","image-keyboard-response","8","83533","0.0-3.0-3.0-0.2","2","2020-1-7 22:46:45","PORCUPINE",NA,NA,NA,NA,NA,"congruent","left","TRUE",NA,NA,NA,NA,NA,NA
"591","flanker_test","39","image-keyboard-response","9","85005","0.0-3.0-3.0-0.3","2","2020-1-7 22:46:45","PORCUPINE",NA,NA,NA,NA,NA,"incongruent","right","TRUE",NA,NA,NA,NA,NA,NA
"18606","sort_trial",NA,"free-sort","10","104070","0.0-3.0-4.0","2","2020-1-7 22:46:45","PORCUPINE",NA,NA,NA,NA,NA,NA,NA,NA,"[{""cat"":32,""src"":2,""x"":68,""y"":385},{""cat"":32,""src"":19,""x"":11,""y"":7},{""cat"":32,""src"":14,""x"":17,""y"":84},{""cat"":0,""src"":12,""x"":16,""y"":434},{""cat"":0,""src"":15,""x"":57,""y"":148},{""cat"":0,""src"":18,""x"":32,""y"":505},{""cat"":26,""src"":16,""x"":39,""y"":315},{""cat"":26,""src"":8,""x"":1,""y"":200},{""cat"":26,""src"":18,""x"":50,""y"":248}]","[{""cat"":""32"",""src"":""2"",""x"":0,""y"":0},{""cat"":""32"",""src"":""14"",""x"":0,""y"":0},{""cat"":""32"",""src"":""19"",""x"":0,""y"":0},{""cat"":""0"",""src"":""12"",""x"":0,""y"":0},{""cat"":""0"",""src"":""18"",""x"":0,""y"":0},{""cat"":""0"",""src"":""15"",""x"":0,""y"":0},{""cat"":""26"",""src"":""18"",""x"":0,""y"":0},{""cat"":""26"",""src"":""16"",""x"":0,""y"":0},{""cat"":""26"",""src"":""8"",""x"":0,""y"":0}]","[{""cat"":32,""src"":2,""loc"":7},{""cat"":32,""src"":14,""loc"":6},{""cat"":32,""src"":19,""loc"":8},{""cat"":0,""src"":12,""loc"":5},{""cat"":0,""src"":18,""loc"":4},{""cat"":0,""src"":15,""loc"":3},{""cat"":26,""src"":18,""loc"":0},{""cat"":26,""src"":16,""loc"":2},{""cat"":26,""src"":8,""loc"":1}]","9","26,26,26,0,0,0,32,32,32,18,8,16,15,18,12,14,2,19,0,1,2,3,4,5,6,7,8,6,8,7,5,4,3,1,0,2",NA
"1353","sort_feedback","32","html-keyboard-response","11","105425","0.0-3.0-5.0","2","2020-1-7 22:46:45","PORCUPINE",NA,NA,NA,NA,NA,NA,NA,NA,NA,NA,NA,NA,NA,NA
"19917","setup4",NA,"animation","12","125343","0.0-3.0-6.0","2","2020-1-7 22:46:45","PORCUPINE",NA,NA,"[{""cat"":10,""src"":12,""loc"":4},{""cat"":10,""src"":13,""loc"":1},{""cat"":10,""src"":6,""loc"":6},{""cat"":31,""src"":16,""loc"":5},{""cat"":31,""src"":1,""loc"":0},{""cat"":31,""src"":17,""loc"":7},{""cat"":28,""src"":16,""loc"":8},{""cat"":28,""src"":1,""loc"":2},{""cat"":28,""src"":7,""loc"":3}]","4","1101,1102,1102,1102,1101,1102,1102,1102,1102,10001",NA,NA,NA,NA,NA,NA,NA,NA,NA
"1596","flanker_instructions","39","html-keyboard-response","13","126940","0.0-3.0-7.0","2","2020-1-7 22:46:45","PORCUPINE",NA,NA,NA,NA,NA,NA,NA,NA,NA,NA,NA,NA,NA,NA
"675","flanker_test","39","image-keyboard-response","14","128616","0.0-3.0-8.0-0.0","2","2020-1-7 22:46:45","PORCUPINE",NA,NA,NA,NA,NA,"incongruent","right","TRUE",NA,NA,NA,NA,NA,NA
"406","flanker_test","39","image-keyboard-response","15","129742","0.0-3.0-8.0-0.1","2","2020-1-7 22:46:45","PORCUPINE",NA,NA,NA,NA,NA,"congruent","right","TRUE",NA,NA,NA,NA,NA,NA
"538","flanker_test","37","image-keyboard-response","16","130865","0.0-3.0-8.0-0.2","2","2020-1-7 22:46:45","PORCUPINE",NA,NA,NA,NA,NA,"congruent","left","TRUE",NA,NA,NA,NA,NA,NA
"533","flanker_test","37","image-keyboard-response","17","132312","0.0-3.0-8.0-0.3","2","2020-1-7 22:46:45","PORCUPINE",NA,NA,NA,NA,NA,"incongruent","left","TRUE",NA,NA,NA,NA,NA,NA
"20671","sort_trial",NA,"free-sort","18","153803","0.0-3.0-9.0","2","2020-1-7 22:46:45","PORCUPINE",NA,NA,NA,NA,NA,NA,NA,NA,"[{""cat"":10,""src"":12,""x"":35,""y"":247},{""cat"":10,""src"":13,""x"":17,""y"":4},{""cat"":10,""src"":6,""x"":12,""y"":182},{""cat"":31,""src"":16,""x"":45,""y"":147},{""cat"":31,""src"":1,""x"":23,""y"":310},{""cat"":31,""src"":17,""x"":15,""y"":446},{""cat"":28,""src"":16,""x"":58,""y"":360},{""cat"":28,""src"":1,""x"":47,""y"":73},{""cat"":28,""src"":7,""x"":45,""y"":503}]","[{""cat"":""31"",""src"":""16"",""x"":0,""y"":0},{""cat"":""28"",""src"":""7"",""x"":0,""y"":0},{""cat"":""10"",""src"":""12"",""x"":0,""y"":0},{""cat"":""10"",""src"":""13"",""x"":0,""y"":0},{""cat"":""28"",""src"":""1"",""x"":0,""y"":0},{""cat"":""31"",""src"":""1"",""x"":0,""y"":0},{""cat"":""31"",""src"":""17"",""x"":0,""y"":0},{""cat"":""28"",""src"":""16"",""x"":0,""y"":0},{""cat"":""10"",""src"":""6"",""x"":0,""y"":0}]","[{""cat"":31,""src"":16,""loc"":5},{""cat"":28,""src"":7,""loc"":3},{""cat"":10,""src"":12,""loc"":4},{""cat"":10,""src"":13,""loc"":1},{""cat"":28,""src"":1,""loc"":2},{""cat"":31,""src"":1,""loc"":0},{""cat"":31,""src"":17,""loc"":7},{""cat"":28,""src"":16,""loc"":6},{""cat"":10,""src"":6,""loc"":8}]","7","31,10,28,28,10,31,28,31,10,1,13,1,7,12,16,16,17,6,0,1,2,3,4,5,6,7,8,5,3,4,1,2,0,7,6,8",NA
"1930","sort_feedback","32","html-keyboard-response","19","155734","0.0-3.0-10.0","2","2020-1-7 22:46:45","PORCUPINE",NA,NA,NA,NA,NA,NA,NA,NA,NA,NA,NA,NA,NA,NA
"19912","setup2",NA,"animation","20","175648","0.0-3.0-11.0","2","2020-1-7 22:46:45","PORCUPINE",NA,NA,"[{""cat"":24,""src"":15,""loc"":0},{""cat"":8,""src"":17,""loc"":2},{""cat"":5,""src"":5,""loc"":1},{""cat"":24,""src"":7,""loc"":7},{""cat"":8,""src"":18,""loc"":8},{""cat"":5,""src"":2,""loc"":6},{""cat"":24,""src"":3,""loc"":5},{""cat"":5,""src"":16,""loc"":3},{""cat"":8,""src"":9,""loc"":4}]","2","1101,1101,1102,1100,1102,1101,1102,1101,1102,10000",NA,NA,NA,NA,NA,NA,NA,NA,NA
"1019","flanker_instructions","37","html-keyboard-response","21","176667","0.0-3.0-12.0","2","2020-1-7 22:46:45","PORCUPINE",NA,NA,NA,NA,NA,NA,NA,NA,NA,NA,NA,NA,NA,NA
"523","flanker_test","37","image-keyboard-response","22","178192","0.0-3.0-13.0-0.0","2","2020-1-7 22:46:45","PORCUPINE",NA,NA,NA,NA,NA,"incongruent","left","TRUE",NA,NA,NA,NA,NA,NA
"473","flanker_test","39","image-keyboard-response","23","179054","0.0-3.0-13.0-0.1","2","2020-1-7 22:46:45","PORCUPINE",NA,NA,NA,NA,NA,"congruent","right","TRUE",NA,NA,NA,NA,NA,NA
"414","flanker_test","37","image-keyboard-response","24","180489","0.0-3.0-13.0-0.2","2","2020-1-7 22:46:45","PORCUPINE",NA,NA,NA,NA,NA,"incongruent","right","FALSE",NA,NA,NA,NA,NA,NA
"501","flanker_test","37","image-keyboard-response","25","181953","0.0-3.0-13.0-0.3","2","2020-1-7 22:46:45","PORCUPINE",NA,NA,NA,NA,NA,"congruent","left","TRUE",NA,NA,NA,NA,NA,NA
"25558","sort_trial",NA,"free-sort","26","208228","0.0-3.0-14.0","2","2020-1-7 22:46:45","PORCUPINE",NA,NA,NA,NA,NA,NA,NA,NA,"[{""cat"":24,""src"":15,""x"":62,""y"":15},{""cat"":8,""src"":17,""x"":45,""y"":319},{""cat"":5,""src"":5,""x"":18,""y"":72},{""cat"":24,""src"":7,""x"":70,""y"":382},{""cat"":8,""src"":18,""x"":3,""y"":267},{""cat"":5,""src"":2,""x"":59,""y"":507},{""cat"":24,""src"":3,""x"":30,""y"":438},{""cat"":5,""src"":16,""x"":83,""y"":185},{""cat"":8,""src"":9,""x"":34,""y"":122}]","[{""cat"":""24"",""src"":""7"",""x"":0,""y"":0},{""cat"":""5"",""src"":""2"",""x"":0,""y"":0},{""cat"":""8"",""src"":""18"",""x"":0,""y"":0},{""cat"":""24"",""src"":""3"",""x"":0,""y"":0},{""cat"":""8"",""src"":""9"",""x"":0,""y"":0},{""cat"":""5"",""src"":""5"",""x"":0,""y"":0},{""cat"":""5"",""src"":""16"",""x"":0,""y"":0},{""cat"":""8"",""src"":""17"",""x"":0,""y"":0},{""cat"":""24"",""src"":""15"",""x"":0,""y"":0}]","[{""cat"":24,""src"":7,""loc"":0},{""cat"":5,""src"":2,""loc"":2},{""cat"":8,""src"":18,""loc"":1},{""cat"":24,""src"":3,""loc"":4},{""cat"":8,""src"":9,""loc"":3},{""cat"":5,""src"":5,""loc"":5},{""cat"":5,""src"":16,""loc"":7},{""cat"":8,""src"":17,""loc"":6},{""cat"":24,""src"":15,""loc"":8}]","0","24,8,5,8,24,5,8,5,24,7,18,2,9,3,5,17,16,15,0,1,2,3,4,5,6,7,8,0,2,1,4,3,5,7,6,8",NA
"1930","sort_feedback","32","html-keyboard-response","27","210158","0.0-3.0-15.0","2","2020-1-7 22:46:45","PORCUPINE",NA,NA,NA,NA,NA,NA,NA,NA,NA,NA,NA,NA,NA,NA
"19915","setup3",NA,"animation","28","230073","0.0-3.0-16.0","2","2020-1-7 22:46:45","PORCUPINE",NA,NA,"[{""cat"":29,""src"":8,""loc"":3},{""cat"":32,""src"":14,""loc"":6},{""cat"":5,""src"":13,""loc"":0},{""cat"":5,""src"":7,""loc"":1},{""cat"":32,""src"":2,""loc"":8},{""cat"":29,""src"":17,""loc"":5},{""cat"":32,""src"":5,""loc"":7},{""cat"":29,""src"":16,""loc"":4},{""cat"":5,""src"":11,""loc"":2}]","3","1103,1101,1102,1102,1101,1102,1102,1100,1102,10000",NA,NA,NA,NA,NA,NA,NA,NA,NA
"1398","flanker_instructions","39","html-keyboard-response","29","231472","0.0-3.0-17.0","2","2020-1-7 22:46:45","PORCUPINE",NA,NA,NA,NA,NA,NA,NA,NA,NA,NA,NA,NA,NA,NA
"537","flanker_test","37","image-keyboard-response","30","233011","0.0-3.0-18.0-0.0","2","2020-1-7 22:46:45","PORCUPINE",NA,NA,NA,NA,NA,"incongruent","right","FALSE",NA,NA,NA,NA,NA,NA
"599","flanker_test","37","image-keyboard-response","31","234327","0.0-3.0-18.0-0.1","2","2020-1-7 22:46:45","PORCUPINE",NA,NA,NA,NA,NA,"congruent","left","TRUE",NA,NA,NA,NA,NA,NA
"432","flanker_test","39","image-keyboard-response","32","235563","0.0-3.0-18.0-0.2","2","2020-1-7 22:46:45","PORCUPINE",NA,NA,NA,NA,NA,"congruent","right","TRUE",NA,NA,NA,NA,NA,NA
"527","flanker_test","37","image-keyboard-response","33","236703","0.0-3.0-18.0-0.3","2","2020-1-7 22:46:45","PORCUPINE",NA,NA,NA,NA,NA,"incongruent","left","TRUE",NA,NA,NA,NA,NA,NA
"19810","sort_trial",NA,"free-sort","34","257115","0.0-3.0-19.0","2","2020-1-7 22:46:45","PORCUPINE",NA,NA,NA,NA,NA,NA,NA,NA,"[{""cat"":29,""src"":8,""x"":61,""y"":14},{""cat"":32,""src"":14,""x"":66,""y"":422},{""cat"":5,""src"":13,""x"":43,""y"":378},{""cat"":5,""src"":7,""x"":57,""y"":247},{""cat"":32,""src"":2,""x"":26,""y"":122},{""cat"":29,""src"":17,""x"":39,""y"":181},{""cat"":32,""src"":5,""x"":9,""y"":312},{""cat"":29,""src"":16,""x"":38,""y"":491},{""cat"":5,""src"":11,""x"":52,""y"":87}]","[{""cat"":""5"",""src"":""13"",""x"":0,""y"":0},{""cat"":""5"",""src"":""7"",""x"":0,""y"":0},{""cat"":""5"",""src"":""11"",""x"":0,""y"":0},{""cat"":""32"",""src"":""5"",""x"":0,""y"":0},{""cat"":""32"",""src"":""14"",""x"":414,""y"":262},{""cat"":""32"",""src"":""14"",""x"":0,""y"":0},{""cat"":""32"",""src"":""2"",""x"":0,""y"":0},{""cat"":""29"",""src"":""17"",""x"":0,""y"":0},{""cat"":""29"",""src"":""8"",""x"":0,""y"":0},{""cat"":""29"",""src"":""16"",""x"":0,""y"":0}]","[{""cat"":5,""src"":13,""loc"":0},{""cat"":5,""src"":7,""loc"":1},{""cat"":5,""src"":11,""loc"":2},{""cat"":32,""src"":5,""loc"":7},{""cat"":32,""src"":14,""loc"":6},{""cat"":32,""src"":2,""loc"":8},{""cat"":29,""src"":17,""loc"":5},{""cat"":29,""src"":8,""loc"":4},{""cat"":29,""src"":16,""loc"":3}]","7","5,5,5,29,29,29,32,32,32,13,7,11,16,8,17,14,5,2,0,1,2,3,4,5,6,7,8,0,1,2,8,7,6,4,3,5",NA
"1745","sort_feedback","32","html-keyboard-response","35","258861","0.0-3.0-20.0","2","2020-1-7 22:46:45","PORCUPINE",NA,NA,NA,NA,NA,NA,NA,NA,NA,NA,NA,NA,NA,NA
"19914","setup5",NA,"animation","36","278776","0.0-3.0-21.0","2","2020-1-7 22:46:45","PORCUPINE",NA,NA,"[{""cat"":4,""src"":8,""loc"":6},{""cat"":32,""src"":18,""loc"":0},{""cat"":24,""src"":15,""loc"":5},{""cat"":24,""src"":3,""loc"":8},{""cat"":4,""src"":10,""loc"":1},{""cat"":32,""src"":10,""loc"":3},{""cat"":4,""src"":19,""loc"":4},{""cat"":24,""src"":4,""loc"":2},{""cat"":32,""src"":2,""loc"":7}]","5","1102,1101,1101,1101,1102,1100,1102,1101,1102,10002",NA,NA,NA,NA,NA,NA,NA,NA,NA
"1604","flanker_instructions","39","html-keyboard-response","37","280380","0.0-3.0-22.0","2","2020-1-7 22:46:45","PORCUPINE",NA,NA,NA,NA,NA,NA,NA,NA,NA,NA,NA,NA,NA,NA
"588","flanker_test","39","image-keyboard-response","38","281970","0.0-3.0-23.0-0.0","2","2020-1-7 22:46:45","PORCUPINE",NA,NA,NA,NA,NA,"incongruent","right","TRUE",NA,NA,NA,NA,NA,NA
"476","flanker_test","37","image-keyboard-response","39","283068","0.0-3.0-23.0-0.1","2","2020-1-7 22:46:45","PORCUPINE",NA,NA,NA,NA,NA,"congruent","left","TRUE",NA,NA,NA,NA,NA,NA
"538","flanker_test","39","image-keyboard-response","40","284108","0.0-3.0-23.0-0.2","2","2020-1-7 22:46:45","PORCUPINE",NA,NA,NA,NA,NA,"congruent","right","TRUE",NA,NA,NA,NA,NA,NA
"549","flanker_test","37","image-keyboard-response","41","285609","0.0-3.0-23.0-0.3","2","2020-1-7 22:46:45","PORCUPINE",NA,NA,NA,NA,NA,"incongruent","left","TRUE",NA,NA,NA,NA,NA,NA
"17938","sort_trial",NA,"free-sort","42","303921","0.0-3.0-24.0","2","2020-1-7 22:46:45","PORCUPINE",NA,NA,NA,NA,NA,NA,NA,NA,"[{""cat"":4,""src"":8,""x"":67,""y"":64},{""cat"":32,""src"":18,""x"":25,""y"":125},{""cat"":24,""src"":15,""x"":80,""y"":2},{""cat"":24,""src"":3,""x"":0,""y"":195},{""cat"":4,""src"":10,""x"":81,""y"":366},{""cat"":32,""src"":10,""x"":20,""y"":245},{""cat"":4,""src"":19,""x"":63,""y"":422},{""cat"":24,""src"":4,""x"":78,""y"":494},{""cat"":32,""src"":2,""x"":73,""y"":315}]","[{""cat"":""32"",""src"":""2"",""x"":0,""y"":0},{""cat"":""4"",""src"":""8"",""x"":0,""y"":0},{""cat"":""24"",""src"":""3"",""x"":0,""y"":0},{""cat"":""24"",""src"":""15"",""x"":0,""y"":0},{""cat"":""24"",""src"":""4"",""x"":0,""y"":0},{""cat"":""32"",""src"":""10"",""x"":0,""y"":0},{""cat"":""4"",""src"":""19"",""x"":0,""y"":0},{""cat"":""4"",""src"":""10"",""x"":0,""y"":0},{""cat"":""32"",""src"":""18"",""x"":0,""y"":0}]","[{""cat"":32,""src"":2,""loc"":7},{""cat"":4,""src"":8,""loc"":6},{""cat"":24,""src"":3,""loc"":8},{""cat"":24,""src"":15,""loc"":4},{""cat"":24,""src"":4,""loc"":0},{""cat"":32,""src"":10,""loc"":5},{""cat"":4,""src"":19,""loc"":3},{""cat"":4,""src"":10,""loc"":2},{""cat"":32,""src"":18,""loc"":1}]","3","24,32,4,4,24,32,4,32,24,4,18,10,19,15,10,8,2,3,0,1,2,3,4,5,6,7,8,4,8,7,6,3,5,1,0,2",NA
"1978","sort_feedback","32","html-keyboard-response","43","305900","0.0-3.0-25.0","2","2020-1-7 22:46:45","PORCUPINE",NA,NA,NA,NA,NA,NA,NA,NA,NA,NA,NA,NA,NA,NA
"19913","setup2",NA,"animation","44","325813","0.0-3.0-26.0","2","2020-1-7 22:46:45","PORCUPINE",NA,NA,"[{""cat"":3,""src"":8,""loc"":6},{""cat"":21,""src"":14,""loc"":8},{""cat"":10,""src"":5,""loc"":7},{""cat"":3,""src"":7,""loc"":5},{""cat"":10,""src"":14,""loc"":4},{""cat"":21,""src"":1,""loc"":3},{""cat"":21,""src"":5,""loc"":2},{""cat"":10,""src"":4,""loc"":1},{""cat"":3,""src"":5,""loc"":0}]","2","1102,1101,1102,1101,1101,1101,1103,1100,1101,10001",NA,NA,NA,NA,NA,NA,NA,NA,NA
"1418","flanker_instructions","39","html-keyboard-response","45","327232","0.0-3.0-27.0","2","2020-1-7 22:46:45","PORCUPINE",NA,NA,NA,NA,NA,NA,NA,NA,NA,NA,NA,NA,NA,NA
"805","flanker_test","37","image-keyboard-response","46","329040","0.0-3.0-28.0-0.0","2","2020-1-7 22:46:45","PORCUPINE",NA,NA,NA,NA,NA,"congruent","left","TRUE",NA,NA,NA,NA,NA,NA
"454","flanker_test","39","image-keyboard-response","47","330644","0.0-3.0-28.0-0.1","2","2020-1-7 22:46:45","PORCUPINE",NA,NA,NA,NA,NA,"congruent","right","TRUE",NA,NA,NA,NA,NA,NA
"618","flanker_test","39","image-keyboard-response","48","332181","0.0-3.0-28.0-0.2","2","2020-1-7 22:46:45","PORCUPINE",NA,NA,NA,NA,NA,"incongruent","right","TRUE",NA,NA,NA,NA,NA,NA
"585","flanker_test","37","image-keyboard-response","49","333676","0.0-3.0-28.0-0.3","2","2020-1-7 22:46:45","PORCUPINE",NA,NA,NA,NA,NA,"incongruent","left","TRUE",NA,NA,NA,NA,NA,NA
"21298","sort_trial",NA,"free-sort","50","355498","0.0-3.0-29.0","2","2020-1-7 22:46:45","PORCUPINE",NA,NA,NA,NA,NA,NA,NA,NA,"[{""cat"":3,""src"":8,""x"":81,""y"":492},{""cat"":21,""src"":14,""x"":42,""y"":370},{""cat"":10,""src"":5,""x"":81,""y"":307},{""cat"":3,""src"":7,""x"":65,""y"":76},{""cat"":10,""src"":14,""x"":32,""y"":144},{""cat"":21,""src"":1,""x"":24,""y"":207},{""cat"":21,""src"":5,""x"":43,""y"":259},{""cat"":10,""src"":4,""x"":67,""y"":442},{""cat"":3,""src"":5,""x"":25,""y"":23}]","[{""cat"":""3"",""src"":""7"",""x"":0,""y"":0},{""cat"":""21"",""src"":""1"",""x"":0,""y"":0},{""cat"":""10"",""src"":""14"",""x"":0,""y"":0},{""cat"":""21"",""src"":""14"",""x"":0,""y"":0},{""cat"":""10"",""src"":""5"",""x"":0,""y"":0},{""cat"":""3"",""src"":""8"",""x"":0,""y"":0},{""cat"":""3"",""src"":""5"",""x"":0,""y"":0},{""cat"":""21"",""src"":""5"",""x"":0,""y"":0},{""cat"":""10"",""src"":""4"",""x"":76,""y"":449},{""cat"":""10"",""src"":""4"",""x"":431,""y"":64},{""cat"":""10"",""src"":""4"",""x"":0,""y"":0}]","[{""cat"":3,""src"":7,""loc"":5},{""cat"":21,""src"":1,""loc"":3},{""cat"":10,""src"":14,""loc"":4},{""cat"":21,""src"":14,""loc"":8},{""cat"":10,""src"":5,""loc"":7},{""cat"":3,""src"":8,""loc"":6},{""cat"":3,""src"":5,""loc"":0},{""cat"":21,""src"":5,""loc"":2},{""cat"":10,""src"":4,""loc"":1}]","9","3,10,21,21,10,3,3,10,21,5,4,5,1,14,7,8,5,14,0,1,2,3,4,5,6,7,8,6,8,7,1,2,0,5,4,3",NA
"36605","sort_feedback","32","html-keyboard-response","51","392104","0.0-3.0-30.0","2","2020-1-7 22:46:45","PORCUPINE",NA,NA,NA,NA,NA,NA,NA,NA,NA,NA,NA,NA,NA,NA
"19916","setup5",NA,"animation","52","412021","0.0-3.0-31.0","2","2020-1-7 22:46:45","PORCUPINE",NA,NA,"[{""cat"":22,""src"":6,""loc"":7},{""cat"":28,""src"":11,""loc"":4},{""cat"":29,""src"":2,""loc"":1},{""cat"":22,""src"":2,""loc"":3},{""cat"":28,""src"":0,""loc"":0},{""cat"":29,""src"":16,""loc"":8},{""cat"":29,""src"":9,""loc"":5},{""cat"":28,""src"":14,""loc"":6},{""cat"":22,""src"":19,""loc"":2}]","5","1102,1101,1102,1102,1102,1101,1101,1102,1102,10001",NA,NA,NA,NA,NA,NA,NA,NA,NA
"1147","flanker_instructions","39","html-keyboard-response","53","413168","0.0-3.0-32.0","2","2020-1-7 22:46:45","PORCUPINE",NA,NA,NA,NA,NA,NA,NA,NA,NA,NA,NA,NA,NA,NA
"533","flanker_test","37","image-keyboard-response","54","414703","0.0-3.0-33.0-0.0","2","2020-1-7 22:46:45","PORCUPINE",NA,NA,NA,NA,NA,"congruent","left","TRUE",NA,NA,NA,NA,NA,NA
"575","flanker_test","39","image-keyboard-response","55","416444","0.0-3.0-33.0-0.1","2","2020-1-7 22:46:45","PORCUPINE",NA,NA,NA,NA,NA,"incongruent","right","TRUE",NA,NA,NA,NA,NA,NA
"555","flanker_test","39","image-keyboard-response","56","417529","0.0-3.0-33.0-0.2","2","2020-1-7 22:46:45","PORCUPINE",NA,NA,NA,NA,NA,"congruent","right","TRUE",NA,NA,NA,NA,NA,NA
"568","flanker_test","37","image-keyboard-response","57","418571","0.0-3.0-33.0-0.3","2","2020-1-7 22:46:45","PORCUPINE",NA,NA,NA,NA,NA,"incongruent","left","TRUE",NA,NA,NA,NA,NA,NA
"15040","sort_trial",NA,"free-sort","58","434064","0.0-3.0-34.0","2","2020-1-7 22:46:45","PORCUPINE",NA,NA,NA,NA,NA,NA,NA,NA,"[{""cat"":22,""src"":6,""x"":12,""y"":310},{""cat"":28,""src"":11,""x"":4,""y"":260},{""cat"":29,""src"":2,""x"":63,""y"":503},{""cat"":22,""src"":2,""x"":4,""y"":26},{""cat"":28,""src"":0,""x"":47,""y"":71},{""cat"":29,""src"":16,""x"":16,""y"":374},{""cat"":29,""src"":9,""x"":72,""y"":190},{""cat"":28,""src"":14,""x"":3,""y"":139},{""cat"":22,""src"":19,""x"":48,""y"":444}]","[{""cat"":""22"",""src"":""6"",""x"":247,""y"":363},{""cat"":""22"",""src"":""6"",""x"":0,""y"":0},{""cat"":""28"",""src"":""14"",""x"":0,""y"":0},{""cat"":""29"",""src"":""16"",""x"":0,""y"":0},{""cat"":""22"",""src"":""19"",""x"":0,""y"":0},{""cat"":""29"",""src"":""9"",""x"":0,""y"":0},{""cat"":""28"",""src"":""11"",""x"":0,""y"":0},{""cat"":""28"",""src"":""0"",""x"":0,""y"":0},{""cat"":""29"",""src"":""2"",""x"":0,""y"":0},{""cat"":""22"",""src"":""2"",""x"":0,""y"":0}]","[{""cat"":22,""src"":6,""loc"":7},{""cat"":28,""src"":14,""loc"":6},{""cat"":29,""src"":16,""loc"":8},{""cat"":22,""src"":19,""loc"":0},{""cat"":29,""src"":9,""loc"":2},{""cat"":28,""src"":11,""loc"":1},{""cat"":28,""src"":0,""loc"":5},{""cat"":29,""src"":2,""loc"":3},{""cat"":22,""src"":2,""loc"":4}]","3","22,28,29,29,22,28,28,22,29,19,11,9,2,2,0,14,6,16,0,1,2,3,4,5,6,7,8,3,5,4,7,8,6,1,0,2",NA
"1702","sort_feedback","32","html-keyboard-response","59","435768","0.0-3.0-35.0","2","2020-1-7 22:46:45","PORCUPINE",NA,NA,NA,NA,NA,NA,NA,NA,NA,NA,NA,NA,NA,NA
"19916","setup4",NA,"animation","60","455684","0.0-3.0-36.0","2","2020-1-7 22:46:45","PORCUPINE",NA,NA,"[{""cat"":16,""src"":12,""loc"":8},{""cat"":16,""src"":15,""loc"":5},{""cat"":16,""src"":1,""loc"":1},{""cat"":6,""src"":3,""loc"":4},{""cat"":6,""src"":15,""loc"":2},{""cat"":6,""src"":0,""loc"":6},{""cat"":19,""src"":3,""loc"":0},{""cat"":19,""src"":16,""loc"":7},{""cat"":19,""src"":12,""loc"":3}]","4","1102,1102,1102,1101,1102,1101,1102,1101,1102,10000",NA,NA,NA,NA,NA,NA,NA,NA,NA
"1076","flanker_instructions","39","html-keyboard-response","61","456760","0.0-3.0-37.0","2","2020-1-7 22:46:45","PORCUPINE",NA,NA,NA,NA,NA,NA,NA,NA,NA,NA,NA,NA,NA,NA
"450","flanker_test","39","image-keyboard-response","62","458212","0.0-3.0-38.0-0.0","2","2020-1-7 22:46:45","PORCUPINE",NA,NA,NA,NA,NA,"congruent","right","TRUE",NA,NA,NA,NA,NA,NA
"533","flanker_test","39","image-keyboard-response","63","459822","0.0-3.0-38.0-0.1","2","2020-1-7 22:46:45","PORCUPINE",NA,NA,NA,NA,NA,"incongruent","right","TRUE",NA,NA,NA,NA,NA,NA
"570","flanker_test","37","image-keyboard-response","64","461046","0.0-3.0-38.0-0.2","2","2020-1-7 22:46:45","PORCUPINE",NA,NA,NA,NA,NA,"congruent","left","TRUE",NA,NA,NA,NA,NA,NA
"517","flanker_test","37","image-keyboard-response","65","462170","0.0-3.0-38.0-0.3","2","2020-1-7 22:46:45","PORCUPINE",NA,NA,NA,NA,NA,"incongruent","left","TRUE",NA,NA,NA,NA,NA,NA
"20630","sort_trial",NA,"free-sort","66","483745","0.0-3.0-39.0","2","2020-1-7 22:46:45","PORCUPINE",NA,NA,NA,NA,NA,NA,NA,NA,"[{""cat"":16,""src"":12,""x"":64,""y"":141},{""cat"":16,""src"":15,""x"":54,""y"":494},{""cat"":16,""src"":1,""x"":22,""y"":359},{""cat"":6,""src"":3,""x"":14,""y"":243},{""cat"":6,""src"":15,""x"":34,""y"":11},{""cat"":6,""src"":0,""x"":43,""y"":207},{""cat"":19,""src"":3,""x"":60,""y"":77},{""cat"":19,""src"":16,""x"":30,""y"":309},{""cat"":19,""src"":12,""x"":54,""y"":420}]","[{""cat"":""19"",""src"":""16"",""x"":0,""y"":0},{""cat"":""16"",""src"":""1"",""x"":0,""y"":0},{""cat"":""6"",""src"":""0"",""x"":0,""y"":0},{""cat"":""6"",""src"":""3"",""x"":0,""y"":0},{""cat"":""19"",""src"":""12"",""x"":0,""y"":0},{""cat"":""16"",""src"":""15"",""x"":0,""y"":0},{""cat"":""16"",""src"":""12"",""x"":0,""y"":0},{""cat"":""19"",""src"":""3"",""x"":0,""y"":0},{""cat"":""6"",""src"":""15"",""x"":0,""y"":0}]","[{""cat"":19,""src"":16,""loc"":0},{""cat"":16,""src"":1,""loc"":1},{""cat"":6,""src"":0,""loc"":2},{""cat"":6,""src"":3,""loc"":7},{""cat"":19,""src"":12,""loc"":6},{""cat"":16,""src"":15,""loc"":8},{""cat"":16,""src"":12,""loc"":5},{""cat"":19,""src"":3,""loc"":3},{""cat"":6,""src"":15,""loc"":4}]","1","19,16,6,19,6,16,19,6,16,16,1,0,3,15,12,12,3,15,0,1,2,3,4,5,6,7,8,0,1,2,7,8,6,4,3,5",NA
"1987","sort_feedback","32","html-keyboard-response","67","485733","0.0-3.0-40.0","2","2020-1-7 22:46:45","PORCUPINE",NA,NA,NA,NA,NA,NA,NA,NA,NA,NA,NA,NA,NA,NA
"19914","setup3",NA,"animation","68","505648","0.0-3.0-41.0","2","2020-1-7 22:46:45","PORCUPINE",NA,NA,"[{""cat"":29,""src"":9,""loc"":2},{""cat"":11,""src"":2,""loc"":7},{""cat"":25,""src"":2,""loc"":4},{""cat"":11,""src"":7,""loc"":8},{""cat"":29,""src"":17,""loc"":0},{""cat"":25,""src"":3,""loc"":5},{""cat"":11,""src"":4,""loc"":6},{""cat"":25,""src"":14,""loc"":3},{""cat"":29,""src"":6,""loc"":1}]","3","1101,1100,1102,1102,1101,1102,1101,1102,1101,10002",NA,NA,NA,NA,NA,NA,NA,NA,NA
"950","flanker_instructions","39","html-keyboard-response","69","506599","0.0-3.0-42.0","2","2020-1-7 22:46:45","PORCUPINE",NA,NA,NA,NA,NA,NA,NA,NA,NA,NA,NA,NA,NA,NA
"420","flanker_test","39","image-keyboard-response","70","508020","0.0-3.0-43.0-0.0","2","2020-1-7 22:46:45","PORCUPINE",NA,NA,NA,NA,NA,"congruent","right","TRUE",NA,NA,NA,NA,NA,NA
"493","flanker_test","37","image-keyboard-response","71","508912","0.0-3.0-43.0-0.1","2","2020-1-7 22:46:45","PORCUPINE",NA,NA,NA,NA,NA,"incongruent","left","TRUE",NA,NA,NA,NA,NA,NA
"521","flanker_test","39","image-keyboard-response","72","509839","0.0-3.0-43.0-0.2","2","2020-1-7 22:46:45","PORCUPINE",NA,NA,NA,NA,NA,"incongruent","right","TRUE",NA,NA,NA,NA,NA,NA
"476","flanker_test","39","image-keyboard-response","73","511360","0.0-3.0-43.0-0.3","2","2020-1-7 22:46:45","PORCUPINE",NA,NA,NA,NA,NA,"congruent","left","FALSE",NA,NA,NA,NA,NA,NA
"15441","sort_trial",NA,"free-sort","74","527823","0.0-3.0-44.0","2","2020-1-7 22:46:45","PORCUPINE",NA,NA,NA,NA,NA,NA,NA,NA,"[{""cat"":29,""src"":9,""x"":3,""y"":131},{""cat"":11,""src"":2,""x"":1,""y"":367},{""cat"":25,""src"":2,""x"":30,""y"":206},{""cat"":11,""src"":7,""x"":66,""y"":25},{""cat"":29,""src"":17,""x"":56,""y"":65},{""cat"":25,""src"":3,""x"":54,""y"":240},{""cat"":11,""src"":4,""x"":59,""y"":317},{""cat"":25,""src"":14,""x"":14,""y"":437},{""cat"":29,""src"":6,""x"":23,""y"":505}]","[{""cat"":""11"",""src"":""2"",""x"":0,""y"":0},{""cat"":""11"",""src"":""4"",""x"":0,""y"":0},{""cat"":""11"",""src"":""7"",""x"":0,""y"":0},{""cat"":""29"",""src"":""17"",""x"":0,""y"":0},{""cat"":""29"",""src"":""9"",""x"":0,""y"":0},{""cat"":""29"",""src"":""6"",""x"":0,""y"":0},{""cat"":""25"",""src"":""2"",""x"":0,""y"":0},{""cat"":""25"",""src"":""3"",""x"":0,""y"":0},{""cat"":""25"",""src"":""14"",""x"":0,""y"":0}]","[{""cat"":11,""src"":2,""loc"":7},{""cat"":11,""src"":4,""loc"":6},{""cat"":11,""src"":7,""loc"":8},{""cat"":29,""src"":17,""loc"":0},{""cat"":29,""src"":9,""loc"":2},{""cat"":29,""src"":6,""loc"":1},{""cat"":25,""src"":2,""loc"":5},{""cat"":25,""src"":3,""loc"":3},{""cat"":25,""src"":14,""loc"":4}]","6","29,29,29,25,25,25,11,11,11,17,6,9,3,14,2,4,2,7,0,1,2,3,4,5,6,7,8,3,5,4,7,8,6,1,0,2",NA
"1744","sort_feedback","32","html-keyboard-response","75","529568","0.0-3.0-45.0","2","2020-1-7 22:46:45","PORCUPINE",NA,NA,NA,NA,NA,NA,NA,NA,NA,NA,NA,NA,NA,NA
"19912","setup1",NA,"animation","76","549480","0.0-3.0-46.0","2","2020-1-7 22:46:45","PORCUPINE",NA,NA,"[{""cat"":8,""src"":6,""loc"":5},{""cat"":8,""src"":1,""loc"":4},{""cat"":8,""src"":15,""loc"":3},{""cat"":22,""src"":2,""loc"":6},{""cat"":22,""src"":4,""loc"":8},{""cat"":22,""src"":17,""loc"":7},{""cat"":14,""src"":14,""loc"":0},{""cat"":14,""src"":5,""loc"":2},{""cat"":14,""src"":9,""loc"":1}]","1","1102,1101,1101,1101,1102,1100,1101,1101,1102,10001",NA,NA,NA,NA,NA,NA,NA,NA,NA
"1028","flanker_instructions","39","html-keyboard-response","77","550509","0.0-3.0-47.0","2","2020-1-7 22:46:45","PORCUPINE",NA,NA,NA,NA,NA,NA,NA,NA,NA,NA,NA,NA,NA,NA
"458","flanker_test","39","image-keyboard-response","78","551970","0.0-3.0-48.0-0.0","2","2020-1-7 22:46:45","PORCUPINE",NA,NA,NA,NA,NA,"congruent","right","TRUE",NA,NA,NA,NA,NA,NA
"517","flanker_test","37","image-keyboard-response","79","553080","0.0-3.0-48.0-0.1","2","2020-1-7 22:46:45","PORCUPINE",NA,NA,NA,NA,NA,"congruent","left","TRUE",NA,NA,NA,NA,NA,NA
"782","flanker_test","37","image-keyboard-response","80","554585","0.0-3.0-48.0-0.2","2","2020-1-7 22:46:45","PORCUPINE",NA,NA,NA,NA,NA,"incongruent","left","TRUE",NA,NA,NA,NA,NA,NA
"603","flanker_test","39","image-keyboard-response","81","556230","0.0-3.0-48.0-0.3","2","2020-1-7 22:46:45","PORCUPINE",NA,NA,NA,NA,NA,"incongruent","right","TRUE",NA,NA,NA,NA,NA,NA
"23275","sort_trial",NA,"free-sort","82","580581","0.0-3.0-49.0","2","2020-1-7 22:46:45","PORCUPINE",NA,NA,NA,NA,NA,NA,NA,NA,"[{""cat"":8,""src"":6,""x"":19,""y"":492},{""cat"":8,""src"":1,""x"":44,""y"":256},{""cat"":8,""src"":15,""x"":38,""y"":182},{""cat"":22,""src"":2,""x"":58,""y"":323},{""cat"":22,""src"":4,""x"":42,""y"":126},{""cat"":22,""src"":17,""x"":80,""y"":11},{""cat"":14,""src"":14,""x"":54,""y"":448},{""cat"":14,""src"":5,""x"":75,""y"":382},{""cat"":14,""src"":9,""x"":77,""y"":89}]","[{""cat"":""8"",""src"":""6"",""x"":0,""y"":0},{""cat"":""8"",""src"":""15"",""x"":0,""y"":0},{""cat"":""8"",""src"":""1"",""x"":0,""y"":0},{""cat"":""22"",""src"":""2"",""x"":0,""y"":0},{""cat"":""22"",""src"":""4"",""x"":0,""y"":0},{""cat"":""22"",""src"":""17"",""x"":0,""y"":0},{""cat"":""14"",""src"":""5"",""x"":218,""y"":112},{""cat"":""14"",""src"":""9"",""x"":0,""y"":0},{""cat"":""14"",""src"":""5"",""x"":0,""y"":0},{""cat"":""14"",""src"":""14"",""x"":0,""y"":0}]","[{""cat"":8,""src"":6,""loc"":5},{""cat"":8,""src"":15,""loc"":3},{""cat"":8,""src"":1,""loc"":4},{""cat"":22,""src"":2,""loc"":7},{""cat"":22,""src"":4,""loc"":6},{""cat"":22,""src"":17,""loc"":8},{""cat"":14,""src"":9,""loc"":0},{""cat"":14,""src"":5,""loc"":2},{""cat"":14,""src"":14,""loc"":1}]","4","14,14,14,8,8,8,22,22,22,9,14,5,15,1,6,4,2,17,0,1,2,3,4,5,6,7,8,6,8,7,1,2,0,4,3,5",NA
"1556","sort_feedback","32","html-keyboard-response","83","582139","0.0-3.0-50.0","2","2020-1-7 22:46:45","PORCUPINE",NA,NA,NA,NA,NA,NA,NA,NA,NA,NA,NA,NA,NA,NA
"19913","setup2",NA,"animation","84","602052","0.0-3.0-51.0","2","2020-1-7 22:46:45","PORCUPINE",NA,NA,"[{""cat"":18,""src"":15,""loc"":5},{""cat"":8,""src"":9,""loc"":4},{""cat"":30,""src"":12,""loc"":3},{""cat"":8,""src"":5,""loc"":6},{""cat"":18,""src"":17,""loc"":8},{""cat"":30,""src"":14,""loc"":7},{""cat"":30,""src"":1,""loc"":2},{""cat"":8,""src"":1,""loc"":1},{""cat"":18,""src"":5,""loc"":0}]","2","1102,1100,1101,1100,1102,1102,1102,1101,1102,10001",NA,NA,NA,NA,NA,NA,NA,NA,NA
"1634","flanker_instructions","39","html-keyboard-response","85","603688","0.0-3.0-52.0","2","2020-1-7 22:46:45","PORCUPINE",NA,NA,NA,NA,NA,NA,NA,NA,NA,NA,NA,NA,NA,NA
"572","flanker_test","39","image-keyboard-response","86","605262","0.0-3.0-53.0-0.0","2","2020-1-7 22:46:45","PORCUPINE",NA,NA,NA,NA,NA,"congruent","right","TRUE",NA,NA,NA,NA,NA,NA
"540","flanker_test","39","image-keyboard-response","87","606570","0.0-3.0-53.0-0.1","2","2020-1-7 22:46:45","PORCUPINE",NA,NA,NA,NA,NA,"incongruent","right","TRUE",NA,NA,NA,NA,NA,NA
"525","flanker_test","37","image-keyboard-response","88","607817","0.0-3.0-53.0-0.2","2","2020-1-7 22:46:45","PORCUPINE",NA,NA,NA,NA,NA,"incongruent","left","TRUE",NA,NA,NA,NA,NA,NA
"448","flanker_test","37","image-keyboard-response","89","609071","0.0-3.0-53.0-0.3","2","2020-1-7 22:46:45","PORCUPINE",NA,NA,NA,NA,NA,"congruent","left","TRUE",NA,NA,NA,NA,NA,NA
"15545","sort_trial",NA,"free-sort","90","624998","0.0-3.0-54.0","2","2020-1-7 22:46:45","PORCUPINE",NA,NA,NA,NA,NA,NA,NA,NA,"[{""cat"":18,""src"":15,""x"":18,""y"":129},{""cat"":8,""src"":9,""x"":16,""y"":78},{""cat"":30,""src"":12,""x"":57,""y"":371},{""cat"":8,""src"":5,""x"":10,""y"":483},{""cat"":18,""src"":17,""x"":54,""y"":240},{""cat"":30,""src"":14,""x"":71,""y"":23},{""cat"":30,""src"":1,""x"":30,""y"":440},{""cat"":8,""src"":1,""x"":11,""y"":325},{""cat"":18,""src"":5,""x"":31,""y"":188}]","[{""cat"":""30"",""src"":""12"",""x"":0,""y"":0},{""cat"":""18"",""src"":""15"",""x"":0,""y"":0},{""cat"":""8"",""src"":""9"",""x"":0,""y"":0},{""cat"":""30"",""src"":""1"",""x"":0,""y"":0},{""cat"":""8"",""src"":""1"",""x"":0,""y"":0},{""cat"":""8"",""src"":""5"",""x"":0,""y"":0},{""cat"":""18"",""src"":""17"",""x"":0,""y"":0},{""cat"":""18"",""src"":""5"",""x"":403,""y"":167},{""cat"":""30"",""src"":""14"",""x"":0,""y"":0},{""cat"":""18"",""src"":""5"",""x"":0,""y"":0}]","[{""cat"":30,""src"":12,""loc"":3},{""cat"":18,""src"":15,""loc"":5},{""cat"":8,""src"":9,""loc"":4},{""cat"":30,""src"":1,""loc"":7},{""cat"":8,""src"":1,""loc"":6},{""cat"":8,""src"":5,""loc"":8},{""cat"":18,""src"":17,""loc"":0},{""cat"":30,""src"":14,""loc"":1},{""cat"":18,""src"":5,""loc"":2}]","3","18,30,18,30,8,18,8,30,8,17,14,5,12,9,15,1,1,5,0,1,2,3,4,5,6,7,8,6,7,8,0,2,1,4,3,5",NA
"1723","sort_feedback","32","html-keyboard-response","91","626723","0.0-3.0-55.0","2","2020-1-7 22:46:45","PORCUPINE",NA,NA,NA,NA,NA,NA,NA,NA,NA,NA,NA,NA,NA,NA
"19913","setup4",NA,"animation","92","646636","0.0-3.0-56.0","2","2020-1-7 22:46:45","PORCUPINE",NA,NA,"[{""cat"":31,""src"":9,""loc"":5},{""cat"":31,""src"":5,""loc"":6},{""cat"":31,""src"":17,""loc"":1},{""cat"":23,""src"":13,""loc"":2},{""cat"":23,""src"":3,""loc"":7},{""cat"":23,""src"":19,""loc"":3},{""cat"":5,""src"":10,""loc"":0},{""cat"":5,""src"":2,""loc"":4},{""cat"":5,""src"":8,""loc"":8}]","4","1102,1102,1102,1101,1101,1101,1101,1102,1100,10001",NA,NA,NA,NA,NA,NA,NA,NA,NA
"1580","flanker_instructions","39","html-keyboard-response","93","648216","0.0-3.0-57.0","2","2020-1-7 22:46:45","PORCUPINE",NA,NA,NA,NA,NA,NA,NA,NA,NA,NA,NA,NA,NA,NA
"580","flanker_test","37","image-keyboard-response","94","649799","0.0-3.0-58.0-0.0","2","2020-1-7 22:46:45","PORCUPINE",NA,NA,NA,NA,NA,"incongruent","left","TRUE",NA,NA,NA,NA,NA,NA
"585","flanker_test","39","image-keyboard-response","95","650714","0.0-3.0-58.0-0.1","2","2020-1-7 22:46:45","PORCUPINE",NA,NA,NA,NA,NA,"incongruent","right","TRUE",NA,NA,NA,NA,NA,NA
"456","flanker_test","39","image-keyboard-response","96","651721","0.0-3.0-58.0-0.2","2","2020-1-7 22:46:45","PORCUPINE",NA,NA,NA,NA,NA,"congruent","right","TRUE",NA,NA,NA,NA,NA,NA
"590","flanker_test","37","image-keyboard-response","97","653426","0.0-3.0-58.0-0.3","2","2020-1-7 22:46:45","PORCUPINE",NA,NA,NA,NA,NA,"congruent","left","TRUE",NA,NA,NA,NA,NA,NA
"14623","sort_trial",NA,"free-sort","98","668957","0.0-3.0-59.0","2","2020-1-7 22:46:45","PORCUPINE",NA,NA,NA,NA,NA,NA,NA,NA,"[{""cat"":31,""src"":9,""x"":52,""y"":82},{""cat"":31,""src"":5,""x"":74,""y"":443},{""cat"":31,""src"":17,""x"":75,""y"":242},{""cat"":23,""src"":13,""x"":49,""y"":23},{""cat"":23,""src"":3,""x"":15,""y"":123},{""cat"":23,""src"":19,""x"":11,""y"":184},{""cat"":5,""src"":10,""x"":80,""y"":379},{""cat"":5,""src"":2,""x"":16,""y"":488},{""cat"":5,""src"":8,""x"":66,""y"":319}]","[{""cat"":""5"",""src"":""8"",""x"":0,""y"":0},{""cat"":""23"",""src"":""3"",""x"":0,""y"":0},{""cat"":""31"",""src"":""5"",""x"":0,""y"":0},{""cat"":""5"",""src"":""10"",""x"":0,""y"":0},{""cat"":""31"",""src"":""17"",""x"":0,""y"":0},{""cat"":""23"",""src"":""13"",""x"":0,""y"":0},{""cat"":""23"",""src"":""19"",""x"":0,""y"":0},{""cat"":""31"",""src"":""9"",""x"":0,""y"":0},{""cat"":""5"",""src"":""2"",""x"":0,""y"":0}]","[{""cat"":5,""src"":8,""loc"":8},{""cat"":23,""src"":3,""loc"":7},{""cat"":31,""src"":5,""loc"":6},{""cat"":5,""src"":10,""loc"":0},{""cat"":31,""src"":17,""loc"":1},{""cat"":23,""src"":13,""loc"":2},{""cat"":23,""src"":19,""loc"":5},{""cat"":31,""src"":9,""loc"":3},{""cat"":5,""src"":2,""loc"":4}]","7","5,31,23,31,5,23,31,23,5,10,17,13,9,2,19,5,3,8,0,1,2,3,4,5,6,7,8,3,4,5,7,8,6,2,1,0",NA
"1238","sort_feedback","32","html-keyboard-response","99","670197","0.0-3.0-60.0","2","2020-1-7 22:46:45","PORCUPINE",NA,NA,NA,NA,NA,NA,NA,NA,NA,NA,NA,NA,NA,NA
"19914","setup3",NA,"animation","100","690111","0.0-3.0-61.0","2","2020-1-7 22:46:45","PORCUPINE",NA,NA,"[{""cat"":6,""src"":15,""loc"":0},{""cat"":10,""src"":2,""loc"":5},{""cat"":8,""src"":1,""loc"":7},{""cat"":6,""src"":16,""loc"":2},{""cat"":8,""src"":18,""loc"":6},{""cat"":10,""src"":10,""loc"":4},{""cat"":6,""src"":0,""loc"":1},{""cat"":10,""src"":16,""loc"":3},{""cat"":8,""src"":15,""loc"":8}]","3","1102,1101,1102,1101,1101,1101,1101,1102,1101,10001",NA,NA,NA,NA,NA,NA,NA,NA,NA
"914","flanker_instructions","39","html-keyboard-response","101","691026","0.0-3.0-62.0","2","2020-1-7 22:46:45","PORCUPINE",NA,NA,NA,NA,NA,NA,NA,NA,NA,NA,NA,NA,NA,NA
"488","flanker_test","37","image-keyboard-response","102","692516","0.0-3.0-63.0-0.0","2","2020-1-7 22:46:45","PORCUPINE",NA,NA,NA,NA,NA,"incongruent","right","FALSE",NA,NA,NA,NA,NA,NA
"442","flanker_test","39","image-keyboard-response","103","694033","0.0-3.0-63.0-0.1","2","2020-1-7 22:46:45","PORCUPINE",NA,NA,NA,NA,NA,"congruent","right","TRUE",NA,NA,NA,NA,NA,NA
"482","flanker_test","37","image-keyboard-response","104","695613","0.0-3.0-63.0-0.2","2","2020-1-7 22:46:45","PORCUPINE",NA,NA,NA,NA,NA,"congruent","left","TRUE",NA,NA,NA,NA,NA,NA
"545","flanker_test","37","image-keyboard-response","105","697011","0.0-3.0-63.0-0.3","2","2020-1-7 22:46:45","PORCUPINE",NA,NA,NA,NA,NA,"incongruent","left","TRUE",NA,NA,NA,NA,NA,NA
"12412","sort_trial",NA,"free-sort","106","710174","0.0-3.0-64.0","2","2020-1-7 22:46:45","PORCUPINE",NA,NA,NA,NA,NA,NA,NA,NA,"[{""cat"":6,""src"":15,""x"":65,""y"":261},{""cat"":10,""src"":2,""x"":72,""y"":385},{""cat"":8,""src"":1,""x"":5,""y"":201},{""cat"":6,""src"":16,""x"":36,""y"":310},{""cat"":8,""src"":18,""x"":82,""y"":6},{""cat"":10,""src"":10,""x"":55,""y"":77},{""cat"":6,""src"":0,""x"":0,""y"":428},{""cat"":10,""src"":16,""x"":62,""y"":480},{""cat"":8,""src"":15,""x"":16,""y"":139}]","[{""cat"":""6"",""src"":""15"",""x"":0,""y"":0},{""cat"":""6"",""src"":""16"",""x"":0,""y"":0},{""cat"":""6"",""src"":""0"",""x"":0,""y"":0},{""cat"":""8"",""src"":""18"",""x"":0,""y"":0},{""cat"":""10"",""src"":""2"",""x"":0,""y"":0},{""cat"":""10"",""src"":""16"",""x"":0,""y"":0},{""cat"":""8"",""src"":""1"",""x"":0,""y"":0},{""cat"":""8"",""src"":""15"",""x"":0,""y"":0},{""cat"":""10"",""src"":""10"",""x"":0,""y"":0}]","[{""cat"":6,""src"":15,""loc"":0},{""cat"":6,""src"":16,""loc"":2},{""cat"":6,""src"":0,""loc"":1},{""cat"":8,""src"":18,""loc"":7},{""cat"":10,""src"":2,""loc"":6},{""cat"":10,""src"":16,""loc"":8},{""cat"":8,""src"":1,""loc"":5},{""cat"":8,""src"":15,""loc"":3},{""cat"":10,""src"":10,""loc"":4}]","4","6,6,6,8,10,8,10,8,10,15,0,16,15,10,1,2,18,16,0,1,2,3,4,5,6,7,8,0,2,1,7,8,6,4,3,5",NA
"1303","sort_feedback","32","html-keyboard-response","107","711478","0.0-3.0-65.0","2","2020-1-7 22:46:45","PORCUPINE",NA,NA,NA,NA,NA,NA,NA,NA,NA,NA,NA,NA,NA,NA
"19913","setup1",NA,"animation","108","731391","0.0-3.0-66.0","2","2020-1-7 22:46:45","PORCUPINE",NA,NA,"[{""cat"":31,""src"":16,""loc"":7},{""cat"":31,""src"":11,""loc"":8},{""cat"":31,""src"":3,""loc"":6},{""cat"":32,""src"":9,""loc"":5},{""cat"":32,""src"":3,""loc"":3},{""cat"":32,""src"":16,""loc"":4},{""cat"":6,""src"":5,""loc"":2},{""cat"":6,""src"":9,""loc"":1},{""cat"":6,""src"":1,""loc"":0}]","1","1102,1101,1101,1101,1100,1102,1101,1102,1101,10001",NA,NA,NA,NA,NA,NA,NA,NA,NA
"901","flanker_instructions","39","html-keyboard-response","109","732292","0.0-3.0-67.0","2","2020-1-7 22:46:45","PORCUPINE",NA,NA,NA,NA,NA,NA,NA,NA,NA,NA,NA,NA,NA,NA
"622","flanker_test","37","image-keyboard-response","110","733915","0.0-3.0-68.0-0.0","2","2020-1-7 22:46:45","PORCUPINE",NA,NA,NA,NA,NA,"incongruent","left","TRUE",NA,NA,NA,NA,NA,NA
"723","flanker_test","39","image-keyboard-response","111","735766","0.0-3.0-68.0-0.1","2","2020-1-7 22:46:45","PORCUPINE",NA,NA,NA,NA,NA,"incongruent","right","TRUE",NA,NA,NA,NA,NA,NA
"742","flanker_test","37","image-keyboard-response","112","736842","0.0-3.0-68.0-0.2","2","2020-1-7 22:46:45","PORCUPINE",NA,NA,NA,NA,NA,"congruent","left","TRUE",NA,NA,NA,NA,NA,NA
"490","flanker_test","39","image-keyboard-response","113","737836","0.0-3.0-68.0-0.3","2","2020-1-7 22:46:45","PORCUPINE",NA,NA,NA,NA,NA,"congruent","right","TRUE",NA,NA,NA,NA,NA,NA
"20658","sort_trial",NA,"free-sort","114","759089","0.0-3.0-69.0","2","2020-1-7 22:46:45","PORCUPINE",NA,NA,NA,NA,NA,NA,NA,NA,"[{""cat"":31,""src"":16,""x"":6,""y"":81},{""cat"":31,""src"":11,""x"":63,""y"":482},{""cat"":31,""src"":3,""x"":56,""y"":314},{""cat"":32,""src"":9,""x"":65,""y"":419},{""cat"":32,""src"":3,""x"":32,""y"":13},{""cat"":32,""src"":16,""x"":65,""y"":132},{""cat"":6,""src"":5,""x"":22,""y"":252},{""cat"":6,""src"":9,""x"":7,""y"":205},{""cat"":6,""src"":1,""x"":75,""y"":365}]","[{""cat"":""31"",""src"":""11"",""x"":0,""y"":0},{""cat"":""31"",""src"":""3"",""x"":0,""y"":0},{""cat"":""31"",""src"":""16"",""x"":0,""y"":0},{""cat"":""32"",""src"":""9"",""x"":0,""y"":0},{""cat"":""32"",""src"":""3"",""x"":0,""y"":0},{""cat"":""32"",""src"":""16"",""x"":0,""y"":0},{""cat"":""6"",""src"":""1"",""x"":0,""y"":0},{""cat"":""6"",""src"":""5"",""x"":367,""y"":173},{""cat"":""6"",""src"":""5"",""x"":0,""y"":0},{""cat"":""6"",""src"":""9"",""x"":0,""y"":0}]","[{""cat"":31,""src"":11,""loc"":8},{""cat"":31,""src"":3,""loc"":6},{""cat"":31,""src"":16,""loc"":7},{""cat"":32,""src"":9,""loc"":5},{""cat"":32,""src"":3,""loc"":3},{""cat"":32,""src"":16,""loc"":4},{""cat"":6,""src"":1,""loc"":0},{""cat"":6,""src"":5,""loc"":2},{""cat"":6,""src"":9,""loc"":1}]","9","6,6,6,32,32,32,31,31,31,1,9,5,3,16,9,3,16,11,0,1,2,3,4,5,6,7,8,6,8,7,4,5,3,1,2,0",NA
"1229","sort_feedback","32","html-keyboard-response","115","760319","0.0-3.0-70.0","2","2020-1-7 22:46:45","PORCUPINE",NA,NA,NA,NA,NA,NA,NA,NA,NA,NA,NA,NA,NA,NA
"19913","setup5",NA,"animation","116","780233","0.0-3.0-71.0","2","2020-1-7 22:46:45","PORCUPINE",NA,NA,"[{""cat"":7,""src"":12,""loc"":1},{""cat"":9,""src"":17,""loc"":7},{""cat"":19,""src"":1,""loc"":5},{""cat"":19,""src"":6,""loc"":2},{""cat"":7,""src"":5,""loc"":8},{""cat"":9,""src"":16,""loc"":4},{""cat"":19,""src"":5,""loc"":6},{""cat"":7,""src"":10,""loc"":3},{""cat"":9,""src"":11,""loc"":0}]","5","1102,1101,1101,1101,1101,1102,1100,1102,1102,10001",NA,NA,NA,NA,NA,NA,NA,NA,NA
"1066","flanker_instructions","39","html-keyboard-response","117","781300","0.0-3.0-72.0","2","2020-1-7 22:46:45","PORCUPINE",NA,NA,NA,NA,NA,NA,NA,NA,NA,NA,NA,NA,NA,NA
"563","flanker_test","37","image-keyboard-response","118","782864","0.0-3.0-73.0-0.0","2","2020-1-7 22:46:45","PORCUPINE",NA,NA,NA,NA,NA,"congruent","left","TRUE",NA,NA,NA,NA,NA,NA
"613","flanker_test","37","image-keyboard-response","119","784038","0.0-3.0-73.0-0.1","2","2020-1-7 22:46:45","PORCUPINE",NA,NA,NA,NA,NA,"incongruent","left","TRUE",NA,NA,NA,NA,NA,NA
"488","flanker_test","39","image-keyboard-response","120","785040","0.0-3.0-73.0-0.2","2","2020-1-7 22:46:45","PORCUPINE",NA,NA,NA,NA,NA,"congruent","right","TRUE",NA,NA,NA,NA,NA,NA
"650","flanker_test","39","image-keyboard-response","121","786808","0.0-3.0-73.0-0.3","2","2020-1-7 22:46:45","PORCUPINE",NA,NA,NA,NA,NA,"incongruent","right","TRUE",NA,NA,NA,NA,NA,NA
"13452","sort_trial",NA,"free-sort","122","800877","0.0-3.0-74.0","2","2020-1-7 22:46:45","PORCUPINE",NA,NA,NA,NA,NA,NA,NA,NA,"[{""cat"":7,""src"":12,""x"":70,""y"":259},{""cat"":9,""src"":17,""x"":20,""y"":314},{""cat"":19,""src"":1,""x"":49,""y"":500},{""cat"":19,""src"":6,""x"":4,""y"":73},{""cat"":7,""src"":5,""x"":55,""y"":137},{""cat"":9,""src"":16,""x"":41,""y"":4},{""cat"":19,""src"":5,""x"":39,""y"":442},{""cat"":7,""src"":10,""x"":38,""y"":204},{""cat"":9,""src"":11,""x"":25,""y"":370}]","[{""cat"":""9"",""src"":""11"",""x"":0,""y"":0},{""cat"":""19"",""src"":""6"",""x"":0,""y"":0},{""cat"":""7"",""src"":""12"",""x"":0,""y"":0},{""cat"":""9"",""src"":""17"",""x"":0,""y"":0},{""cat"":""7"",""src"":""5"",""x"":0,""y"":0},{""cat"":""7"",""src"":""10"",""x"":0,""y"":0},{""cat"":""9"",""src"":""16"",""x"":0,""y"":0},{""cat"":""19"",""src"":""5"",""x"":0,""y"":0},{""cat"":""19"",""src"":""1"",""x"":0,""y"":0}]","[{""cat"":9,""src"":11,""loc"":7},{""cat"":19,""src"":6,""loc"":6},{""cat"":7,""src"":12,""loc"":8},{""cat"":9,""src"":17,""loc"":0},{""cat"":7,""src"":5,""loc"":2},{""cat"":7,""src"":10,""loc"":1},{""cat"":9,""src"":16,""loc"":5},{""cat"":19,""src"":5,""loc"":3},{""cat"":19,""src"":1,""loc"":4}]","0","9,7,7,19,19,9,19,9,7,17,10,5,5,1,16,6,11,12,0,1,2,3,4,5,6,7,8,3,5,4,7,8,6,1,0,2",NA
"1198","sort_feedback","32","html-keyboard-response","123","802076","0.0-3.0-75.0","2","2020-1-7 22:46:45","PORCUPINE",NA,NA,NA,NA,NA,NA,NA,NA,NA,NA,NA,NA,NA,NA
"19913","setup4",NA,"animation","124","821989","0.0-3.0-76.0","2","2020-1-7 22:46:45","PORCUPINE",NA,NA,"[{""cat"":5,""src"":14,""loc"":4},{""cat"":5,""src"":5,""loc"":6},{""cat"":5,""src"":9,""loc"":0},{""cat"":23,""src"":6,""loc"":7},{""cat"":23,""src"":2,""loc"":1},{""cat"":23,""src"":10,""loc"":5},{""cat"":6,""src"":8,""loc"":3},{""cat"":6,""src"":18,""loc"":2},{""cat"":6,""src"":2,""loc"":8}]","4","1102,1101,1101,1102,1101,1101,1101,1101,1102,10001",NA,NA,NA,NA,NA,NA,NA,NA,NA
"1158","flanker_instructions","39","html-keyboard-response","125","823148","0.0-3.0-77.0","2","2020-1-7 22:46:45","PORCUPINE",NA,NA,NA,NA,NA,NA,NA,NA,NA,NA,NA,NA,NA,NA
"436","flanker_test","37","image-keyboard-response","126","824586","0.0-3.0-78.0-0.0","2","2020-1-7 22:46:45","PORCUPINE",NA,NA,NA,NA,NA,"incongruent","right","FALSE",NA,NA,NA,NA,NA,NA
"564","flanker_test","37","image-keyboard-response","127","825994","0.0-3.0-78.0-0.1","2","2020-1-7 22:46:45","PORCUPINE",NA,NA,NA,NA,NA,"congruent","left","TRUE",NA,NA,NA,NA,NA,NA
"611","flanker_test","37","image-keyboard-response","128","827262","0.0-3.0-78.0-0.2","2","2020-1-7 22:46:45","PORCUPINE",NA,NA,NA,NA,NA,"incongruent","left","TRUE",NA,NA,NA,NA,NA,NA
"507","flanker_test","39","image-keyboard-response","129","828381","0.0-3.0-78.0-0.3","2","2020-1-7 22:46:45","PORCUPINE",NA,NA,NA,NA,NA,"congruent","right","TRUE",NA,NA,NA,NA,NA,NA
"13475","sort_trial",NA,"free-sort","130","842166","0.0-3.0-79.0","2","2020-1-7 22:46:45","PORCUPINE",NA,NA,NA,NA,NA,NA,NA,NA,"[{""cat"":5,""src"":14,""x"":12,""y"":481},{""cat"":5,""src"":5,""x"":2,""y"":325},{""cat"":5,""src"":9,""x"":29,""y"":244},{""cat"":23,""src"":6,""x"":35,""y"":191},{""cat"":23,""src"":2,""x"":52,""y"":19},{""cat"":23,""src"":10,""x"":56,""y"":68},{""cat"":6,""src"":8,""x"":13,""y"":382},{""cat"":6,""src"":18,""x"":57,""y"":437},{""cat"":6,""src"":2,""x"":44,""y"":131}]","[{""cat"":""5"",""src"":""9"",""x"":0,""y"":0},{""cat"":""23"",""src"":""2"",""x"":0,""y"":0},{""cat"":""6"",""src"":""18"",""x"":0,""y"":0},{""cat"":""6"",""src"":""8"",""x"":0,""y"":0},{""cat"":""6"",""src"":""2"",""x"":0,""y"":0},{""cat"":""23"",""src"":""10"",""x"":0,""y"":0},{""cat"":""23"",""src"":""6"",""x"":0,""y"":0},{""cat"":""5"",""src"":""5"",""x"":0,""y"":0},{""cat"":""5"",""src"":""14"",""x"":0,""y"":0}]","[{""cat"":5,""src"":9,""loc"":7},{""cat"":23,""src"":2,""loc"":6},{""cat"":6,""src"":18,""loc"":8},{""cat"":6,""src"":8,""loc"":0},{""cat"":6,""src"":2,""loc"":2},{""cat"":23,""src"":10,""loc"":1},{""cat"":23,""src"":6,""loc"":5},{""cat"":5,""src"":5,""loc"":3},{""cat"":5,""src"":14,""loc"":4}]","1","6,23,6,5,5,23,23,5,6,8,10,2,5,14,6,2,9,18,0,1,2,3,4,5,6,7,8,3,5,4,7,8,6,1,0,2",NA
"1562","sort_feedback","32","html-keyboard-response","131","843729","0.0-3.0-80.0","2","2020-1-7 22:46:45","PORCUPINE",NA,NA,NA,NA,NA,NA,NA,NA,NA,NA,NA,NA,NA,NA
"19917","setup5",NA,"animation","132","863646","0.0-3.0-81.0","2","2020-1-7 22:46:45","PORCUPINE",NA,NA,"[{""cat"":27,""src"":12,""loc"":5},{""cat"":11,""src"":12,""loc"":1},{""cat"":17,""src"":0,""loc"":8},{""cat"":17,""src"":18,""loc"":4},{""cat"":11,""src"":16,""loc"":6},{""cat"":27,""src"":19,""loc"":2},{""cat"":27,""src"":15,""loc"":7},{""cat"":11,""src"":9,""loc"":3},{""cat"":17,""src"":6,""loc"":0}]","5","1102,1102,1102,1101,1102,1100,1102,1102,1102,10002",NA,NA,NA,NA,NA,NA,NA,NA,NA
"982","flanker_instructions","39","html-keyboard-response","133","864630","0.0-3.0-82.0","2","2020-1-7 22:46:45","PORCUPINE",NA,NA,NA,NA,NA,NA,NA,NA,NA,NA,NA,NA,NA,NA
"568","flanker_test","37","image-keyboard-response","134","866200","0.0-3.0-83.0-0.0","2","2020-1-7 22:46:45","PORCUPINE",NA,NA,NA,NA,NA,"incongruent","left","TRUE",NA,NA,NA,NA,NA,NA
"562","flanker_test","39","image-keyboard-response","135","867141","0.0-3.0-83.0-0.1","2","2020-1-7 22:46:45","PORCUPINE",NA,NA,NA,NA,NA,"congruent","right","TRUE",NA,NA,NA,NA,NA,NA
"427","flanker_test","37","image-keyboard-response","136","868169","0.0-3.0-83.0-0.2","2","2020-1-7 22:46:45","PORCUPINE",NA,NA,NA,NA,NA,"congruent","left","TRUE",NA,NA,NA,NA,NA,NA
"436","flanker_test","37","image-keyboard-response","137","869765","0.0-3.0-83.0-0.3","2","2020-1-7 22:46:45","PORCUPINE",NA,NA,NA,NA,NA,"incongruent","right","FALSE",NA,NA,NA,NA,NA,NA
"15443","sort_trial",NA,"free-sort","138","886201","0.0-3.0-84.0","2","2020-1-7 22:46:45","PORCUPINE",NA,NA,NA,NA,NA,NA,NA,NA,"[{""cat"":27,""src"":12,""x"":2,""y"":480},{""cat"":11,""src"":12,""x"":57,""y"":432},{""cat"":17,""src"":0,""x"":58,""y"":11},{""cat"":17,""src"":18,""x"":75,""y"":304},{""cat"":11,""src"":16,""x"":78,""y"":79},{""cat"":27,""src"":19,""x"":27,""y"":135},{""cat"":27,""src"":15,""x"":52,""y"":243},{""cat"":11,""src"":9,""x"":29,""y"":185},{""cat"":17,""src"":6,""x"":36,""y"":375}]","[{""cat"":""27"",""src"":""12"",""x"":0,""y"":0},{""cat"":""11"",""src"":""9"",""x"":0,""y"":0},{""cat"":""17"",""src"":""18"",""x"":0,""y"":0},{""cat"":""17"",""src"":""6"",""x"":255,""y"":363},{""cat"":""11"",""src"":""12"",""x"":0,""y"":0},{""cat"":""17"",""src"":""6"",""x"":0,""y"":0},{""cat"":""27"",""src"":""15"",""x"":0,""y"":0},{""cat"":""27"",""src"":""19"",""x"":0,""y"":0},{""cat"":""11"",""src"":""16"",""x"":0,""y"":0},{""cat"":""17"",""src"":""0"",""x"":0,""y"":0}]","[{""cat"":27,""src"":12,""loc"":5},{""cat"":11,""src"":9,""loc"":3},{""cat"":17,""src"":18,""loc"":4},{""cat"":11,""src"":12,""loc"":7},{""cat"":17,""src"":6,""loc"":6},{""cat"":27,""src"":15,""loc"":8},{""cat"":27,""src"":19,""loc"":0},{""cat"":11,""src"":16,""loc"":2},{""cat"":17,""src"":0,""loc"":1}]","3","27,17,11,11,17,27,17,11,27,19,0,16,9,18,12,6,12,15,0,1,2,3,4,5,6,7,8,6,8,7,1,2,0,4,3,5",NA
"1721","sort_feedback","32","html-keyboard-response","139","887923","0.0-3.0-85.0","2","2020-1-7 22:46:45","PORCUPINE",NA,NA,NA,NA,NA,NA,NA,NA,NA,NA,NA,NA,NA,NA
"19916","setup2",NA,"animation","140","907839","0.0-3.0-86.0","2","2020-1-7 22:46:45","PORCUPINE",NA,NA,"[{""cat"":8,""src"":15,""loc"":1},{""cat"":25,""src"":15,""loc"":2},{""cat"":15,""src"":14,""loc"":0},{""cat"":25,""src"":3,""loc"":7},{""cat"":8,""src"":14,""loc"":6},{""cat"":15,""src"":5,""loc"":8},{""cat"":25,""src"":10,""loc"":4},{""cat"":15,""src"":0,""loc"":5},{""cat"":8,""src"":2,""loc"":3}]","2","1103,1101,1102,1102,1101,1102,1101,1102,1101,10001",NA,NA,NA,NA,NA,NA,NA,NA,NA
"879","flanker_instructions","39","html-keyboard-response","141","908719","0.0-3.0-87.0","2","2020-1-7 22:46:45","PORCUPINE",NA,NA,NA,NA,NA,NA,NA,NA,NA,NA,NA,NA,NA,NA
"551","flanker_test","37","image-keyboard-response","142","910272","0.0-3.0-88.0-0.0","2","2020-1-7 22:46:45","PORCUPINE",NA,NA,NA,NA,NA,"incongruent","left","TRUE",NA,NA,NA,NA,NA,NA
"487","flanker_test","37","image-keyboard-response","143","911704","0.0-3.0-88.0-0.1","2","2020-1-7 22:46:45","PORCUPINE",NA,NA,NA,NA,NA,"congruent","left","TRUE",NA,NA,NA,NA,NA,NA
"570","flanker_test","39","image-keyboard-response","144","913208","0.0-3.0-88.0-0.2","2","2020-1-7 22:46:45","PORCUPINE",NA,NA,NA,NA,NA,"incongruent","right","TRUE",NA,NA,NA,NA,NA,NA
"463","flanker_test","39","image-keyboard-response","145","914201","0.0-3.0-88.0-0.3","2","2020-1-7 22:46:45","PORCUPINE",NA,NA,NA,NA,NA,"congruent","right","TRUE",NA,NA,NA,NA,NA,NA
"16723","sort_trial",NA,"free-sort","146","931430","0.0-3.0-89.0","2","2020-1-7 22:46:45","PORCUPINE",NA,NA,NA,NA,NA,NA,NA,NA,"[{""cat"":8,""src"":15,""x"":50,""y"":420},{""cat"":25,""src"":15,""x"":68,""y"":70},{""cat"":15,""src"":14,""x"":9,""y"":28},{""cat"":25,""src"":3,""x"":11,""y"":261},{""cat"":8,""src"":14,""x"":67,""y"":382},{""cat"":15,""src"":5,""x"":11,""y"":208},{""cat"":25,""src"":10,""x"":41,""y"":501},{""cat"":15,""src"":0,""x"":73,""y"":323},{""cat"":8,""src"":2,""x"":57,""y"":131}]","[{""cat"":""15"",""src"":""14"",""x"":0,""y"":0},{""cat"":""25"",""src"":""15"",""x"":0,""y"":0},{""cat"":""8"",""src"":""15"",""x"":0,""y"":0},{""cat"":""15"",""src"":""5"",""x"":0,""y"":0},{""cat"":""15"",""src"":""0"",""x"":0,""y"":0},{""cat"":""8"",""src"":""14"",""x"":0,""y"":0},{""cat"":""25"",""src"":""3"",""x"":0,""y"":0},{""cat"":""25"",""src"":""10"",""x"":485,""y"":363},{""cat"":""25"",""src"":""10"",""x"":0,""y"":0},{""cat"":""8"",""src"":""2"",""x"":0,""y"":0}]","[{""cat"":15,""src"":14,""loc"":0},{""cat"":25,""src"":15,""loc"":2},{""cat"":8,""src"":15,""loc"":1},{""cat"":15,""src"":5,""loc"":7},{""cat"":15,""src"":0,""loc"":3},{""cat"":8,""src"":14,""loc"":6},{""cat"":25,""src"":3,""loc"":8},{""cat"":25,""src"":10,""loc"":5},{""cat"":8,""src"":2,""loc"":4}]","4","15,8,25,15,8,25,8,15,25,14,15,15,0,2,10,14,5,3,0,1,2,3,4,5,6,7,8,0,2,1,4,8,7,5,3,6",NA
"1348","sort_feedback","32","html-keyboard-response","147","932779","0.0-3.0-90.0","2","2020-1-7 22:46:45","PORCUPINE",NA,NA,NA,NA,NA,NA,NA,NA,NA,NA,NA,NA,NA,NA
"19916","setup1",NA,"animation","148","952696","0.0-3.0-91.0","2","2020-1-7 22:46:45","PORCUPINE",NA,NA,"[{""cat"":8,""src"":3,""loc"":5},{""cat"":8,""src"":11,""loc"":3},{""cat"":8,""src"":7,""loc"":4},{""cat"":5,""src"":3,""loc"":8},{""cat"":5,""src"":7,""loc"":6},{""cat"":5,""src"":1,""loc"":7},{""cat"":24,""src"":8,""loc"":0},{""cat"":24,""src"":0,""loc"":2},{""cat"":24,""src"":17,""loc"":1}]","1","1102,1102,1101,1101,1101,1103,1101,1101,1102,10002",NA,NA,NA,NA,NA,NA,NA,NA,NA
"927","flanker_instructions","39","html-keyboard-response","149","953623","0.0-3.0-92.0","2","2020-1-7 22:46:45","PORCUPINE",NA,NA,NA,NA,NA,NA,NA,NA,NA,NA,NA,NA,NA,NA
"516","flanker_test","39","image-keyboard-response","150","955140","0.0-3.0-93.0-0.0","2","2020-1-7 22:46:45","PORCUPINE",NA,NA,NA,NA,NA,"incongruent","right","TRUE",NA,NA,NA,NA,NA,NA
"437","flanker_test","39","image-keyboard-response","151","956116","0.0-3.0-93.0-0.1","2","2020-1-7 22:46:45","PORCUPINE",NA,NA,NA,NA,NA,"congruent","right","TRUE",NA,NA,NA,NA,NA,NA
"745","flanker_test","37","image-keyboard-response","152","957360","0.0-3.0-93.0-0.2","2","2020-1-7 22:46:45","PORCUPINE",NA,NA,NA,NA,NA,"congruent","left","TRUE",NA,NA,NA,NA,NA,NA
"585","flanker_test","37","image-keyboard-response","153","959073","0.0-3.0-93.0-0.3","2","2020-1-7 22:46:45","PORCUPINE",NA,NA,NA,NA,NA,"incongruent","left","TRUE",NA,NA,NA,NA,NA,NA
"16057","sort_trial",NA,"free-sort","154","976237","0.0-3.0-94.0","2","2020-1-7 22:46:45","PORCUPINE",NA,NA,NA,NA,NA,NA,NA,NA,"[{""cat"":8,""src"":3,""x"":75,""y"":253},{""cat"":8,""src"":11,""x"":56,""y"":427},{""cat"":8,""src"":7,""x"":49,""y"":13},{""cat"":5,""src"":3,""x"":42,""y"":200},{""cat"":5,""src"":7,""x"":21,""y"":375},{""cat"":5,""src"":1,""x"":21,""y"":89},{""cat"":24,""src"":8,""x"":34,""y"":496},{""cat"":24,""src"":0,""x"":18,""y"":319},{""cat"":24,""src"":17,""x"":30,""y"":130}]","[{""cat"":""5"",""src"":""7"",""x"":0,""y"":0},{""cat"":""5"",""src"":""3"",""x"":0,""y"":0},{""cat"":""5"",""src"":""1"",""x"":0,""y"":0},{""cat"":""24"",""src"":""17"",""x"":0,""y"":0},{""cat"":""8"",""src"":""7"",""x"":0,""y"":0},{""cat"":""8"",""src"":""3"",""x"":434,""y"":181},{""cat"":""24"",""src"":""0"",""x"":18,""y"":319},{""cat"":""8"",""src"":""3"",""x"":0,""y"":0},{""cat"":""24"",""src"":""0"",""x"":0,""y"":0},{""cat"":""8"",""src"":""11"",""x"":0,""y"":0},{""cat"":""24"",""src"":""8"",""x"":0,""y"":0}]","[{""cat"":5,""src"":7,""loc"":3},{""cat"":5,""src"":3,""loc"":4},{""cat"":5,""src"":1,""loc"":5},{""cat"":24,""src"":17,""loc"":0},{""cat"":8,""src"":7,""loc"":1},{""cat"":8,""src"":3,""loc"":2},{""cat"":24,""src"":0,""loc"":7},{""cat"":8,""src"":11,""loc"":6},{""cat"":24,""src"":8,""loc"":8}]","0","24,8,8,5,5,5,8,24,24,17,7,3,7,3,1,11,0,8,0,1,2,3,4,5,6,7,8,3,4,5,0,1,2,7,6,8",NA
"1549","sort_feedback","32","html-keyboard-response","155","977787","0.0-3.0-95.0","2","2020-1-7 22:46:45","PORCUPINE",NA,NA,NA,NA,NA,NA,NA,NA,NA,NA,NA,NA,NA,NA
"19914","setup3",NA,"animation","156","997701","0.0-3.0-96.0","2","2020-1-7 22:46:45","PORCUPINE",NA,NA,"[{""cat"":11,""src"":6,""loc"":8},{""cat"":17,""src"":19,""loc"":3},{""cat"":6,""src"":18,""loc"":1},{""cat"":17,""src"":11,""loc"":5},{""cat"":6,""src"":8,""loc"":2},{""cat"":11,""src"":5,""loc"":6},{""cat"":17,""src"":3,""loc"":4},{""cat"":6,""src"":16,""loc"":0},{""cat"":11,""src"":11,""loc"":7}]","3","1102,1100,1101,1102,1102,1101,1102,1101,1102,10001",NA,NA,NA,NA,NA,NA,NA,NA,NA
"1519","flanker_instructions","39","html-keyboard-response","157","999220","0.0-3.0-97.0","2","2020-1-7 22:46:45","PORCUPINE",NA,NA,NA,NA,NA,NA,NA,NA,NA,NA,NA,NA,NA,NA
"390","flanker_test","39","image-keyboard-response","158","1000613","0.0-3.0-98.0-0.0","2","2020-1-7 22:46:45","PORCUPINE",NA,NA,NA,NA,NA,"congruent","right","TRUE",NA,NA,NA,NA,NA,NA
"707","flanker_test","39","image-keyboard-response","159","1002359","0.0-3.0-98.0-0.1","2","2020-1-7 22:46:45","PORCUPINE",NA,NA,NA,NA,NA,"incongruent","right","TRUE",NA,NA,NA,NA,NA,NA
"625","flanker_test","37","image-keyboard-response","160","1003292","0.0-3.0-98.0-0.2","2","2020-1-7 22:46:45","PORCUPINE",NA,NA,NA,NA,NA,"congruent","left","TRUE",NA,NA,NA,NA,NA,NA
"533","flanker_test","37","image-keyboard-response","161","1004306","0.0-3.0-98.0-0.3","2","2020-1-7 22:46:45","PORCUPINE",NA,NA,NA,NA,NA,"incongruent","left","TRUE",NA,NA,NA,NA,NA,NA
"22737","sort_trial",NA,"free-sort","162","1028136","0.0-3.0-99.0","2","2020-1-7 22:46:45","PORCUPINE",NA,NA,NA,NA,NA,NA,NA,NA,"[{""cat"":11,""src"":6,""x"":8,""y"":29},{""cat"":17,""src"":19,""x"":21,""y"":482},{""cat"":6,""src"":18,""x"":22,""y"":205},{""cat"":17,""src"":11,""x"":39,""y"":365},{""cat"":6,""src"":8,""x"":65,""y"":444},{""cat"":11,""src"":5,""x"":62,""y"":73},{""cat"":17,""src"":3,""x"":29,""y"":258},{""cat"":6,""src"":16,""x"":70,""y"":325},{""cat"":11,""src"":11,""x"":4,""y"":122}]","[{""cat"":""11"",""src"":""5"",""x"":0,""y"":0},{""cat"":""11"",""src"":""6"",""x"":0,""y"":0},{""cat"":""11"",""src"":""11"",""x"":0,""y"":0},{""cat"":""17"",""src"":""11"",""x"":0,""y"":0},{""cat"":""17"",""src"":""19"",""x"":0,""y"":0},{""cat"":""17"",""src"":""3"",""x"":0,""y"":0},{""cat"":""6"",""src"":""18"",""x"":167,""y"":142},{""cat"":""6"",""src"":""18"",""x"":179,""y"":135},{""cat"":""6"",""src"":""16"",""x"":0,""y"":0},{""cat"":""6"",""src"":""18"",""x"":0,""y"":0},{""cat"":""6"",""src"":""8"",""x"":278,""y"":298},{""cat"":""6"",""src"":""8"",""x"":0,""y"":0}]","[{""cat"":11,""src"":5,""loc"":6},{""cat"":11,""src"":6,""loc"":8},{""cat"":11,""src"":11,""loc"":7},{""cat"":17,""src"":11,""loc"":3},{""cat"":17,""src"":19,""loc"":5},{""cat"":17,""src"":3,""loc"":4},{""cat"":6,""src"":16,""loc"":2},{""cat"":6,""src"":18,""loc"":0},{""cat"":6,""src"":8,""loc"":1}]","4","6,6,6,17,17,17,11,11,11,18,8,16,11,3,19,5,11,6,0,1,2,3,4,5,6,7,8,7,8,6,3,5,4,0,2,1",NA
"1909","sort_feedback","32","html-keyboard-response","163","1030045","0.0-3.0-100.0","2","2020-1-7 22:46:45","PORCUPINE",NA,NA,NA,NA,NA,NA,NA,NA,NA,NA,NA,NA,NA,NA
NA,"breakStart",NA,"html-keyboard-response","164","1060046","0.0-4.0-0.0","2","2020-1-7 22:46:45","PORCUPINE",NA,NA,NA,NA,NA,NA,NA,NA,NA,NA,NA,NA,NA,NA
"963","breakEnd",NA,"html-button-response","165","1061010","0.0-4.0-1.0","2","2020-1-7 22:46:45","PORCUPINE","0",NA,NA,NA,NA,NA,NA,NA,NA,NA,NA,NA,NA,NA
"19914","setup3",NA,"animation","166","1080925","0.0-5.0-0.0","2","2020-1-7 22:46:45","PORCUPINE",NA,NA,"[{""cat"":4,""src"":2,""loc"":8},{""cat"":14,""src"":18,""loc"":3},{""cat"":1,""src"":15,""loc"":1},{""cat"":4,""src"":11,""loc"":7},{""cat"":14,""src"":19,""loc"":4},{""cat"":1,""src"":1,""loc"":0},{""cat"":1,""src"":16,""loc"":2},{""cat"":4,""src"":15,""loc"":6},{""cat"":14,""src"":12,""loc"":5}]","3","1102,1102,1101,1102,1101,1101,1102,1101,1101,10001",NA,NA,NA,NA,NA,NA,NA,NA,NA
"1106","flanker_instructions","39","html-keyboard-response","167","1082032","0.0-5.0-1.0","2","2020-1-7 22:46:45","PORCUPINE",NA,NA,NA,NA,NA,NA,NA,NA,NA,NA,NA,NA,NA,NA
"570","flanker_test","37","image-keyboard-response","168","1083604","0.0-5.0-2.0-0.0","2","2020-1-7 22:46:45","PORCUPINE",NA,NA,NA,NA,NA,"incongruent","left","TRUE",NA,NA,NA,NA,NA,NA
"427","flanker_test","37","image-keyboard-response","169","1084881","0.0-5.0-2.0-0.1","2","2020-1-7 22:46:45","PORCUPINE",NA,NA,NA,NA,NA,"congruent","left","TRUE",NA,NA,NA,NA,NA,NA
"467","flanker_test","39","image-keyboard-response","170","1086262","0.0-5.0-2.0-0.2","2","2020-1-7 22:46:45","PORCUPINE",NA,NA,NA,NA,NA,"congruent","right","TRUE",NA,NA,NA,NA,NA,NA
"526","flanker_test","39","image-keyboard-response","171","1087442","0.0-5.0-2.0-0.3","2","2020-1-7 22:46:45","PORCUPINE",NA,NA,NA,NA,NA,"incongruent","right","TRUE",NA,NA,NA,NA,NA,NA
"15760","sort_trial",NA,"free-sort","172","1103622","0.0-5.0-3.0","2","2020-1-7 22:46:45","PORCUPINE",NA,NA,NA,NA,NA,NA,NA,NA,"[{""cat"":4,""src"":2,""x"":24,""y"":136},{""cat"":14,""src"":18,""x"":11,""y"":189},{""cat"":1,""src"":15,""x"":55,""y"":382},{""cat"":4,""src"":11,""x"":8,""y"":6},{""cat"":14,""src"":19,""x"":65,""y"":485},{""cat"":1,""src"":1,""x"":57,""y"":71},{""cat"":1,""src"":16,""x"":63,""y"":322},{""cat"":4,""src"":15,""x"":4,""y"":437},{""cat"":14,""src"":12,""x"":32,""y"":267}]","[{""cat"":""1"",""src"":""1"",""x"":0,""y"":0},{""cat"":""1"",""src"":""16"",""x"":0,""y"":0},{""cat"":""1"",""src"":""15"",""x"":0,""y"":0},{""cat"":""4"",""src"":""2"",""x"":0,""y"":0},{""cat"":""14"",""src"":""12"",""x"":0,""y"":0},{""cat"":""4"",""src"":""15"",""x"":346,""y"":401},{""cat"":""14"",""src"":""19"",""x"":0,""y"":0},{""cat"":""14"",""src"":""18"",""x"":0,""y"":0},{""cat"":""4"",""src"":""15"",""x"":0,""y"":0},{""cat"":""4"",""src"":""11"",""x"":0,""y"":0}]","[{""cat"":1,""src"":1,""loc"":0},{""cat"":1,""src"":16,""loc"":2},{""cat"":1,""src"":15,""loc"":1},{""cat"":4,""src"":2,""loc"":7},{""cat"":14,""src"":12,""loc"":6},{""cat"":14,""src"":19,""loc"":8},{""cat"":14,""src"":18,""loc"":5},{""cat"":4,""src"":15,""loc"":3},{""cat"":4,""src"":11,""loc"":4}]","3","1,1,1,4,4,14,14,4,14,1,15,16,15,11,18,12,2,19,0,1,2,3,4,5,6,7,8,0,2,1,7,8,6,4,3,5",NA
"1246","sort_feedback","32","html-keyboard-response","173","1104869","0.0-5.0-4.0","2","2020-1-7 22:46:45","PORCUPINE",NA,NA,NA,NA,NA,NA,NA,NA,NA,NA,NA,NA,NA,NA
"19914","setup2",NA,"animation","174","1124783","0.0-5.0-5.0","2","2020-1-7 22:46:45","PORCUPINE",NA,NA,"[{""cat"":27,""src"":0,""loc"":8},{""cat"":33,""src"":14,""loc"":6},{""cat"":32,""src"":10,""loc"":7},{""cat"":32,""src"":16,""loc"":1},{""cat"":33,""src"":18,""loc"":2},{""cat"":27,""src"":6,""loc"":0},{""cat"":32,""src"":1,""loc"":4},{""cat"":33,""src"":13,""loc"":3},{""cat"":27,""src"":12,""loc"":5}]","2","1102,1101,1101,1101,1102,1101,1102,1101,1102,10001",NA,NA,NA,NA,NA,NA,NA,NA,NA
"963","flanker_instructions","39","html-keyboard-response","175","1125747","0.0-5.0-6.0","2","2020-1-7 22:46:45","PORCUPINE",NA,NA,NA,NA,NA,NA,NA,NA,NA,NA,NA,NA,NA,NA
"545","flanker_test","37","image-keyboard-response","176","1127294","0.0-5.0-7.0-0.0","2","2020-1-7 22:46:45","PORCUPINE",NA,NA,NA,NA,NA,"congruent","left","TRUE",NA,NA,NA,NA,NA,NA
"509","flanker_test","39","image-keyboard-response","177","1128416","0.0-5.0-7.0-0.1","2","2020-1-7 22:46:45","PORCUPINE",NA,NA,NA,NA,NA,"congruent","right","TRUE",NA,NA,NA,NA,NA,NA
"537","flanker_test","39","image-keyboard-response","178","1129656","0.0-5.0-7.0-0.2","2","2020-1-7 22:46:45","PORCUPINE",NA,NA,NA,NA,NA,"incongruent","right","TRUE",NA,NA,NA,NA,NA,NA
"573","flanker_test","37","image-keyboard-response","179","1130996","0.0-5.0-7.0-0.3","2","2020-1-7 22:46:45","PORCUPINE",NA,NA,NA,NA,NA,"incongruent","left","TRUE",NA,NA,NA,NA,NA,NA
"17863","sort_trial",NA,"free-sort","180","1149741","0.0-5.0-8.0","2","2020-1-7 22:46:45","PORCUPINE",NA,NA,NA,NA,NA,NA,NA,NA,"[{""cat"":27,""src"":0,""x"":25,""y"":256},{""cat"":33,""src"":14,""x"":34,""y"":207},{""cat"":32,""src"":10,""x"":2,""y"":16},{""cat"":32,""src"":16,""x"":2,""y"":81},{""cat"":33,""src"":18,""x"":26,""y"":494},{""cat"":27,""src"":6,""x"":41,""y"":365},{""cat"":32,""src"":1,""x"":48,""y"":143},{""cat"":33,""src"":13,""x"":15,""y"":436},{""cat"":27,""src"":12,""x"":27,""y"":309}]","[{""cat"":""33"",""src"":""14"",""x"":0,""y"":0},{""cat"":""27"",""src"":""0"",""x"":0,""y"":0},{""cat"":""32"",""src"":""10"",""x"":0,""y"":0},{""cat"":""27"",""src"":""6"",""x"":195,""y"":159},{""cat"":""27"",""src"":""6"",""x"":0,""y"":0},{""cat"":""32"",""src"":""1"",""x"":0,""y"":0},{""cat"":""32"",""src"":""16"",""x"":0,""y"":0},{""cat"":""27"",""src"":""12"",""x"":0,""y"":0},{""cat"":""33"",""src"":""13"",""x"":329,""y"":354},{""cat"":""33"",""src"":""18"",""x"":0,""y"":0},{""cat"":""33"",""src"":""13"",""x"":0,""y"":0}]","[{""cat"":33,""src"":14,""loc"":6},{""cat"":27,""src"":0,""loc"":8},{""cat"":32,""src"":10,""loc"":7},{""cat"":27,""src"":6,""loc"":0},{""cat"":32,""src"":1,""loc"":2},{""cat"":32,""src"":16,""loc"":1},{""cat"":27,""src"":12,""loc"":5},{""cat"":33,""src"":18,""loc"":3},{""cat"":33,""src"":13,""loc"":4}]","6","27,32,32,33,33,27,33,32,27,6,16,1,18,13,12,14,10,0,0,1,2,3,4,5,6,7,8,3,5,4,7,8,6,0,2,1",NA
"1236","sort_feedback","32","html-keyboard-response","181","1150977","0.0-5.0-9.0","2","2020-1-7 22:46:45","PORCUPINE",NA,NA,NA,NA,NA,NA,NA,NA,NA,NA,NA,NA,NA,NA
"19914","setup1",NA,"animation","182","1170891","0.0-5.0-10.0","2","2020-1-7 22:46:45","PORCUPINE",NA,NA,"[{""cat"":16,""src"":19,""loc"":1},{""cat"":16,""src"":0,""loc"":2},{""cat"":16,""src"":16,""loc"":0},{""cat"":33,""src"":6,""loc"":8},{""cat"":33,""src"":5,""loc"":7},{""cat"":33,""src"":9,""loc"":6},{""cat"":17,""src"":4,""loc"":3},{""cat"":17,""src"":17,""loc"":4},{""cat"":17,""src"":13,""loc"":5}]","1","1102,1101,1101,1102,1101,1101,1102,1101,1101,10002",NA,NA,NA,NA,NA,NA,NA,NA,NA
"1477","flanker_instructions","39","html-keyboard-response","183","1172369","0.0-5.0-11.0","2","2020-1-7 22:46:45","PORCUPINE",NA,NA,NA,NA,NA,NA,NA,NA,NA,NA,NA,NA,NA,NA
"666","flanker_test","39","image-keyboard-response","184","1174038","0.0-5.0-12.0-0.0","2","2020-1-7 22:46:45","PORCUPINE",NA,NA,NA,NA,NA,"congruent","right","TRUE",NA,NA,NA,NA,NA,NA
"671","flanker_test","37","image-keyboard-response","185","1175531","0.0-5.0-12.0-0.1","2","2020-1-7 22:46:45","PORCUPINE",NA,NA,NA,NA,NA,"incongruent","left","TRUE",NA,NA,NA,NA,NA,NA
"663","flanker_test","37","image-keyboard-response","186","1176614","0.0-5.0-12.0-0.2","2","2020-1-7 22:46:45","PORCUPINE",NA,NA,NA,NA,NA,"congruent","left","TRUE",NA,NA,NA,NA,NA,NA
"584","flanker_test","39","image-keyboard-response","187","1178246","0.0-5.0-12.0-0.3","2","2020-1-7 22:46:45","PORCUPINE",NA,NA,NA,NA,NA,"incongruent","right","TRUE",NA,NA,NA,NA,NA,NA
"13557","sort_trial",NA,"free-sort","188","1192930","0.0-5.0-13.0","2","2020-1-7 22:46:45","PORCUPINE",NA,NA,NA,NA,NA,NA,NA,NA,"[{""cat"":16,""src"":19,""x"":52,""y"":372},{""cat"":16,""src"":0,""x"":42,""y"":209},{""cat"":16,""src"":16,""x"":32,""y"":303},{""cat"":33,""src"":6,""x"":72,""y"":6},{""cat"":33,""src"":5,""x"":58,""y"":85},{""cat"":33,""src"":9,""x"":33,""y"":143},{""cat"":17,""src"":4,""x"":21,""y"":437},{""cat"":17,""src"":17,""x"":21,""y"":500},{""cat"":17,""src"":13,""x"":73,""y"":256}]","[{""cat"":""16"",""src"":""16"",""x"":0,""y"":0},{""cat"":""16"",""src"":""0"",""x"":0,""y"":0},{""cat"":""16"",""src"":""19"",""x"":0,""y"":0},{""cat"":""17"",""src"":""13"",""x"":0,""y"":0},{""cat"":""17"",""src"":""4"",""x"":0,""y"":0},{""cat"":""17"",""src"":""17"",""x"":0,""y"":0},{""cat"":""33"",""src"":""9"",""x"":0,""y"":0},{""cat"":""33"",""src"":""5"",""x"":0,""y"":0},{""cat"":""33"",""src"":""6"",""x"":0,""y"":0}]","[{""cat"":16,""src"":16,""loc"":0},{""cat"":16,""src"":0,""loc"":2},{""cat"":16,""src"":19,""loc"":1},{""cat"":17,""src"":13,""loc"":7},{""cat"":17,""src"":4,""loc"":6},{""cat"":17,""src"":17,""loc"":8},{""cat"":33,""src"":9,""loc"":5},{""cat"":33,""src"":5,""loc"":3},{""cat"":33,""src"":6,""loc"":4}]","3","16,16,16,33,33,33,17,17,17,16,19,0,5,6,9,4,13,17,0,1,2,3,4,5,6,7,8,0,2,1,7,8,6,4,3,5",NA
"1242","sort_feedback","32","html-keyboard-response","189","1194173","0.0-5.0-14.0","2","2020-1-7 22:46:45","PORCUPINE",NA,NA,NA,NA,NA,NA,NA,NA,NA,NA,NA,NA,NA,NA
"19913","setup5",NA,"animation","190","1214086","0.0-5.0-15.0","2","2020-1-7 22:46:45","PORCUPINE",NA,NA,"[{""cat"":27,""src"":7,""loc"":5},{""cat"":24,""src"":18,""loc"":6},{""cat"":21,""src"":0,""loc"":0},{""cat"":21,""src"":14,""loc"":7},{""cat"":24,""src"":5,""loc"":3},{""cat"":27,""src"":14,""loc"":2},{""cat"":21,""src"":1,""loc"":4},{""cat"":27,""src"":4,""loc"":8},{""cat"":24,""src"":4,""loc"":1}]","5","1101,1101,1101,1101,1100,1102,1102,1102,1102,10001",NA,NA,NA,NA,NA,NA,NA,NA,NA
"1105","flanker_instructions","39","html-keyboard-response","191","1215193","0.0-5.0-16.0","2","2020-1-7 22:46:45","PORCUPINE",NA,NA,NA,NA,NA,NA,NA,NA,NA,NA,NA,NA,NA,NA
"559","flanker_test","39","image-keyboard-response","192","1216754","0.0-5.0-17.0-0.0","2","2020-1-7 22:46:45","PORCUPINE",NA,NA,NA,NA,NA,"incongruent","right","TRUE",NA,NA,NA,NA,NA,NA
"461","flanker_test","39","image-keyboard-response","193","1217765","0.0-5.0-17.0-0.1","2","2020-1-7 22:46:45","PORCUPINE",NA,NA,NA,NA,NA,"congruent","right","TRUE",NA,NA,NA,NA,NA,NA
"506","flanker_test","37","image-keyboard-response","194","1218751","0.0-5.0-17.0-0.2","2","2020-1-7 22:46:45","PORCUPINE",NA,NA,NA,NA,NA,"congruent","left","TRUE",NA,NA,NA,NA,NA,NA
"477","flanker_test","39","image-keyboard-response","195","1219839","0.0-5.0-17.0-0.3","2","2020-1-7 22:46:45","PORCUPINE",NA,NA,NA,NA,NA,"incongruent","left","FALSE",NA,NA,NA,NA,NA,NA
"14762","sort_trial",NA,"free-sort","196","1235355","0.0-5.0-18.0","2","2020-1-7 22:46:45","PORCUPINE",NA,NA,NA,NA,NA,NA,NA,NA,"[{""cat"":27,""src"":7,""x"":83,""y"":127},{""cat"":24,""src"":18,""x"":6,""y"":327},{""cat"":21,""src"":0,""x"":23,""y"":268},{""cat"":21,""src"":14,""x"":3,""y"":79},{""cat"":24,""src"":5,""x"":66,""y"":201},{""cat"":27,""src"":14,""x"":69,""y"":507},{""cat"":21,""src"":1,""x"":2,""y"":441},{""cat"":27,""src"":4,""x"":54,""y"":3},{""cat"":24,""src"":4,""x"":27,""y"":370}]","[{""cat"":""21"",""src"":""1"",""x"":0,""y"":0},{""cat"":""24"",""src"":""5"",""x"":0,""y"":0},{""cat"":""27"",""src"":""7"",""x"":0,""y"":0},{""cat"":""21"",""src"":""14"",""x"":0,""y"":0},{""cat"":""27"",""src"":""4"",""x"":0,""y"":0},{""cat"":""21"",""src"":""0"",""x"":0,""y"":0},{""cat"":""24"",""src"":""18"",""x"":0,""y"":0},{""cat"":""24"",""src"":""4"",""x"":0,""y"":0},{""cat"":""27"",""src"":""14"",""x"":0,""y"":0}]","[{""cat"":21,""src"":1,""loc"":4},{""cat"":24,""src"":5,""loc"":3},{""cat"":27,""src"":7,""loc"":5},{""cat"":21,""src"":14,""loc"":0},{""cat"":27,""src"":4,""loc"":2},{""cat"":21,""src"":0,""loc"":1},{""cat"":24,""src"":18,""loc"":7},{""cat"":24,""src"":4,""loc"":6},{""cat"":27,""src"":14,""loc"":8}]","3","21,21,27,24,21,27,24,24,27,14,0,4,5,1,7,4,18,14,0,1,2,3,4,5,6,7,8,3,5,4,1,0,2,7,6,8",NA
"2064","sort_feedback","32","html-keyboard-response","197","1237419","0.0-5.0-19.0","2","2020-1-7 22:46:45","PORCUPINE",NA,NA,NA,NA,NA,NA,NA,NA,NA,NA,NA,NA,NA,NA
"19911","setup4",NA,"animation","198","1257331","0.0-5.0-20.0","2","2020-1-7 22:46:45","PORCUPINE",NA,NA,"[{""cat"":31,""src"":9,""loc"":5},{""cat"":31,""src"":2,""loc"":2},{""cat"":31,""src"":12,""loc"":6},{""cat"":9,""src"":0,""loc"":1},{""cat"":9,""src"":13,""loc"":3},{""cat"":9,""src"":18,""loc"":8},{""cat"":19,""src"":19,""loc"":0},{""cat"":19,""src"":8,""loc"":4},{""cat"":19,""src"":18,""loc"":7}]","4","1101,1101,1101,1100,1102,1101,1102,1100,1101,10002",NA,NA,NA,NA,NA,NA,NA,NA,NA
"2439","flanker_instructions","39","html-keyboard-response","199","1259770","0.0-5.0-21.0","2","2020-1-7 22:46:45","PORCUPINE",NA,NA,NA,NA,NA,NA,NA,NA,NA,NA,NA,NA,NA,NA
"666","flanker_test","37","image-keyboard-response","200","1261438","0.0-5.0-22.0-0.0","2","2020-1-7 22:46:45","PORCUPINE",NA,NA,NA,NA,NA,"incongruent","left","TRUE",NA,NA,NA,NA,NA,NA
"403","flanker_test","37","image-keyboard-response","201","1262348","0.0-5.0-22.0-0.1","2","2020-1-7 22:46:45","PORCUPINE",NA,NA,NA,NA,NA,"congruent","left","TRUE",NA,NA,NA,NA,NA,NA
"460","flanker_test","39","image-keyboard-response","202","1263947","0.0-5.0-22.0-0.2","2","2020-1-7 22:46:45","PORCUPINE",NA,NA,NA,NA,NA,"congruent","right","TRUE",NA,NA,NA,NA,NA,NA
"675","flanker_test","39","image-keyboard-response","203","1265064","0.0-5.0-22.0-0.3","2","2020-1-7 22:46:45","PORCUPINE",NA,NA,NA,NA,NA,"incongruent","right","TRUE",NA,NA,NA,NA,NA,NA
"17156","sort_trial",NA,"free-sort","204","1282739","0.0-5.0-23.0","2","2020-1-7 22:46:45","PORCUPINE",NA,NA,NA,NA,NA,NA,NA,NA,"[{""cat"":31,""src"":9,""x"":80,""y"":483},{""cat"":31,""src"":2,""x"":18,""y"":319},{""cat"":31,""src"":12,""x"":75,""y"":130},{""cat"":9,""src"":0,""x"":35,""y"":420},{""cat"":9,""src"":13,""x"":32,""y"":381},{""cat"":9,""src"":18,""x"":31,""y"":187},{""cat"":19,""src"":19,""x"":11,""y"":70},{""cat"":19,""src"":8,""x"":73,""y"":266},{""cat"":19,""src"":18,""x"":9,""y"":17}]","[{""cat"":""19"",""src"":""8"",""x"":0,""y"":0},{""cat"":""31"",""src"":""9"",""x"":0,""y"":0},{""cat"":""9"",""src"":""13"",""x"":0,""y"":0},{""cat"":""31"",""src"":""2"",""x"":0,""y"":0},{""cat"":""9"",""src"":""0"",""x"":0,""y"":0},{""cat"":""9"",""src"":""18"",""x"":0,""y"":0},{""cat"":""31"",""src"":""12"",""x"":0,""y"":0},{""cat"":""19"",""src"":""19"",""x"":0,""y"":0},{""cat"":""19"",""src"":""18"",""x"":0,""y"":0}]","[{""cat"":19,""src"":8,""loc"":4},{""cat"":31,""src"":9,""loc"":5},{""cat"":9,""src"":13,""loc"":3},{""cat"":31,""src"":2,""loc"":6},{""cat"":9,""src"":0,""loc"":8},{""cat"":9,""src"":18,""loc"":1},{""cat"":31,""src"":12,""loc"":7},{""cat"":19,""src"":19,""loc"":0},{""cat"":19,""src"":18,""loc"":2}]","4","19,9,19,9,19,31,31,31,9,19,18,18,13,8,9,2,12,0,0,1,2,3,4,5,6,7,8,7,5,8,2,0,1,3,6,4",NA
"3864","sort_feedback","32","html-keyboard-response","205","1286604","0.0-5.0-24.0","2","2020-1-7 22:46:45","PORCUPINE",NA,NA,NA,NA,NA,NA,NA,NA,NA,NA,NA,NA,NA,NA
"19914","setup2",NA,"animation","206","1306518","0.0-5.0-25.0","2","2020-1-7 22:46:45","PORCUPINE",NA,NA,"[{""cat"":8,""src"":14,""loc"":5},{""cat"":13,""src"":2,""loc"":3},{""cat"":31,""src"":18,""loc"":4},{""cat"":13,""src"":3,""loc"":6},{""cat"":31,""src"":7,""loc"":8},{""cat"":8,""src"":8,""loc"":7},{""cat"":31,""src"":8,""loc"":2},{""cat"":8,""src"":10,""loc"":1},{""cat"":13,""src"":18,""loc"":0}]","2","1102,1101,1102,1101,1101,1101,1102,1102,1101,10001",NA,NA,NA,NA,NA,NA,NA,NA,NA
"2137","flanker_instructions","39","html-keyboard-response","207","1308656","0.0-5.0-26.0","2","2020-1-7 22:46:45","PORCUPINE",NA,NA,NA,NA,NA,NA,NA,NA,NA,NA,NA,NA,NA,NA
"567","flanker_test","37","image-keyboard-response","208","1310226","0.0-5.0-27.0-0.0","2","2020-1-7 22:46:45","PORCUPINE",NA,NA,NA,NA,NA,"incongruent","left","TRUE",NA,NA,NA,NA,NA,NA
"527","flanker_test","39","image-keyboard-response","209","1311228","0.0-5.0-27.0-0.1","2","2020-1-7 22:46:45","PORCUPINE",NA,NA,NA,NA,NA,"congruent","right","TRUE",NA,NA,NA,NA,NA,NA
"465","flanker_test","37","image-keyboard-response","210","1312075","0.0-5.0-27.0-0.2","2","2020-1-7 22:46:45","PORCUPINE",NA,NA,NA,NA,NA,"congruent","left","TRUE",NA,NA,NA,NA,NA,NA
"522","flanker_test","39","image-keyboard-response","211","1313584","0.0-5.0-27.0-0.3","2","2020-1-7 22:46:45","PORCUPINE",NA,NA,NA,NA,NA,"incongruent","right","TRUE",NA,NA,NA,NA,NA,NA
"17802","sort_trial",NA,"free-sort","212","1332304","0.0-5.0-28.0","2","2020-1-7 22:46:45","PORCUPINE",NA,NA,NA,NA,NA,NA,NA,NA,"[{""cat"":8,""src"":14,""x"":58,""y"":301},{""cat"":13,""src"":2,""x"":42,""y"":16},{""cat"":31,""src"":18,""x"":23,""y"":192},{""cat"":13,""src"":3,""x"":54,""y"":502},{""cat"":31,""src"":7,""x"":74,""y"":262},{""cat"":8,""src"":8,""x"":69,""y"":445},{""cat"":31,""src"":8,""x"":63,""y"":379},{""cat"":8,""src"":10,""x"":27,""y"":133},{""cat"":13,""src"":18,""x"":73,""y"":87}]","[{""cat"":""8"",""src"":""14"",""x"":0,""y"":0},{""cat"":""13"",""src"":""2"",""x"":736,""y"":253},{""cat"":""13"",""src"":""2"",""x"":0,""y"":0},{""cat"":""31"",""src"":""18"",""x"":0,""y"":0},{""cat"":""8"",""src"":""10"",""x"":0,""y"":0},{""cat"":""13"",""src"":""18"",""x"":0,""y"":0},{""cat"":""31"",""src"":""7"",""x"":0,""y"":0},{""cat"":""31"",""src"":""8"",""x"":0,""y"":0},{""cat"":""8"",""src"":""8"",""x"":0,""y"":0},{""cat"":""13"",""src"":""3"",""x"":0,""y"":0}]","[{""cat"":8,""src"":14,""loc"":5},{""cat"":13,""src"":2,""loc"":3},{""cat"":31,""src"":18,""loc"":4},{""cat"":8,""src"":10,""loc"":0},{""cat"":13,""src"":18,""loc"":1},{""cat"":31,""src"":7,""loc"":2},{""cat"":31,""src"":8,""loc"":7},{""cat"":8,""src"":8,""loc"":6},{""cat"":13,""src"":3,""loc"":8}]","3","8,13,31,13,31,8,8,31,13,10,18,7,2,18,14,8,8,3,0,1,2,3,4,5,6,7,8,3,4,5,1,2,0,7,6,8",NA
"2087","sort_feedback","32","html-keyboard-response","213","1334392","0.0-5.0-29.0","2","2020-1-7 22:46:45","PORCUPINE",NA,NA,NA,NA,NA,NA,NA,NA,NA,NA,NA,NA,NA,NA
"19916","setup5",NA,"animation","214","1354309","0.0-5.0-30.0","2","2020-1-7 22:46:45","PORCUPINE",NA,NA,"[{""cat"":3,""src"":18,""loc"":7},{""cat"":0,""src"":5,""loc"":5},{""cat"":19,""src"":12,""loc"":1},{""cat"":3,""src"":9,""loc"":3},{""cat"":0,""src"":8,""loc"":0},{""cat"":19,""src"":14,""loc"":6},{""cat"":3,""src"":10,""loc"":2},{""cat"":19,""src"":11,""loc"":4},{""cat"":0,""src"":17,""loc"":8}]","5","1102,1102,1101,1102,1102,1102,1101,1101,1102,10001",NA,NA,NA,NA,NA,NA,NA,NA,NA
"1004","flanker_instructions","39","html-keyboard-response","215","1355314","0.0-5.0-31.0","2","2020-1-7 22:46:45","PORCUPINE",NA,NA,NA,NA,NA,NA,NA,NA,NA,NA,NA,NA,NA,NA
"494","flanker_test","37","image-keyboard-response","216","1356809","0.0-5.0-32.0-0.0","2","2020-1-7 22:46:45","PORCUPINE",NA,NA,NA,NA,NA,"congruent","left","TRUE",NA,NA,NA,NA,NA,NA
"538","flanker_test","37","image-keyboard-response","217","1358361","0.0-5.0-32.0-0.1","2","2020-1-7 22:46:45","PORCUPINE",NA,NA,NA,NA,NA,"incongruent","left","TRUE",NA,NA,NA,NA,NA,NA
"597","flanker_test","37","image-keyboard-response","218","1360059","0.0-5.0-32.0-0.2","2","2020-1-7 22:46:45","PORCUPINE",NA,NA,NA,NA,NA,"congruent","right","FALSE",NA,NA,NA,NA,NA,NA
"716","flanker_test","37","image-keyboard-response","219","1361591","0.0-5.0-32.0-0.3","2","2020-1-7 22:46:45","PORCUPINE",NA,NA,NA,NA,NA,"incongruent","right","FALSE",NA,NA,NA,NA,NA,NA
"11726","sort_trial",NA,"free-sort","220","1374164","0.0-5.0-33.0","2","2020-1-7 22:46:45","PORCUPINE",NA,NA,NA,NA,NA,NA,NA,NA,"[{""cat"":3,""src"":18,""x"":74,""y"":268},{""cat"":0,""src"":5,""x"":4,""y"":302},{""cat"":19,""src"":12,""x"":1,""y"":207},{""cat"":3,""src"":9,""x"":74,""y"":432},{""cat"":0,""src"":8,""x"":35,""y"":0},{""cat"":19,""src"":14,""x"":66,""y"":388},{""cat"":3,""src"":10,""x"":3,""y"":84},{""cat"":19,""src"":11,""x"":18,""y"":130},{""cat"":0,""src"":17,""x"":1,""y"":502}]","[{""cat"":""3"",""src"":""10"",""x"":0,""y"":0},{""cat"":""0"",""src"":""8"",""x"":0,""y"":0},{""cat"":""19"",""src"":""12"",""x"":0,""y"":0},{""cat"":""3"",""src"":""18"",""x"":0,""y"":0},{""cat"":""19"",""src"":""14"",""x"":0,""y"":0},{""cat"":""0"",""src"":""17"",""x"":0,""y"":0},{""cat"":""0"",""src"":""5"",""x"":0,""y"":0},{""cat"":""3"",""src"":""9"",""x"":0,""y"":0},{""cat"":""19"",""src"":""11"",""x"":0,""y"":0}]","[{""cat"":3,""src"":10,""loc"":2},{""cat"":0,""src"":8,""loc"":0},{""cat"":19,""src"":12,""loc"":1},{""cat"":3,""src"":18,""loc"":6},{""cat"":19,""src"":14,""loc"":7},{""cat"":0,""src"":17,""loc"":8},{""cat"":0,""src"":5,""loc"":5},{""cat"":3,""src"":9,""loc"":3},{""cat"":19,""src"":11,""loc"":4}]","7","0,19,3,3,19,0,3,19,0,8,12,10,9,11,5,18,14,17,0,1,2,3,4,5,6,7,8,1,2,0,7,8,6,3,4,5",NA
"1497","sort_feedback","32","html-keyboard-response","221","1375661","0.0-5.0-34.0","2","2020-1-7 22:46:45","PORCUPINE",NA,NA,NA,NA,NA,NA,NA,NA,NA,NA,NA,NA,NA,NA
"19913","setup3",NA,"animation","222","1395575","0.0-5.0-35.0","2","2020-1-7 22:46:45","PORCUPINE",NA,NA,"[{""cat"":21,""src"":15,""loc"":1},{""cat"":16,""src"":5,""loc"":6},{""cat"":25,""src"":9,""loc"":4},{""cat"":25,""src"":14,""loc"":5},{""cat"":16,""src"":3,""loc"":7},{""cat"":21,""src"":3,""loc"":0},{""cat"":16,""src"":6,""loc"":8},{""cat"":25,""src"":6,""loc"":3},{""cat"":21,""src"":4,""loc"":2}]","3","1100,1102,1101,1102,1101,1101,1101,1102,1101,10002",NA,NA,NA,NA,NA,NA,NA,NA,NA
"851","flanker_instructions","39","html-keyboard-response","223","1396427","0.0-5.0-36.0","2","2020-1-7 22:46:45","PORCUPINE",NA,NA,NA,NA,NA,NA,NA,NA,NA,NA,NA,NA,NA,NA
"491","flanker_test","39","image-keyboard-response","224","1397920","0.0-5.0-37.0-0.0","2","2020-1-7 22:46:45","PORCUPINE",NA,NA,NA,NA,NA,"congruent","right","TRUE",NA,NA,NA,NA,NA,NA
"532","flanker_test","37","image-keyboard-response","225","1399312","0.0-5.0-37.0-0.1","2","2020-1-7 22:46:45","PORCUPINE",NA,NA,NA,NA,NA,"congruent","left","TRUE",NA,NA,NA,NA,NA,NA
"523","flanker_test","37","image-keyboard-response","226","1400279","0.0-5.0-37.0-0.2","2","2020-1-7 22:46:45","PORCUPINE",NA,NA,NA,NA,NA,"incongruent","left","TRUE",NA,NA,NA,NA,NA,NA
"540","flanker_test","39","image-keyboard-response","227","1401211","0.0-5.0-37.0-0.3","2","2020-1-7 22:46:45","PORCUPINE",NA,NA,NA,NA,NA,"incongruent","right","TRUE",NA,NA,NA,NA,NA,NA
"17048","sort_trial",NA,"free-sort","228","1419411","0.0-5.0-38.0","2","2020-1-7 22:46:45","PORCUPINE",NA,NA,NA,NA,NA,NA,NA,NA,"[{""cat"":21,""src"":15,""x"":9,""y"":489},{""cat"":16,""src"":5,""x"":7,""y"":427},{""cat"":25,""src"":9,""x"":50,""y"":192},{""cat"":25,""src"":14,""x"":46,""y"":253},{""cat"":16,""src"":3,""x"":39,""y"":81},{""cat"":21,""src"":3,""x"":52,""y"":313},{""cat"":16,""src"":6,""x"":75,""y"":363},{""cat"":25,""src"":6,""x"":54,""y"":11},{""cat"":21,""src"":4,""x"":72,""y"":128}]","[{""cat"":""16"",""src"":""5"",""x"":0,""y"":0},{""cat"":""16"",""src"":""6"",""x"":0,""y"":0},{""cat"":""16"",""src"":""3"",""x"":0,""y"":0},{""cat"":""21"",""src"":""15"",""x"":0,""y"":0},{""cat"":""25"",""src"":""14"",""x"":0,""y"":0},{""cat"":""21"",""src"":""3"",""x"":0,""y"":0},{""cat"":""21"",""src"":""4"",""x"":0,""y"":0},{""cat"":""25"",""src"":""9"",""x"":0,""y"":0},{""cat"":""25"",""src"":""6"",""x"":0,""y"":0}]","[{""cat"":16,""src"":5,""loc"":6},{""cat"":16,""src"":6,""loc"":8},{""cat"":16,""src"":3,""loc"":7},{""cat"":21,""src"":15,""loc"":5},{""cat"":25,""src"":14,""loc"":3},{""cat"":21,""src"":3,""loc"":0},{""cat"":21,""src"":4,""loc"":1},{""cat"":25,""src"":9,""loc"":4},{""cat"":25,""src"":6,""loc"":2}]","5","21,21,25,25,25,21,16,16,16,3,4,6,14,9,15,5,3,6,0,1,2,3,4,5,6,7,8,5,6,8,4,7,3,0,2,1",NA
"1212","sort_feedback","32","html-keyboard-response","229","1420624","0.0-5.0-39.0","2","2020-1-7 22:46:45","PORCUPINE",NA,NA,NA,NA,NA,NA,NA,NA,NA,NA,NA,NA,NA,NA
"19917","setup4",NA,"animation","230","1440541","0.0-5.0-40.0","2","2020-1-7 22:46:45","PORCUPINE",NA,NA,"[{""cat"":25,""src"":17,""loc"":4},{""cat"":25,""src"":1,""loc"":2},{""cat"":25,""src"":13,""loc"":8},{""cat"":7,""src"":3,""loc"":3},{""cat"":7,""src"":5,""loc"":0},{""cat"":7,""src"":14,""loc"":6},{""cat"":19,""src"":4,""loc"":5},{""cat"":19,""src"":8,""loc"":7},{""cat"":19,""src"":7,""loc"":1}]","4","1103,1101,1102,1102,1101,1103,1101,1101,1102,10001",NA,NA,NA,NA,NA,NA,NA,NA,NA
"930","flanker_instructions","39","html-keyboard-response","231","1441473","0.0-5.0-41.0","2","2020-1-7 22:46:45","PORCUPINE",NA,NA,NA,NA,NA,NA,NA,NA,NA,NA,NA,NA,NA,NA
"462","flanker_test","39","image-keyboard-response","232","1442938","0.0-5.0-42.0-0.0","2","2020-1-7 22:46:45","PORCUPINE",NA,NA,NA,NA,NA,"congruent","right","TRUE",NA,NA,NA,NA,NA,NA
"550","flanker_test","39","image-keyboard-response","233","1444113","0.0-5.0-42.0-0.1","2","2020-1-7 22:46:45","PORCUPINE",NA,NA,NA,NA,NA,"incongruent","right","TRUE",NA,NA,NA,NA,NA,NA
"639","flanker_test","37","image-keyboard-response","234","1445284","0.0-5.0-42.0-0.2","2","2020-1-7 22:46:45","PORCUPINE",NA,NA,NA,NA,NA,"incongruent","left","TRUE",NA,NA,NA,NA,NA,NA
"414","flanker_test","37","image-keyboard-response","235","1446463","0.0-5.0-42.0-0.3","2","2020-1-7 22:46:45","PORCUPINE",NA,NA,NA,NA,NA,"congruent","left","TRUE",NA,NA,NA,NA,NA,NA
"16535","sort_trial",NA,"free-sort","236","1463648","0.0-5.0-43.0","2","2020-1-7 22:46:45","PORCUPINE",NA,NA,NA,NA,NA,NA,NA,NA,"[{""cat"":25,""src"":17,""x"":79,""y"":437},{""cat"":25,""src"":1,""x"":19,""y"":147},{""cat"":25,""src"":13,""x"":7,""y"":479},{""cat"":7,""src"":3,""x"":0,""y"":299},{""cat"":7,""src"":5,""x"":64,""y"":255},{""cat"":7,""src"":14,""x"":70,""y"":82},{""cat"":19,""src"":4,""x"":29,""y"":377},{""cat"":19,""src"":8,""x"":71,""y"":7},{""cat"":19,""src"":7,""x"":81,""y"":201}]","[{""cat"":""19"",""src"":""4"",""x"":0,""y"":0},{""cat"":""7"",""src"":""3"",""x"":0,""y"":0},{""cat"":""25"",""src"":""17"",""x"":0,""y"":0},{""cat"":""19"",""src"":""8"",""x"":0,""y"":0},{""cat"":""7"",""src"":""14"",""x"":390,""y"":171},{""cat"":""25"",""src"":""1"",""x"":0,""y"":0},{""cat"":""7"",""src"":""14"",""x"":0,""y"":0},{""cat"":""7"",""src"":""5"",""x"":315,""y"":400},{""cat"":""25"",""src"":""13"",""x"":0,""y"":0},{""cat"":""7"",""src"":""5"",""x"":0,""y"":0},{""cat"":""19"",""src"":""7"",""x"":0,""y"":0}]","[{""cat"":19,""src"":4,""loc"":5},{""cat"":7,""src"":3,""loc"":3},{""cat"":25,""src"":17,""loc"":4},{""cat"":19,""src"":8,""loc"":0},{""cat"":25,""src"":1,""loc"":2},{""cat"":7,""src"":14,""loc"":1},{""cat"":25,""src"":13,""loc"":7},{""cat"":7,""src"":5,""loc"":6},{""cat"":19,""src"":7,""loc"":8}]","4","19,7,25,7,25,19,7,25,19,8,14,1,3,17,4,5,13,7,0,1,2,3,4,5,6,7,8,3,5,4,1,2,0,7,6,8",NA
"1516","sort_feedback","32","html-keyboard-response","237","1465166","0.0-5.0-44.0","2","2020-1-7 22:46:45","PORCUPINE",NA,NA,NA,NA,NA,NA,NA,NA,NA,NA,NA,NA,NA,NA
"19914","setup1",NA,"animation","238","1485080","0.0-5.0-45.0","2","2020-1-7 22:46:45","PORCUPINE",NA,NA,"[{""cat"":23,""src"":19,""loc"":3},{""cat"":23,""src"":18,""loc"":4},{""cat"":23,""src"":13,""loc"":5},{""cat"":7,""src"":12,""loc"":2},{""cat"":7,""src"":16,""loc"":1},{""cat"":7,""src"":3,""loc"":0},{""cat"":24,""src"":8,""loc"":6},{""cat"":24,""src"":14,""loc"":8},{""cat"":24,""src"":16,""loc"":7}]","1","1101,1102,1101,1101,1101,1101,1102,1102,1102,10001",NA,NA,NA,NA,NA,NA,NA,NA,NA
"883","flanker_instructions","39","html-keyboard-response","239","1485963","0.0-5.0-46.0","2","2020-1-7 22:46:45","PORCUPINE",NA,NA,NA,NA,NA,NA,NA,NA,NA,NA,NA,NA,NA,NA
"626","flanker_test","37","image-keyboard-response","240","1487591","0.0-5.0-47.0-0.0","2","2020-1-7 22:46:45","PORCUPINE",NA,NA,NA,NA,NA,"congruent","left","TRUE",NA,NA,NA,NA,NA,NA
"553","flanker_test","39","image-keyboard-response","241","1488973","0.0-5.0-47.0-0.1","2","2020-1-7 22:46:45","PORCUPINE",NA,NA,NA,NA,NA,"incongruent","right","TRUE",NA,NA,NA,NA,NA,NA
"696","flanker_test","37","image-keyboard-response","242","1490020","0.0-5.0-47.0-0.2","2","2020-1-7 22:46:45","PORCUPINE",NA,NA,NA,NA,NA,"incongruent","left","TRUE",NA,NA,NA,NA,NA,NA
"444","flanker_test","39","image-keyboard-response","243","1491095","0.0-5.0-47.0-0.3","2","2020-1-7 22:46:45","PORCUPINE",NA,NA,NA,NA,NA,"congruent","right","TRUE",NA,NA,NA,NA,NA,NA
"15960","sort_trial",NA,"free-sort","244","1507961","0.0-5.0-48.0","2","2020-1-7 22:46:45","PORCUPINE",NA,NA,NA,NA,NA,NA,NA,NA,"[{""cat"":23,""src"":19,""x"":71,""y"":265},{""cat"":23,""src"":18,""x"":28,""y"":23},{""cat"":23,""src"":13,""x"":4,""y"":421},{""cat"":7,""src"":12,""x"":56,""y"":377},{""cat"":7,""src"":16,""x"":39,""y"":66},{""cat"":7,""src"":3,""x"":40,""y"":134},{""cat"":24,""src"":8,""x"":57,""y"":197},{""cat"":24,""src"":14,""x"":39,""y"":489},{""cat"":24,""src"":16,""x"":11,""y"":307}]","[{""cat"":""23"",""src"":""13"",""x"":0,""y"":0},{""cat"":""23"",""src"":""19"",""x"":0,""y"":0},{""cat"":""23"",""src"":""18"",""x"":0,""y"":0},{""cat"":""24"",""src"":""14"",""x"":0,""y"":0},{""cat"":""7"",""src"":""12"",""x"":0,""y"":0},{""cat"":""24"",""src"":""16"",""x"":0,""y"":0},{""cat"":""24"",""src"":""8"",""x"":0,""y"":0},{""cat"":""7"",""src"":""3"",""x"":0,""y"":0},{""cat"":""7"",""src"":""16"",""x"":0,""y"":0}]","[{""cat"":23,""src"":13,""loc"":5},{""cat"":23,""src"":19,""loc"":3},{""cat"":23,""src"":18,""loc"":4},{""cat"":24,""src"":14,""loc"":7},{""cat"":7,""src"":12,""loc"":6},{""cat"":24,""src"":16,""loc"":8},{""cat"":24,""src"":8,""loc"":0},{""cat"":7,""src"":3,""loc"":2},{""cat"":7,""src"":16,""loc"":1}]","4","24,7,7,23,23,23,7,24,24,8,16,3,19,18,13,12,14,16,0,1,2,3,4,5,6,7,8,6,8,7,1,2,0,4,3,5",NA
"1935","sort_feedback","32","html-keyboard-response","245","1509897","0.0-5.0-49.0","2","2020-1-7 22:46:45","PORCUPINE",NA,NA,NA,NA,NA,NA,NA,NA,NA,NA,NA,NA,NA,NA
"1486","demographics",NA,"html-button-response","246","1511383","0.0-6.0-0.0","2","2020-1-7 22:46:45","PORCUPINE","0",NA,NA,NA,NA,NA,NA,NA,NA,NA,NA,NA,NA,NA
"6210","workerID",NA,"survey-text","247","1517595","0.0-6.0-1.0","2","2020-1-7 22:46:45","PORCUPINE",NA,NA,NA,NA,NA,NA,NA,NA,NA,NA,NA,NA,NA,"{""Q0"":""A3EQR9C0L23O6E""}"
"6562","attn_check",NA,"survey-multi-choice","248","1524160","0.0-6.0-2.0","2","2020-1-7 22:46:45","PORCUPINE",NA,NA,NA,NA,NA,NA,NA,NA,NA,NA,NA,NA,NA,"{""Q0"":""ZEBRA""}"
"3399","age",NA,"survey-text","249","1527561","0.0-6.0-3.0","2","2020-1-7 22:46:45","PORCUPINE",NA,NA,NA,NA,NA,NA,NA,NA,NA,NA,NA,NA,NA,"{""Q0"":""40""}"
"1976","gender",NA,"survey-multi-choice","250","1529538","0.0-6.0-4.0","2","2020-1-7 22:46:45","PORCUPINE",NA,NA,NA,NA,NA,NA,NA,NA,NA,NA,NA,NA,NA,"{""Q0"":""Female""}"
"1715","ethnic",NA,"survey-multi-choice","251","1531255","0.0-6.0-5.0","2","2020-1-7 22:46:45","PORCUPINE",NA,NA,NA,NA,NA,NA,NA,NA,NA,NA,NA,NA,NA,"{""Q0"":""Not Hispanic or Latino""}"
"3666","race",NA,"survey-multi-select","252","1534924","0.0-6.0-6.0","2","2020-1-7 22:46:45","PORCUPINE",NA,NA,NA,NA,NA,NA,NA,NA,NA,NA,NA,NA,NA,"{""Q0"":[""Other""]}"
"2761","english",NA,"survey-multi-choice","253","1537687","0.0-6.0-7.0","2","2020-1-7 22:46:45","PORCUPINE",NA,NA,NA,NA,NA,NA,NA,NA,NA,NA,NA,NA,NA,"{""Q0"":""Yes""}"
"2728","understand",NA,"survey-multi-choice","254","1540417","0.0-6.0-8.0","2","2020-1-7 22:46:45","PORCUPINE",NA,NA,NA,NA,NA,NA,NA,NA,NA,NA,NA,NA,NA,"{""Q0"":""No""}"
"11191","strategies",NA,"survey-text","255","1551610","0.0-6.0-9.0","2","2020-1-7 22:46:45","PORCUPINE",NA,NA,NA,NA,NA,NA,NA,NA,NA,NA,NA,NA,NA,"{""Q0"":""I just tried to remember 3 words""}"
"2724","comments",NA,"survey-text","256","1554334","0.0-6.0-10.0","2","2020-1-7 22:46:45","PORCUPINE",NA,NA,NA,NA,NA,NA,NA,NA,NA,NA,NA,NA,NA,"{""Q0"":""""}"
"993","study_end",NA,"html-button-response","257","1555328","0.0-7.0","2","2020-1-7 22:46:45","PORCUPINE","0",NA,NA,NA,NA,NA,NA,NA,NA,NA,NA,NA,NA,NA
