{"_id":{"$oid":"5e136afa1bd3f20004de2a59"},"data":[{"rt":1476,"stimulus":"welcome","key_press":32,"trial_type":"html-keyboard-response","trial_index":0,"time_elapsed":1484,"internal_node_id":"0.0-0.0","session":1,"startTime":"2020-1-6 11:40:40","attn_word":["MONKEY"]},{"rt":2770,"stimulus":"consent","button_pressed":"0","trial_type":"html-button-response","trial_index":1,"time_elapsed":4260,"internal_node_id":"0.0-1.0","session":1,"startTime":"2020-1-6 11:40:40","attn_word":["MONKEY"]},{"view_history":"[{\"page_index\":0,\"viewing_time\":3802},{\"page_index\":1,\"viewing_time\":1319},{\"page_index\":2,\"viewing_time\":2737},{\"page_index\":3,\"viewing_time\":687},{\"page_index\":4,\"viewing_time\":841},{\"page_index\":5,\"viewing_time\":711},{\"page_index\":6,\"viewing_time\":1696}]","rt":11794,"trial_type":"instructions","trial_index":2,"time_elapsed":16056,"internal_node_id":"0.0-2.0","session":1,"startTime":"2020-1-6 11:40:40","attn_word":["MONKEY"],"stimulus":"instructions"},{"animation_sequence":"[{\"cat\":18,\"src\":2,\"loc\":0},{\"cat\":13,\"src\":17,\"loc\":4},{\"cat\":28,\"src\":13,\"loc\":6},{\"cat\":18,\"src\":13,\"loc\":8},{\"cat\":28,\"src\":14,\"loc\":5},{\"cat\":13,\"src\":8,\"loc\":1},{\"cat\":13,\"src\":3,\"loc\":7},{\"cat\":28,\"src\":17,\"loc\":2},{\"cat\":18,\"src\":0,\"loc\":3}]","condition":5,"rt":19936,"time_sequence":[1110,1102,1104,1102,1103,1104,1101,1103,1105,10002],"trial_type":"animation","trial_index":3,"time_elapsed":35994,"internal_node_id":"0.0-3.0-0.0","session":1,"startTime":"2020-1-6 11:40:40","attn_word":["MONKEY"],"stimulus":"setup5"},{"rt":4634,"stimulus":"flanker_instructions","key_press":32,"trial_type":"html-keyboard-response","trial_index":4,"time_elapsed":40630,"internal_node_id":"0.0-3.0-1.0","session":1,"startTime":"2020-1-6 11:40:40","attn_word":["MONKEY"]},{"rt":null,"stimulus":"flanker_test","key_press":null,"stim_type":"congruent","direction":"left","trial_type":"image-keyboard-response","trial_index":5,"time_elapsed":42539,"internal_node_id":"0.0-3.0-2.0-0.0","session":1,"startTime":"2020-1-6 11:40:40","attn_word":["MONKEY"],"correct":false},{"rt":null,"stimulus":"flanker_test","key_press":null,"stim_type":"congruent","direction":"right","trial_type":"image-keyboard-response","trial_index":6,"time_elapsed":44128,"internal_node_id":"0.0-3.0-2.0-0.1","session":1,"startTime":"2020-1-6 11:40:40","attn_word":["MONKEY"],"correct":false},{"rt":null,"stimulus":"flanker_test","key_press":null,"stim_type":"incongruent","direction":"right","trial_type":"image-keyboard-response","trial_index":7,"time_elapsed":45376,"internal_node_id":"0.0-3.0-2.0-0.2","session":1,"startTime":"2020-1-6 11:40:40","attn_word":["MONKEY"],"correct":false},{"rt":null,"stimulus":"flanker_test","key_press":null,"stim_type":"incongruent","direction":"left","trial_type":"image-keyboard-response","trial_index":8,"time_elapsed":47467,"internal_node_id":"0.0-3.0-2.0-0.3","session":1,"startTime":"2020-1-6 11:40:40","attn_word":["MONKEY"],"correct":false},{"init_locations":"[{\"cat\":18,\"src\":2,\"x\":65,\"y\":23},{\"cat\":13,\"src\":17,\"x\":79,\"y\":484},{\"cat\":28,\"src\":13,\"x\":21,\"y\":69},{\"cat\":18,\"src\":13,\"x\":62,\"y\":328},{\"cat\":28,\"src\":14,\"x\":74,\"y\":200},{\"cat\":13,\"src\":8,\"x\":71,\"y\":372},{\"cat\":13,\"src\":3,\"x\":16,\"y\":138},{\"cat\":28,\"src\":17,\"x\":33,\"y\":263},{\"cat\":18,\"src\":0,\"x\":16,\"y\":431}]","moves":"[{\"cat\":\"13\",\"src\":\"3\",\"x\":248,\"y\":398},{\"cat\":\"13\",\"src\":\"3\",\"x\":0,\"y\":0},{\"cat\":\"28\",\"src\":\"14\",\"x\":0,\"y\":0},{\"cat\":\"18\",\"src\":\"13\",\"x\":0,\"y\":0},{\"cat\":\"28\",\"src\":\"13\",\"x\":0,\"y\":0},{\"cat\":\"18\",\"src\":\"2\",\"x\":0,\"y\":0},{\"cat\":\"28\",\"src\":\"17\",\"x\":0,\"y\":0},{\"cat\":\"13\",\"src\":\"8\",\"x\":0,\"y\":0},{\"cat\":\"13\",\"src\":\"17\",\"x\":0,\"y\":0},{\"cat\":\"18\",\"src\":\"0\",\"x\":0,\"y\":0}]","final_locations":"[{\"cat\":13,\"src\":3,\"loc\":7},{\"cat\":28,\"src\":14,\"loc\":5},{\"cat\":18,\"src\":13,\"loc\":8},{\"cat\":28,\"src\":13,\"loc\":6},{\"cat\":18,\"src\":2,\"loc\":0},{\"cat\":28,\"src\":17,\"loc\":2},{\"cat\":13,\"src\":8,\"loc\":1},{\"cat\":13,\"src\":17,\"loc\":4},{\"cat\":18,\"src\":0,\"loc\":3}]","rt":28223,"sort_correct":9,"finalLocations":[[18,2,0,4],[13,8,1,6],[28,17,2,5],[18,0,3,8],[13,17,4,7],[28,14,5,1],[28,13,6,3],[13,3,7,0],[18,13,8,2]],"trial_type":"free-sort","trial_index":9,"time_elapsed":76087,"internal_node_id":"0.0-3.0-3.0","session":1,"startTime":"2020-1-6 11:40:40","attn_word":["MONKEY"],"stimulus":"sort_trial"},{"rt":1604,"stimulus":"sort_feedback","key_press":32,"trial_type":"html-keyboard-response","trial_index":10,"time_elapsed":77694,"internal_node_id":"0.0-3.0-4.0","session":1,"startTime":"2020-1-6 11:40:40","attn_word":["MONKEY"]},{"animation_sequence":"[{\"cat\":30,\"src\":13,\"loc\":1},{\"cat\":26,\"src\":15,\"loc\":8},{\"cat\":31,\"src\":9,\"loc\":3},{\"cat\":31,\"src\":13,\"loc\":2},{\"cat\":30,\"src\":3,\"loc\":7},{\"cat\":26,\"src\":14,\"loc\":5},{\"cat\":30,\"src\":12,\"loc\":4},{\"cat\":26,\"src\":5,\"loc\":0},{\"cat\":31,\"src\":8,\"loc\":6}]","condition":5,"rt":19931,"time_sequence":[1104,1103,1103,1103,1102,1108,1102,1102,1102,10002],"trial_type":"animation","trial_index":11,"time_elapsed":97627,"internal_node_id":"0.0-3.0-5.0","session":1,"startTime":"2020-1-6 11:40:40","attn_word":["MONKEY"],"stimulus":"setup5"},{"rt":4856,"stimulus":"flanker_instructions","key_press":78,"trial_type":"html-keyboard-response","trial_index":12,"time_elapsed":102488,"internal_node_id":"0.0-3.0-6.0","session":1,"startTime":"2020-1-6 11:40:40","attn_word":["MONKEY"]},{"rt":null,"stimulus":"flanker_test","key_press":null,"stim_type":"congruent","direction":"right","trial_type":"image-keyboard-response","trial_index":13,"time_elapsed":104395,"internal_node_id":"0.0-3.0-7.0-0.0","session":1,"startTime":"2020-1-6 11:40:40","attn_word":["MONKEY"],"correct":false},{"rt":null,"stimulus":"flanker_test","key_press":null,"stim_type":"incongruent","direction":"left","trial_type":"image-keyboard-response","trial_index":14,"time_elapsed":105789,"internal_node_id":"0.0-3.0-7.0-0.1","session":1,"startTime":"2020-1-6 11:40:40","attn_word":["MONKEY"],"correct":false},{"rt":null,"stimulus":"flanker_test","key_press":null,"stim_type":"congruent","direction":"left","trial_type":"image-keyboard-response","trial_index":15,"time_elapsed":107853,"internal_node_id":"0.0-3.0-7.0-0.2","session":1,"startTime":"2020-1-6 11:40:40","attn_word":["MONKEY"],"correct":false},{"rt":null,"stimulus":"flanker_test","key_press":null,"stim_type":"incongruent","direction":"right","trial_type":"image-keyboard-response","trial_index":16,"time_elapsed":109088,"internal_node_id":"0.0-3.0-7.0-0.3","session":1,"startTime":"2020-1-6 11:40:40","attn_word":["MONKEY"],"correct":false},{"init_locations":"[{\"cat\":30,\"src\":13,\"x\":50,\"y\":80},{\"cat\":26,\"src\":15,\"x\":60,\"y\":200},{\"cat\":31,\"src\":9,\"x\":5,\"y\":420},{\"cat\":31,\"src\":13,\"x\":1,\"y\":303},{\"cat\":30,\"src\":3,\"x\":54,\"y\":120},{\"cat\":26,\"src\":14,\"x\":36,\"y\":255},{\"cat\":30,\"src\":12,\"x\":19,\"y\":378},{\"cat\":26,\"src\":5,\"x\":8,\"y\":11},{\"cat\":31,\"src\":8,\"x\":59,\"y\":479}]","moves":"[{\"cat\":\"26\",\"src\":\"5\",\"x\":0,\"y\":0},{\"cat\":\"30\",\"src\":\"13\",\"x\":0,\"y\":0},{\"cat\":\"31\",\"src\":\"13\",\"x\":448,\"y\":261},{\"cat\":\"31\",\"src\":\"13\",\"x\":0,\"y\":0},{\"cat\":\"30\",\"src\":\"3\",\"x\":0,\"y\":0},{\"cat\":\"26\",\"src\":\"15\",\"x\":0,\"y\":0},{\"cat\":\"26\",\"src\":\"14\",\"x\":0,\"y\":0},{\"cat\":\"30\",\"src\":\"12\",\"x\":0,\"y\":0},{\"cat\":\"31\",\"src\":\"9\",\"x\":0,\"y\":0},{\"cat\":\"31\",\"src\":\"8\",\"x\":0,\"y\":0}]","final_locations":"[{\"cat\":26,\"src\":5,\"loc\":0},{\"cat\":30,\"src\":13,\"loc\":1},{\"cat\":31,\"src\":13,\"loc\":6},{\"cat\":30,\"src\":3,\"loc\":7},{\"cat\":26,\"src\":15,\"loc\":8},{\"cat\":26,\"src\":14,\"loc\":5},{\"cat\":30,\"src\":12,\"loc\":4},{\"cat\":31,\"src\":9,\"loc\":3},{\"cat\":31,\"src\":8,\"loc\":2}]","rt":42198,"sort_correct":7,"finalLocations":[[26,5,0,0],[30,13,1,1],[31,8,2,8],[31,9,3,7],[30,12,4,6],[26,14,5,5],[31,13,6,2],[30,3,7,3],[26,15,8,4]],"trial_type":"free-sort","trial_index":17,"time_elapsed":151958,"internal_node_id":"0.0-3.0-8.0","session":1,"startTime":"2020-1-6 11:40:40","attn_word":["MONKEY"],"stimulus":"sort_trial"},{"rt":5037,"stimulus":"sort_feedback","key_press":68,"trial_type":"html-keyboard-response","trial_index":18,"time_elapsed":156998,"internal_node_id":"0.0-3.0-9.0","session":1,"startTime":"2020-1-6 11:40:40","attn_word":["MONKEY"]},{"rt":1734,"stimulus":"finalInstructions","button_pressed":"0","trial_type":"html-button-response","trial_index":19,"time_elapsed":158735,"internal_node_id":"0.0-4.0-0.0","session":1,"startTime":"2020-1-6 11:40:40","attn_word":["MONKEY"]},{"animation_sequence":"[{\"cat\":12,\"src\":9,\"loc\":8},{\"cat\":12,\"src\":14,\"loc\":6},{\"cat\":12,\"src\":7,\"loc\":7},{\"cat\":31,\"src\":6,\"loc\":3},{\"cat\":31,\"src\":8,\"loc\":4},{\"cat\":31,\"src\":19,\"loc\":5},{\"cat\":1,\"src\":12,\"loc\":1},{\"cat\":1,\"src\":1,\"loc\":2},{\"cat\":1,\"src\":18,\"loc\":0}]","condition":1,"rt":20560,"time_sequence":[1103,1102,1103,1103,1106,1109,1101,1103,1102,10628],"trial_type":"animation","trial_index":20,"time_elapsed":179296,"internal_node_id":"0.0-4.0-1.0","session":1,"startTime":"2020-1-6 11:40:40","attn_word":["MONKEY"],"stimulus":"setup1"},{"rt":1978,"stimulus":"flanker_instructions","key_press":32,"trial_type":"html-keyboard-response","trial_index":21,"time_elapsed":181277,"internal_node_id":"0.0-4.0-2.0","session":1,"startTime":"2020-1-6 11:40:40","attn_word":["MONKEY"]},{"rt":null,"stimulus":"flanker_test","key_press":null,"stim_type":"congruent","direction":"left","trial_type":"image-keyboard-response","trial_index":22,"time_elapsed":183180,"internal_node_id":"0.0-4.0-3.0-0.0","session":1,"startTime":"2020-1-6 11:40:40","attn_word":["MONKEY"],"correct":false},{"rt":null,"stimulus":"flanker_test","key_press":null,"stim_type":"incongruent","direction":"right","trial_type":"image-keyboard-response","trial_index":23,"time_elapsed":185263,"internal_node_id":"0.0-4.0-3.0-0.1","session":1,"startTime":"2020-1-6 11:40:40","attn_word":["MONKEY"],"correct":false},{"rt":null,"stimulus":"flanker_test","key_press":null,"stim_type":"incongruent","direction":"left","trial_type":"image-keyboard-response","trial_index":24,"time_elapsed":187349,"internal_node_id":"0.0-4.0-3.0-0.2","session":1,"startTime":"2020-1-6 11:40:40","attn_word":["MONKEY"],"correct":false},{"rt":null,"stimulus":"flanker_test","key_press":null,"stim_type":"congruent","direction":"right","trial_type":"image-keyboard-response","trial_index":25,"time_elapsed":188569,"internal_node_id":"0.0-4.0-3.0-0.3","session":1,"startTime":"2020-1-6 11:40:40","attn_word":["MONKEY"],"correct":false},{"init_locations":"[{\"cat\":12,\"src\":9,\"x\":41,\"y\":496},{\"cat\":12,\"src\":14,\"x\":73,\"y\":64},{\"cat\":12,\"src\":7,\"x\":35,\"y\":4},{\"cat\":31,\"src\":6,\"x\":66,\"y\":122},{\"cat\":31,\"src\":8,\"x\":30,\"y\":444},{\"cat\":31,\"src\":19,\"x\":41,\"y\":301},{\"cat\":1,\"src\":12,\"x\":20,\"y\":181},{\"cat\":1,\"src\":1,\"x\":33,\"y\":362},{\"cat\":1,\"src\":18,\"x\":69,\"y\":254}]","moves":"[{\"cat\":\"1\",\"src\":\"18\",\"x\":0,\"y\":0},{\"cat\":\"1\",\"src\":\"1\",\"x\":0,\"y\":0},{\"cat\":\"1\",\"src\":\"12\",\"x\":0,\"y\":0},{\"cat\":\"12\",\"src\":\"9\",\"x\":0,\"y\":0},{\"cat\":\"12\",\"src\":\"7\",\"x\":289,\"y\":422},{\"cat\":\"12\",\"src\":\"7\",\"x\":0,\"y\":0},{\"cat\":\"12\",\"src\":\"14\",\"x\":0,\"y\":0},{\"cat\":\"31\",\"src\":\"19\",\"x\":0,\"y\":0},{\"cat\":\"31\",\"src\":\"8\",\"x\":0,\"y\":0},{\"cat\":\"31\",\"src\":\"6\",\"x\":0,\"y\":0}]","final_locations":"[{\"cat\":1,\"src\":18,\"loc\":0},{\"cat\":1,\"src\":1,\"loc\":2},{\"cat\":1,\"src\":12,\"loc\":1},{\"cat\":12,\"src\":9,\"loc\":8},{\"cat\":12,\"src\":7,\"loc\":7},{\"cat\":12,\"src\":14,\"loc\":6},{\"cat\":31,\"src\":19,\"loc\":5},{\"cat\":31,\"src\":8,\"loc\":4},{\"cat\":31,\"src\":6,\"loc\":3}]","rt":19629,"sort_correct":9,"finalLocations":[[1,18,0,0],[1,12,1,2],[1,1,2,1],[31,6,3,8],[31,8,4,7],[31,19,5,6],[12,14,6,5],[12,7,7,4],[12,9,8,3]],"trial_type":"free-sort","trial_index":26,"time_elapsed":208599,"internal_node_id":"0.0-4.0-4.0","session":1,"startTime":"2020-1-6 11:40:40","attn_word":["MONKEY"],"stimulus":"sort_trial"},{"rt":1211,"stimulus":"sort_feedback","key_press":32,"trial_type":"html-keyboard-response","trial_index":27,"time_elapsed":209811,"internal_node_id":"0.0-4.0-5.0","session":1,"startTime":"2020-1-6 11:40:40","attn_word":["MONKEY"]},{"animation_sequence":"[{\"cat\":8,\"src\":3,\"loc\":4},{\"cat\":32,\"src\":19,\"loc\":3},{\"cat\":1,\"src\":17,\"loc\":5},{\"cat\":8,\"src\":1,\"loc\":8},{\"cat\":1,\"src\":14,\"loc\":7},{\"cat\":32,\"src\":4,\"loc\":6},{\"cat\":8,\"src\":19,\"loc\":0},{\"cat\":1,\"src\":8,\"loc\":1},{\"cat\":32,\"src\":17,\"loc\":2}]","condition":2,"rt":19938,"time_sequence":[1103,1101,1103,1101,1110,1110,1102,1101,1106,10001],"trial_type":"animation","trial_index":28,"time_elapsed":229751,"internal_node_id":"0.0-4.0-6.0","session":1,"startTime":"2020-1-6 11:40:40","attn_word":["MONKEY"],"stimulus":"setup2"},{"rt":913,"stimulus":"flanker_instructions","key_press":32,"trial_type":"html-keyboard-response","trial_index":29,"time_elapsed":230665,"internal_node_id":"0.0-4.0-7.0","session":1,"startTime":"2020-1-6 11:40:40","attn_word":["MONKEY"]},{"rt":null,"stimulus":"flanker_test","key_press":null,"stim_type":"incongruent","direction":"right","trial_type":"image-keyboard-response","trial_index":30,"time_elapsed":232569,"internal_node_id":"0.0-4.0-8.0-0.0","session":1,"startTime":"2020-1-6 11:40:40","attn_word":["MONKEY"],"correct":false},{"rt":null,"stimulus":"flanker_test","key_press":null,"stim_type":"congruent","direction":"right","trial_type":"image-keyboard-response","trial_index":31,"time_elapsed":233831,"internal_node_id":"0.0-4.0-8.0-0.1","session":1,"startTime":"2020-1-6 11:40:40","attn_word":["MONKEY"],"correct":false},{"rt":null,"stimulus":"flanker_test","key_press":null,"stim_type":"incongruent","direction":"left","trial_type":"image-keyboard-response","trial_index":32,"time_elapsed":235709,"internal_node_id":"0.0-4.0-8.0-0.2","session":1,"startTime":"2020-1-6 11:40:40","attn_word":["MONKEY"],"correct":false},{"rt":null,"stimulus":"flanker_test","key_press":null,"stim_type":"congruent","direction":"left","trial_type":"image-keyboard-response","trial_index":33,"time_elapsed":237311,"internal_node_id":"0.0-4.0-8.0-0.3","session":1,"startTime":"2020-1-6 11:40:40","attn_word":["MONKEY"],"correct":false},{"init_locations":"[{\"cat\":8,\"src\":3,\"x\":52,\"y\":18},{\"cat\":32,\"src\":19,\"x\":18,\"y\":421},{\"cat\":1,\"src\":17,\"x\":68,\"y\":245},{\"cat\":8,\"src\":1,\"x\":25,\"y\":372},{\"cat\":1,\"src\":14,\"x\":29,\"y\":205},{\"cat\":32,\"src\":4,\"x\":18,\"y\":483},{\"cat\":8,\"src\":19,\"x\":7,\"y\":305},{\"cat\":1,\"src\":8,\"x\":44,\"y\":62},{\"cat\":32,\"src\":17,\"x\":8,\"y\":149}]","moves":"[{\"cat\":\"8\",\"src\":\"19\",\"x\":0,\"y\":0},{\"cat\":\"1\",\"src\":\"14\",\"x\":0,\"y\":0},{\"cat\":\"32\",\"src\":\"17\",\"x\":0,\"y\":0},{\"cat\":\"1\",\"src\":\"17\",\"x\":0,\"y\":0},{\"cat\":\"8\",\"src\":\"3\",\"x\":0,\"y\":0},{\"cat\":\"32\",\"src\":\"19\",\"x\":0,\"y\":0},{\"cat\":\"32\",\"src\":\"4\",\"x\":0,\"y\":0},{\"cat\":\"8\",\"src\":\"1\",\"x\":0,\"y\":0},{\"cat\":\"1\",\"src\":\"8\",\"x\":0,\"y\":0}]","final_locations":"[{\"cat\":8,\"src\":19,\"loc\":0},{\"cat\":1,\"src\":14,\"loc\":1},{\"cat\":32,\"src\":17,\"loc\":2},{\"cat\":1,\"src\":17,\"loc\":5},{\"cat\":8,\"src\":3,\"loc\":4},{\"cat\":32,\"src\":19,\"loc\":3},{\"cat\":32,\"src\":4,\"loc\":6},{\"cat\":8,\"src\":1,\"loc\":7},{\"cat\":1,\"src\":8,\"loc\":8}]","rt":24890,"sort_correct":6,"finalLocations":[[8,19,0,0],[1,14,1,1],[32,17,2,2],[32,19,3,5],[8,3,4,4],[1,17,5,3],[32,4,6,6],[8,1,7,7],[1,8,8,8]],"trial_type":"free-sort","trial_index":34,"time_elapsed":262726,"internal_node_id":"0.0-4.0-9.0","session":1,"startTime":"2020-1-6 11:40:40","attn_word":["MONKEY"],"stimulus":"sort_trial"},{"rt":2204,"stimulus":"sort_feedback","key_press":32,"trial_type":"html-keyboard-response","trial_index":35,"time_elapsed":264931,"internal_node_id":"0.0-4.0-10.0","session":1,"startTime":"2020-1-6 11:40:40","attn_word":["MONKEY"]},{"animation_sequence":"[{\"cat\":27,\"src\":4,\"loc\":8},{\"cat\":11,\"src\":10,\"loc\":1},{\"cat\":23,\"src\":7,\"loc\":5},{\"cat\":23,\"src\":10,\"loc\":7},{\"cat\":27,\"src\":18,\"loc\":2},{\"cat\":11,\"src\":5,\"loc\":3},{\"cat\":27,\"src\":19,\"loc\":4},{\"cat\":11,\"src\":3,\"loc\":6},{\"cat\":23,\"src\":15,\"loc\":0}]","condition":5,"rt":19929,"time_sequence":[1113,1102,1102,1102,1102,1102,1102,1102,1101,10001],"trial_type":"animation","trial_index":36,"time_elapsed":284861,"internal_node_id":"0.0-4.0-11.0","session":1,"startTime":"2020-1-6 11:40:40","attn_word":["MONKEY"],"stimulus":"setup5"},{"rt":870,"stimulus":"flanker_instructions","key_press":32,"trial_type":"html-keyboard-response","trial_index":37,"time_elapsed":285734,"internal_node_id":"0.0-4.0-12.0","session":1,"startTime":"2020-1-6 11:40:40","attn_word":["MONKEY"]},{"rt":null,"stimulus":"flanker_test","key_press":null,"stim_type":"incongruent","direction":"left","trial_type":"image-keyboard-response","trial_index":38,"time_elapsed":287637,"internal_node_id":"0.0-4.0-13.0-0.0","session":1,"startTime":"2020-1-6 11:40:40","attn_word":["MONKEY"],"correct":false},{"rt":null,"stimulus":"flanker_test","key_press":null,"stim_type":"congruent","direction":"left","trial_type":"image-keyboard-response","trial_index":39,"time_elapsed":289569,"internal_node_id":"0.0-4.0-13.0-0.1","session":1,"startTime":"2020-1-6 11:40:40","attn_word":["MONKEY"],"correct":false},{"rt":null,"stimulus":"flanker_test","key_press":null,"stim_type":"congruent","direction":"right","trial_type":"image-keyboard-response","trial_index":40,"time_elapsed":291525,"internal_node_id":"0.0-4.0-13.0-0.2","session":1,"startTime":"2020-1-6 11:40:40","attn_word":["MONKEY"],"correct":false},{"rt":null,"stimulus":"flanker_test","key_press":null,"stim_type":"incongruent","direction":"right","trial_type":"image-keyboard-response","trial_index":41,"time_elapsed":293581,"internal_node_id":"0.0-4.0-13.0-0.3","session":1,"startTime":"2020-1-6 11:40:40","attn_word":["MONKEY"],"correct":false},{"init_locations":"[{\"cat\":27,\"src\":4,\"x\":43,\"y\":200},{\"cat\":11,\"src\":10,\"x\":17,\"y\":261},{\"cat\":23,\"src\":7,\"x\":26,\"y\":12},{\"cat\":23,\"src\":10,\"x\":74,\"y\":122},{\"cat\":27,\"src\":18,\"x\":7,\"y\":448},{\"cat\":11,\"src\":5,\"x\":79,\"y\":85},{\"cat\":27,\"src\":19,\"x\":20,\"y\":366},{\"cat\":11,\"src\":3,\"x\":62,\"y\":308},{\"cat\":23,\"src\":15,\"x\":37,\"y\":494}]","moves":"[{\"cat\":\"23\",\"src\":\"15\",\"x\":0,\"y\":0},{\"cat\":\"27\",\"src\":\"18\",\"x\":0,\"y\":0},{\"cat\":\"27\",\"src\":\"4\",\"x\":0,\"y\":0},{\"cat\":\"11\",\"src\":\"3\",\"x\":0,\"y\":0},{\"cat\":\"11\",\"src\":\"10\",\"x\":0,\"y\":0},{\"cat\":\"23\",\"src\":\"7\",\"x\":676,\"y\":172},{\"cat\":\"23\",\"src\":\"7\",\"x\":0,\"y\":0},{\"cat\":\"11\",\"src\":\"5\",\"x\":0,\"y\":0},{\"cat\":\"27\",\"src\":\"19\",\"x\":810,\"y\":238},{\"cat\":\"27\",\"src\":\"19\",\"x\":0,\"y\":0},{\"cat\":\"23\",\"src\":\"10\",\"x\":239,\"y\":352},{\"cat\":\"23\",\"src\":\"10\",\"x\":0,\"y\":0}]","final_locations":"[{\"cat\":23,\"src\":15,\"loc\":0},{\"cat\":27,\"src\":18,\"loc\":2},{\"cat\":27,\"src\":4,\"loc\":8},{\"cat\":11,\"src\":3,\"loc\":6},{\"cat\":11,\"src\":10,\"loc\":1},{\"cat\":23,\"src\":7,\"loc\":5},{\"cat\":11,\"src\":5,\"loc\":4},{\"cat\":27,\"src\":19,\"loc\":3},{\"cat\":23,\"src\":10,\"loc\":7}]","rt":25417,"sort_correct":7,"finalLocations":[[23,15,0,0],[11,10,1,4],[27,18,2,1],[27,19,3,7],[11,5,4,6],[23,7,5,5],[11,3,6,3],[23,10,7,8],[27,4,8,2]],"trial_type":"free-sort","trial_index":42,"time_elapsed":319606,"internal_node_id":"0.0-4.0-14.0","session":1,"startTime":"2020-1-6 11:40:40","attn_word":["MONKEY"],"stimulus":"sort_trial"},{"rt":2286,"stimulus":"sort_feedback","key_press":32,"trial_type":"html-keyboard-response","trial_index":43,"time_elapsed":321894,"internal_node_id":"0.0-4.0-15.0","session":1,"startTime":"2020-1-6 11:40:40","attn_word":["MONKEY"]},{"animation_sequence":"[{\"cat\":1,\"src\":14,\"loc\":6},{\"cat\":23,\"src\":18,\"loc\":3},{\"cat\":15,\"src\":13,\"loc\":2},{\"cat\":1,\"src\":1,\"loc\":8},{\"cat\":23,\"src\":5,\"loc\":4},{\"cat\":15,\"src\":1,\"loc\":0},{\"cat\":15,\"src\":6,\"loc\":1},{\"cat\":23,\"src\":0,\"loc\":5},{\"cat\":1,\"src\":3,\"loc\":7}]","condition":3,"rt":19920,"time_sequence":[1103,1103,1103,1102,1102,1102,1101,1102,1102,10000],"trial_type":"animation","trial_index":44,"time_elapsed":341815,"internal_node_id":"0.0-4.0-16.0","session":1,"startTime":"2020-1-6 11:40:40","attn_word":["MONKEY"],"stimulus":"setup3"},{"rt":2249,"stimulus":"flanker_instructions","key_press":32,"trial_type":"html-keyboard-response","trial_index":45,"time_elapsed":344066,"internal_node_id":"0.0-4.0-17.0","session":1,"startTime":"2020-1-6 11:40:40","attn_word":["MONKEY"]},{"rt":null,"stimulus":"flanker_test","key_press":null,"stim_type":"incongruent","direction":"left","trial_type":"image-keyboard-response","trial_index":46,"time_elapsed":345969,"internal_node_id":"0.0-4.0-18.0-0.0","session":1,"startTime":"2020-1-6 11:40:40","attn_word":["MONKEY"],"correct":false},{"rt":null,"stimulus":"flanker_test","key_press":null,"stim_type":"incongruent","direction":"right","trial_type":"image-keyboard-response","trial_index":47,"time_elapsed":347642,"internal_node_id":"0.0-4.0-18.0-0.1","session":1,"startTime":"2020-1-6 11:40:40","attn_word":["MONKEY"],"correct":false},{"rt":null,"stimulus":"flanker_test","key_press":null,"stim_type":"congruent","direction":"right","trial_type":"image-keyboard-response","trial_index":48,"time_elapsed":349721,"internal_node_id":"0.0-4.0-18.0-0.2","session":1,"startTime":"2020-1-6 11:40:40","attn_word":["MONKEY"],"correct":false},{"rt":null,"stimulus":"flanker_test","key_press":null,"stim_type":"congruent","direction":"left","trial_type":"image-keyboard-response","trial_index":49,"time_elapsed":351154,"internal_node_id":"0.0-4.0-18.0-0.3","session":1,"startTime":"2020-1-6 11:40:40","attn_word":["MONKEY"],"correct":false},{"init_locations":"[{\"cat\":1,\"src\":14,\"x\":39,\"y\":493},{\"cat\":23,\"src\":18,\"x\":45,\"y\":81},{\"cat\":15,\"src\":13,\"x\":1,\"y\":15},{\"cat\":1,\"src\":1,\"x\":35,\"y\":132},{\"cat\":23,\"src\":5,\"x\":83,\"y\":423},{\"cat\":15,\"src\":1,\"x\":45,\"y\":302},{\"cat\":15,\"src\":6,\"x\":74,\"y\":374},{\"cat\":23,\"src\":0,\"x\":80,\"y\":264},{\"cat\":1,\"src\":3,\"x\":66,\"y\":193}]","moves":"[{\"cat\":\"15\",\"src\":\"1\",\"x\":0,\"y\":0},{\"cat\":\"15\",\"src\":\"13\",\"x\":0,\"y\":0},{\"cat\":\"15\",\"src\":\"6\",\"x\":0,\"y\":0},{\"cat\":\"23\",\"src\":\"0\",\"x\":0,\"y\":0},{\"cat\":\"23\",\"src\":\"5\",\"x\":0,\"y\":0},{\"cat\":\"23\",\"src\":\"18\",\"x\":0,\"y\":0},{\"cat\":\"1\",\"src\":\"14\",\"x\":0,\"y\":0},{\"cat\":\"1\",\"src\":\"1\",\"x\":0,\"y\":0},{\"cat\":\"1\",\"src\":\"3\",\"x\":0,\"y\":0}]","final_locations":"[{\"cat\":15,\"src\":1,\"loc\":0},{\"cat\":15,\"src\":13,\"loc\":2},{\"cat\":15,\"src\":6,\"loc\":1},{\"cat\":23,\"src\":0,\"loc\":5},{\"cat\":23,\"src\":5,\"loc\":4},{\"cat\":23,\"src\":18,\"loc\":3},{\"cat\":1,\"src\":14,\"loc\":6},{\"cat\":1,\"src\":1,\"loc\":8},{\"cat\":1,\"src\":3,\"loc\":7}]","rt":19453,"sort_correct":9,"finalLocations":[[15,1,0,0],[15,6,1,2],[15,13,2,1],[23,18,3,5],[23,5,4,4],[23,0,5,3],[1,14,6,6],[1,3,7,8],[1,1,8,7]],"trial_type":"free-sort","trial_index":50,"time_elapsed":371165,"internal_node_id":"0.0-4.0-19.0","session":1,"startTime":"2020-1-6 11:40:40","attn_word":["MONKEY"],"stimulus":"sort_trial"},{"rt":3327,"stimulus":"sort_feedback","key_press":32,"trial_type":"html-keyboard-response","trial_index":51,"time_elapsed":374493,"internal_node_id":"0.0-4.0-20.0","session":1,"startTime":"2020-1-6 11:40:40","attn_word":["MONKEY"]},{"animation_sequence":"[{\"cat\":17,\"src\":1,\"loc\":8},{\"cat\":17,\"src\":10,\"loc\":1},{\"cat\":17,\"src\":11,\"loc\":5},{\"cat\":33,\"src\":17,\"loc\":3},{\"cat\":33,\"src\":7,\"loc\":6},{\"cat\":33,\"src\":6,\"loc\":2},{\"cat\":15,\"src\":9,\"loc\":7},{\"cat\":15,\"src\":18,\"loc\":0},{\"cat\":15,\"src\":3,\"loc\":4}]","condition":4,"rt":19921,"time_sequence":[1103,1101,1105,1102,1102,1102,1101,1102,1102,10001],"trial_type":"animation","trial_index":52,"time_elapsed":394416,"internal_node_id":"0.0-4.0-21.0","session":1,"startTime":"2020-1-6 11:40:40","attn_word":["MONKEY"],"stimulus":"setup4"},{"rt":1573,"stimulus":"flanker_instructions","key_press":32,"trial_type":"html-keyboard-response","trial_index":53,"time_elapsed":395991,"internal_node_id":"0.0-4.0-22.0","session":1,"startTime":"2020-1-6 11:40:40","attn_word":["MONKEY"]},{"rt":null,"stimulus":"flanker_test","key_press":null,"stim_type":"incongruent","direction":"left","trial_type":"image-keyboard-response","trial_index":54,"time_elapsed":397895,"internal_node_id":"0.0-4.0-23.0-0.0","session":1,"startTime":"2020-1-6 11:40:40","attn_word":["MONKEY"],"correct":false},{"rt":null,"stimulus":"flanker_test","key_press":null,"stim_type":"incongruent","direction":"right","trial_type":"image-keyboard-response","trial_index":55,"time_elapsed":399981,"internal_node_id":"0.0-4.0-23.0-0.1","session":1,"startTime":"2020-1-6 11:40:40","attn_word":["MONKEY"],"correct":false},{"rt":null,"stimulus":"flanker_test","key_press":null,"stim_type":"congruent","direction":"left","trial_type":"image-keyboard-response","trial_index":56,"time_elapsed":401685,"internal_node_id":"0.0-4.0-23.0-0.2","session":1,"startTime":"2020-1-6 11:40:40","attn_word":["MONKEY"],"correct":false},{"rt":null,"stimulus":"flanker_test","key_press":null,"stim_type":"congruent","direction":"right","trial_type":"image-keyboard-response","trial_index":57,"time_elapsed":402948,"internal_node_id":"0.0-4.0-23.0-0.3","session":1,"startTime":"2020-1-6 11:40:40","attn_word":["MONKEY"],"correct":false},{"init_locations":"[{\"cat\":17,\"src\":1,\"x\":55,\"y\":71},{\"cat\":17,\"src\":10,\"x\":15,\"y\":15},{\"cat\":17,\"src\":11,\"x\":77,\"y\":195},{\"cat\":33,\"src\":17,\"x\":4,\"y\":364},{\"cat\":33,\"src\":7,\"x\":52,\"y\":419},{\"cat\":33,\"src\":6,\"x\":11,\"y\":483},{\"cat\":15,\"src\":9,\"x\":38,\"y\":248},{\"cat\":15,\"src\":18,\"x\":65,\"y\":313},{\"cat\":15,\"src\":3,\"x\":45,\"y\":125}]","moves":"[{\"cat\":\"17\",\"src\":\"10\",\"x\":0,\"y\":0},{\"cat\":\"33\",\"src\":\"6\",\"x\":0,\"y\":0},{\"cat\":\"33\",\"src\":\"7\",\"x\":0,\"y\":0},{\"cat\":\"17\",\"src\":\"1\",\"x\":513,\"y\":307},{\"cat\":\"17\",\"src\":\"1\",\"x\":0,\"y\":0},{\"cat\":\"15\",\"src\":\"18\",\"x\":0,\"y\":0},{\"cat\":\"15\",\"src\":\"9\",\"x\":0,\"y\":0},{\"cat\":\"33\",\"src\":\"17\",\"x\":0,\"y\":0},{\"cat\":\"17\",\"src\":\"11\",\"x\":0,\"y\":0},{\"cat\":\"15\",\"src\":\"3\",\"x\":0,\"y\":0}]","final_locations":"[{\"cat\":17,\"src\":10,\"loc\":1},{\"cat\":33,\"src\":6,\"loc\":2},{\"cat\":33,\"src\":7,\"loc\":6},{\"cat\":17,\"src\":1,\"loc\":8},{\"cat\":15,\"src\":18,\"loc\":0},{\"cat\":15,\"src\":9,\"loc\":7},{\"cat\":33,\"src\":17,\"loc\":3},{\"cat\":17,\"src\":11,\"loc\":5},{\"cat\":15,\"src\":3,\"loc\":4}]","rt":18696,"sort_correct":9,"finalLocations":[[15,18,0,4],[17,10,1,0],[33,6,2,1],[33,17,3,6],[15,3,4,8],[17,11,5,7],[33,7,6,2],[15,9,7,5],[17,1,8,3]],"trial_type":"free-sort","trial_index":58,"time_elapsed":422556,"internal_node_id":"0.0-4.0-24.0","session":1,"startTime":"2020-1-6 11:40:40","attn_word":["MONKEY"],"stimulus":"sort_trial"},{"rt":2537,"stimulus":"sort_feedback","key_press":32,"trial_type":"html-keyboard-response","trial_index":59,"time_elapsed":425094,"internal_node_id":"0.0-4.0-25.0","session":1,"startTime":"2020-1-6 11:40:40","attn_word":["MONKEY"]},{"animation_sequence":"[{\"cat\":33,\"src\":9,\"loc\":5},{\"cat\":25,\"src\":14,\"loc\":8},{\"cat\":30,\"src\":16,\"loc\":1},{\"cat\":25,\"src\":16,\"loc\":4},{\"cat\":33,\"src\":8,\"loc\":2},{\"cat\":30,\"src\":11,\"loc\":6},{\"cat\":30,\"src\":14,\"loc\":3},{\"cat\":25,\"src\":9,\"loc\":0},{\"cat\":33,\"src\":2,\"loc\":7}]","condition":5,"rt":19933,"time_sequence":[1113,1101,1105,1101,1104,1102,1101,1103,1101,10002],"trial_type":"animation","trial_index":60,"time_elapsed":445028,"internal_node_id":"0.0-4.0-26.0","session":1,"startTime":"2020-1-6 11:40:40","attn_word":["MONKEY"],"stimulus":"setup5"},{"rt":487,"stimulus":"flanker_instructions","key_press":32,"trial_type":"html-keyboard-response","trial_index":61,"time_elapsed":445517,"internal_node_id":"0.0-4.0-27.0","session":1,"startTime":"2020-1-6 11:40:40","attn_word":["MONKEY"]},{"rt":null,"stimulus":"flanker_test","key_press":null,"stim_type":"congruent","direction":"left","trial_type":"image-keyboard-response","trial_index":62,"time_elapsed":447420,"internal_node_id":"0.0-4.0-28.0-0.0","session":1,"startTime":"2020-1-6 11:40:40","attn_word":["MONKEY"],"correct":false},{"rt":null,"stimulus":"flanker_test","key_press":null,"stim_type":"congruent","direction":"right","trial_type":"image-keyboard-response","trial_index":63,"time_elapsed":448768,"internal_node_id":"0.0-4.0-28.0-0.1","session":1,"startTime":"2020-1-6 11:40:40","attn_word":["MONKEY"],"correct":false},{"rt":null,"stimulus":"flanker_test","key_press":null,"stim_type":"incongruent","direction":"right","trial_type":"image-keyboard-response","trial_index":64,"time_elapsed":450358,"internal_node_id":"0.0-4.0-28.0-0.2","session":1,"startTime":"2020-1-6 11:40:40","attn_word":["MONKEY"],"correct":false},{"rt":null,"stimulus":"flanker_test","key_press":null,"stim_type":"incongruent","direction":"left","trial_type":"image-keyboard-response","trial_index":65,"time_elapsed":451836,"internal_node_id":"0.0-4.0-28.0-0.3","session":1,"startTime":"2020-1-6 11:40:40","attn_word":["MONKEY"],"correct":false},{"init_locations":"[{\"cat\":33,\"src\":9,\"x\":49,\"y\":16},{\"cat\":25,\"src\":14,\"x\":47,\"y\":505},{\"cat\":30,\"src\":16,\"x\":57,\"y\":129},{\"cat\":25,\"src\":16,\"x\":41,\"y\":259},{\"cat\":33,\"src\":8,\"x\":68,\"y\":428},{\"cat\":30,\"src\":11,\"x\":1,\"y\":323},{\"cat\":30,\"src\":14,\"x\":32,\"y\":188},{\"cat\":25,\"src\":9,\"x\":60,\"y\":88},{\"cat\":33,\"src\":2,\"x\":61,\"y\":363}]","moves":"[{\"cat\":\"25\",\"src\":\"9\",\"x\":0,\"y\":0},{\"cat\":\"30\",\"src\":\"16\",\"x\":0,\"y\":0},{\"cat\":\"33\",\"src\":\"8\",\"x\":0,\"y\":0},{\"cat\":\"30\",\"src\":\"11\",\"x\":0,\"y\":0},{\"cat\":\"25\",\"src\":\"14\",\"x\":0,\"y\":0},{\"cat\":\"25\",\"src\":\"16\",\"x\":0,\"y\":0},{\"cat\":\"33\",\"src\":\"9\",\"x\":0,\"y\":0},{\"cat\":\"30\",\"src\":\"14\",\"x\":0,\"y\":0},{\"cat\":\"33\",\"src\":\"2\",\"x\":787,\"y\":242},{\"cat\":\"33\",\"src\":\"2\",\"x\":0,\"y\":0}]","final_locations":"[{\"cat\":25,\"src\":9,\"loc\":0},{\"cat\":30,\"src\":16,\"loc\":1},{\"cat\":33,\"src\":8,\"loc\":2},{\"cat\":30,\"src\":11,\"loc\":6},{\"cat\":25,\"src\":14,\"loc\":8},{\"cat\":25,\"src\":16,\"loc\":7},{\"cat\":33,\"src\":9,\"loc\":5},{\"cat\":30,\"src\":14,\"loc\":4},{\"cat\":33,\"src\":2,\"loc\":3}]","rt":23355,"sort_correct":6,"finalLocations":[[25,9,0,0],[30,16,1,1],[33,8,2,2],[33,2,3,8],[30,14,4,7],[33,9,5,6],[30,11,6,3],[25,16,7,5],[25,14,8,4]],"trial_type":"free-sort","trial_index":66,"time_elapsed":475924,"internal_node_id":"0.0-4.0-29.0","session":1,"startTime":"2020-1-6 11:40:40","attn_word":["MONKEY"],"stimulus":"sort_trial"},{"rt":3300,"stimulus":"sort_feedback","key_press":32,"trial_type":"html-keyboard-response","trial_index":67,"time_elapsed":479225,"internal_node_id":"0.0-4.0-30.0","session":1,"startTime":"2020-1-6 11:40:40","attn_word":["MONKEY"]},{"animation_sequence":"[{\"cat\":3,\"src\":7,\"loc\":0},{\"cat\":3,\"src\":6,\"loc\":7},{\"cat\":3,\"src\":1,\"loc\":3},{\"cat\":14,\"src\":9,\"loc\":5},{\"cat\":14,\"src\":10,\"loc\":8},{\"cat\":14,\"src\":0,\"loc\":2},{\"cat\":15,\"src\":13,\"loc\":1},{\"cat\":15,\"src\":18,\"loc\":6},{\"cat\":15,\"src\":2,\"loc\":4}]","condition":4,"rt":19928,"time_sequence":[1103,1111,1101,1103,1103,1102,1100,1102,1102,10001],"trial_type":"animation","trial_index":68,"time_elapsed":499155,"internal_node_id":"0.0-4.0-31.0","session":1,"startTime":"2020-1-6 11:40:40","attn_word":["MONKEY"],"stimulus":"setup4"},{"rt":9474,"stimulus":"flanker_instructions","key_press":74,"trial_type":"html-keyboard-response","trial_index":69,"time_elapsed":508630,"internal_node_id":"0.0-4.0-32.0","session":1,"startTime":"2020-1-6 11:40:40","attn_word":["MONKEY"]},{"rt":null,"stimulus":"flanker_test","key_press":null,"stim_type":"congruent","direction":"right","trial_type":"image-keyboard-response","trial_index":70,"time_elapsed":510534,"internal_node_id":"0.0-4.0-33.0-0.0","session":1,"startTime":"2020-1-6 11:40:40","attn_word":["MONKEY"],"correct":false},{"rt":null,"stimulus":"flanker_test","key_press":null,"stim_type":"incongruent","direction":"left","trial_type":"image-keyboard-response","trial_index":71,"time_elapsed":511831,"internal_node_id":"0.0-4.0-33.0-0.1","session":1,"startTime":"2020-1-6 11:40:40","attn_word":["MONKEY"],"correct":false},{"rt":null,"stimulus":"flanker_test","key_press":null,"stim_type":"congruent","direction":"left","trial_type":"image-keyboard-response","trial_index":72,"time_elapsed":513910,"internal_node_id":"0.0-4.0-33.0-0.2","session":1,"startTime":"2020-1-6 11:40:40","attn_word":["MONKEY"],"correct":false},{"rt":null,"stimulus":"flanker_test","key_press":null,"stim_type":"incongruent","direction":"right","trial_type":"image-keyboard-response","trial_index":73,"time_elapsed":515627,"internal_node_id":"0.0-4.0-33.0-0.3","session":1,"startTime":"2020-1-6 11:40:40","attn_word":["MONKEY"],"correct":false},{"init_locations":"[{\"cat\":3,\"src\":7,\"x\":25,\"y\":306},{\"cat\":3,\"src\":6,\"x\":67,\"y\":206},{\"cat\":3,\"src\":1,\"x\":42,\"y\":445},{\"cat\":14,\"src\":9,\"x\":20,\"y\":68},{\"cat\":14,\"src\":10,\"x\":19,\"y\":365},{\"cat\":14,\"src\":0,\"x\":80,\"y\":266},{\"cat\":15,\"src\":13,\"x\":19,\"y\":138},{\"cat\":15,\"src\":18,\"x\":34,\"y\":482},{\"cat\":15,\"src\":2,\"x\":37,\"y\":1}]","moves":"[{\"cat\":\"15\",\"src\":\"13\",\"x\":0,\"y\":0},{\"cat\":\"14\",\"src\":\"0\",\"x\":0,\"y\":0},{\"cat\":\"3\",\"src\":\"7\",\"x\":0,\"y\":0},{\"cat\":\"14\",\"src\":\"9\",\"x\":0,\"y\":0},{\"cat\":\"3\",\"src\":\"1\",\"x\":0,\"y\":0},{\"cat\":\"14\",\"src\":\"10\",\"x\":0,\"y\":0},{\"cat\":\"3\",\"src\":\"6\",\"x\":0,\"y\":0},{\"cat\":\"15\",\"src\":\"18\",\"x\":0,\"y\":0},{\"cat\":\"15\",\"src\":\"2\",\"x\":0,\"y\":0}]","final_locations":"[{\"cat\":15,\"src\":13,\"loc\":1},{\"cat\":14,\"src\":0,\"loc\":2},{\"cat\":3,\"src\":7,\"loc\":0},{\"cat\":14,\"src\":9,\"loc\":5},{\"cat\":3,\"src\":1,\"loc\":3},{\"cat\":14,\"src\":10,\"loc\":6},{\"cat\":3,\"src\":6,\"loc\":7},{\"cat\":15,\"src\":18,\"loc\":8},{\"cat\":15,\"src\":2,\"loc\":4}]","rt":24077,"sort_correct":7,"finalLocations":[[3,7,0,2],[15,13,1,0],[14,0,2,1],[3,1,3,4],[15,2,4,8],[14,9,5,3],[14,10,6,5],[3,6,7,6],[15,18,8,7]],"trial_type":"free-sort","trial_index":74,"time_elapsed":540108,"internal_node_id":"0.0-4.0-34.0","session":1,"startTime":"2020-1-6 11:40:40","attn_word":["MONKEY"],"stimulus":"sort_trial"},{"rt":1848,"stimulus":"sort_feedback","key_press":75,"trial_type":"html-keyboard-response","trial_index":75,"time_elapsed":541958,"internal_node_id":"0.0-4.0-35.0","session":1,"startTime":"2020-1-6 11:40:40","attn_word":["MONKEY"]},{"animation_sequence":"[{\"cat\":13,\"src\":11,\"loc\":6},{\"cat\":13,\"src\":2,\"loc\":8},{\"cat\":13,\"src\":12,\"loc\":7},{\"cat\":32,\"src\":0,\"loc\":5},{\"cat\":32,\"src\":7,\"loc\":3},{\"cat\":32,\"src\":3,\"loc\":4},{\"cat\":20,\"src\":12,\"loc\":0},{\"cat\":20,\"src\":13,\"loc\":2},{\"cat\":20,\"src\":10,\"loc\":1}]","condition":1,"rt":19917,"time_sequence":[1104,1101,1101,1101,1102,1101,1102,1101,1102,10002],"trial_type":"animation","trial_index":76,"time_elapsed":561875,"internal_node_id":"0.0-4.0-36.0","session":1,"startTime":"2020-1-6 11:40:40","attn_word":["MONKEY"],"stimulus":"setup1"},{"rt":2264,"stimulus":"flanker_instructions","key_press":75,"trial_type":"html-keyboard-response","trial_index":77,"time_elapsed":564141,"internal_node_id":"0.0-4.0-37.0","session":1,"startTime":"2020-1-6 11:40:40","attn_word":["MONKEY"]},{"rt":null,"stimulus":"flanker_test","key_press":null,"stim_type":"incongruent","direction":"right","trial_type":"image-keyboard-response","trial_index":78,"time_elapsed":566044,"internal_node_id":"0.0-4.0-38.0-0.0","session":1,"startTime":"2020-1-6 11:40:40","attn_word":["MONKEY"],"correct":false},{"rt":null,"stimulus":"flanker_test","key_press":null,"stim_type":"incongruent","direction":"left","trial_type":"image-keyboard-response","trial_index":79,"time_elapsed":567831,"internal_node_id":"0.0-4.0-38.0-0.1","session":1,"startTime":"2020-1-6 11:40:40","attn_word":["MONKEY"],"correct":false},{"rt":null,"stimulus":"flanker_test","key_press":null,"stim_type":"congruent","direction":"right","trial_type":"image-keyboard-response","trial_index":80,"time_elapsed":569252,"internal_node_id":"0.0-4.0-38.0-0.2","session":1,"startTime":"2020-1-6 11:40:40","attn_word":["MONKEY"],"correct":false},{"rt":null,"stimulus":"flanker_test","key_press":null,"stim_type":"congruent","direction":"left","trial_type":"image-keyboard-response","trial_index":81,"time_elapsed":570653,"internal_node_id":"0.0-4.0-38.0-0.3","session":1,"startTime":"2020-1-6 11:40:40","attn_word":["MONKEY"],"correct":false},{"init_locations":"[{\"cat\":13,\"src\":11,\"x\":10,\"y\":379},{\"cat\":13,\"src\":2,\"x\":34,\"y\":85},{\"cat\":13,\"src\":12,\"x\":10,\"y\":250},{\"cat\":32,\"src\":0,\"x\":21,\"y\":5},{\"cat\":32,\"src\":7,\"x\":30,\"y\":313},{\"cat\":32,\"src\":3,\"x\":72,\"y\":431},{\"cat\":20,\"src\":12,\"x\":50,\"y\":182},{\"cat\":20,\"src\":13,\"x\":45,\"y\":506},{\"cat\":20,\"src\":10,\"x\":68,\"y\":147}]","moves":"[{\"cat\":\"20\",\"src\":\"12\",\"x\":0,\"y\":0},{\"cat\":\"20\",\"src\":\"10\",\"x\":0,\"y\":0},{\"cat\":\"20\",\"src\":\"13\",\"x\":0,\"y\":0},{\"cat\":\"13\",\"src\":\"11\",\"x\":0,\"y\":0},{\"cat\":\"13\",\"src\":\"12\",\"x\":0,\"y\":0},{\"cat\":\"13\",\"src\":\"2\",\"x\":0,\"y\":0},{\"cat\":\"32\",\"src\":\"0\",\"x\":694,\"y\":153},{\"cat\":\"32\",\"src\":\"0\",\"x\":0,\"y\":0},{\"cat\":\"32\",\"src\":\"3\",\"x\":0,\"y\":0},{\"cat\":\"32\",\"src\":\"7\",\"x\":785,\"y\":244},{\"cat\":\"32\",\"src\":\"7\",\"x\":0,\"y\":0}]","final_locations":"[{\"cat\":20,\"src\":12,\"loc\":0},{\"cat\":20,\"src\":10,\"loc\":1},{\"cat\":20,\"src\":13,\"loc\":2},{\"cat\":13,\"src\":11,\"loc\":6},{\"cat\":13,\"src\":12,\"loc\":7},{\"cat\":13,\"src\":2,\"loc\":8},{\"cat\":32,\"src\":0,\"loc\":5},{\"cat\":32,\"src\":3,\"loc\":4},{\"cat\":32,\"src\":7,\"loc\":3}]","rt":25345,"sort_correct":9,"finalLocations":[[20,12,0,0],[20,10,1,1],[20,13,2,2],[32,7,3,8],[32,3,4,7],[32,0,5,6],[13,11,6,3],[13,12,7,4],[13,2,8,5]],"trial_type":"free-sort","trial_index":82,"time_elapsed":596842,"internal_node_id":"0.0-4.0-39.0","session":1,"startTime":"2020-1-6 11:40:40","attn_word":["MONKEY"],"stimulus":"sort_trial"},{"rt":1802,"stimulus":"sort_feedback","key_press":75,"trial_type":"html-keyboard-response","trial_index":83,"time_elapsed":598645,"internal_node_id":"0.0-4.0-40.0","session":1,"startTime":"2020-1-6 11:40:40","attn_word":["MONKEY"]},{"animation_sequence":"[{\"cat\":9,\"src\":18,\"loc\":8},{\"cat\":15,\"src\":16,\"loc\":3},{\"cat\":6,\"src\":7,\"loc\":0},{\"cat\":6,\"src\":2,\"loc\":1},{\"cat\":9,\"src\":14,\"loc\":6},{\"cat\":15,\"src\":13,\"loc\":5},{\"cat\":15,\"src\":11,\"loc\":4},{\"cat\":6,\"src\":9,\"loc\":2},{\"cat\":9,\"src\":17,\"loc\":7}]","condition":3,"rt":19916,"time_sequence":[1102,1101,1102,1102,1101,1102,1101,1102,1102,10001],"trial_type":"animation","trial_index":84,"time_elapsed":618563,"internal_node_id":"0.0-4.0-41.0","session":1,"startTime":"2020-1-6 11:40:40","attn_word":["MONKEY"],"stimulus":"setup3"},{"rt":604,"stimulus":"flanker_instructions","key_press":70,"trial_type":"html-keyboard-response","trial_index":85,"time_elapsed":619168,"internal_node_id":"0.0-4.0-42.0","session":1,"startTime":"2020-1-6 11:40:40","attn_word":["MONKEY"]},{"rt":null,"stimulus":"flanker_test","key_press":null,"stim_type":"congruent","direction":"left","trial_type":"image-keyboard-response","trial_index":86,"time_elapsed":621072,"internal_node_id":"0.0-4.0-43.0-0.0","session":1,"startTime":"2020-1-6 11:40:40","attn_word":["MONKEY"],"correct":false},{"rt":null,"stimulus":"flanker_test","key_press":null,"stim_type":"congruent","direction":"right","trial_type":"image-keyboard-response","trial_index":87,"time_elapsed":622829,"internal_node_id":"0.0-4.0-43.0-0.1","session":1,"startTime":"2020-1-6 11:40:40","attn_word":["MONKEY"],"correct":false},{"rt":null,"stimulus":"flanker_test","key_press":null,"stim_type":"incongruent","direction":"right","trial_type":"image-keyboard-response","trial_index":88,"time_elapsed":624330,"internal_node_id":"0.0-4.0-43.0-0.2","session":1,"startTime":"2020-1-6 11:40:40","attn_word":["MONKEY"],"correct":false},{"rt":null,"stimulus":"flanker_test","key_press":null,"stim_type":"incongruent","direction":"left","trial_type":"image-keyboard-response","trial_index":89,"time_elapsed":626266,"internal_node_id":"0.0-4.0-43.0-0.3","session":1,"startTime":"2020-1-6 11:40:40","attn_word":["MONKEY"],"correct":false},{"init_locations":"[{\"cat\":9,\"src\":18,\"x\":17,\"y\":440},{\"cat\":15,\"src\":16,\"x\":39,\"y\":310},{\"cat\":6,\"src\":7,\"x\":35,\"y\":374},{\"cat\":6,\"src\":2,\"x\":74,\"y\":500},{\"cat\":9,\"src\":14,\"x\":3,\"y\":81},{\"cat\":15,\"src\":13,\"x\":64,\"y\":267},{\"cat\":15,\"src\":11,\"x\":61,\"y\":201},{\"cat\":6,\"src\":9,\"x\":70,\"y\":21},{\"cat\":9,\"src\":17,\"x\":42,\"y\":128}]","moves":"[{\"cat\":\"6\",\"src\":\"9\",\"x\":360,\"y\":169},{\"cat\":\"6\",\"src\":\"9\",\"x\":0,\"y\":0},{\"cat\":\"6\",\"src\":\"7\",\"x\":0,\"y\":0},{\"cat\":\"6\",\"src\":\"2\",\"x\":0,\"y\":0},{\"cat\":\"9\",\"src\":\"14\",\"x\":0,\"y\":0},{\"cat\":\"9\",\"src\":\"18\",\"x\":0,\"y\":0},{\"cat\":\"15\",\"src\":\"13\",\"x\":0,\"y\":0},{\"cat\":\"15\",\"src\":\"11\",\"x\":0,\"y\":0},{\"cat\":\"15\",\"src\":\"16\",\"x\":0,\"y\":0},{\"cat\":\"9\",\"src\":\"17\",\"x\":0,\"y\":0}]","final_locations":"[{\"cat\":6,\"src\":9,\"loc\":2},{\"cat\":6,\"src\":7,\"loc\":0},{\"cat\":6,\"src\":2,\"loc\":1},{\"cat\":9,\"src\":14,\"loc\":6},{\"cat\":9,\"src\":18,\"loc\":7},{\"cat\":15,\"src\":13,\"loc\":5},{\"cat\":15,\"src\":11,\"loc\":4},{\"cat\":15,\"src\":16,\"loc\":3},{\"cat\":9,\"src\":17,\"loc\":8}]","rt":20666,"sort_correct":7,"finalLocations":[[6,7,0,1],[6,2,1,2],[6,9,2,0],[15,16,3,7],[15,11,4,6],[15,13,5,5],[9,14,6,3],[9,18,7,4],[9,17,8,8]],"trial_type":"free-sort","trial_index":90,"time_elapsed":647705,"internal_node_id":"0.0-4.0-44.0","session":1,"startTime":"2020-1-6 11:40:40","attn_word":["MONKEY"],"stimulus":"sort_trial"},{"rt":1311,"stimulus":"sort_feedback","key_press":32,"trial_type":"html-keyboard-response","trial_index":91,"time_elapsed":649017,"internal_node_id":"0.0-4.0-45.0","session":1,"startTime":"2020-1-6 11:40:40","attn_word":["MONKEY"]},{"animation_sequence":"[{\"cat\":21,\"src\":11,\"loc\":0},{\"cat\":7,\"src\":0,\"loc\":1},{\"cat\":32,\"src\":12,\"loc\":2},{\"cat\":32,\"src\":17,\"loc\":4},{\"cat\":21,\"src\":18,\"loc\":5},{\"cat\":7,\"src\":3,\"loc\":3},{\"cat\":7,\"src\":5,\"loc\":6},{\"cat\":21,\"src\":8,\"loc\":8},{\"cat\":32,\"src\":5,\"loc\":7}]","condition":2,"rt":19919,"time_sequence":[1103,1101,1102,1100,1102,1103,1101,1102,1102,10002],"trial_type":"animation","trial_index":92,"time_elapsed":668937,"internal_node_id":"0.0-4.0-46.0","session":1,"startTime":"2020-1-6 11:40:40","attn_word":["MONKEY"],"stimulus":"setup2"},{"rt":468,"stimulus":"flanker_instructions","key_press":74,"trial_type":"html-keyboard-response","trial_index":93,"time_elapsed":669407,"internal_node_id":"0.0-4.0-47.0","session":1,"startTime":"2020-1-6 11:40:40","attn_word":["MONKEY"]},{"rt":null,"stimulus":"flanker_test","key_press":null,"stim_type":"incongruent","direction":"right","trial_type":"image-keyboard-response","trial_index":94,"time_elapsed":671310,"internal_node_id":"0.0-4.0-48.0-0.0","session":1,"startTime":"2020-1-6 11:40:40","attn_word":["MONKEY"],"correct":false},{"rt":null,"stimulus":"flanker_test","key_press":null,"stim_type":"congruent","direction":"right","trial_type":"image-keyboard-response","trial_index":95,"time_elapsed":672796,"internal_node_id":"0.0-4.0-48.0-0.1","session":1,"startTime":"2020-1-6 11:40:40","attn_word":["MONKEY"],"correct":false},{"rt":null,"stimulus":"flanker_test","key_press":null,"stim_type":"congruent","direction":"left","trial_type":"image-keyboard-response","trial_index":96,"time_elapsed":674056,"internal_node_id":"0.0-4.0-48.0-0.2","session":1,"startTime":"2020-1-6 11:40:40","attn_word":["MONKEY"],"correct":false},{"rt":null,"stimulus":"flanker_test","key_press":null,"stim_type":"incongruent","direction":"left","trial_type":"image-keyboard-response","trial_index":97,"time_elapsed":675828,"internal_node_id":"0.0-4.0-48.0-0.3","session":1,"startTime":"2020-1-6 11:40:40","attn_word":["MONKEY"],"correct":false},{"init_locations":"[{\"cat\":21,\"src\":11,\"x\":60,\"y\":429},{\"cat\":7,\"src\":0,\"x\":14,\"y\":326},{\"cat\":32,\"src\":12,\"x\":14,\"y\":386},{\"cat\":32,\"src\":17,\"x\":47,\"y\":191},{\"cat\":21,\"src\":18,\"x\":75,\"y\":4},{\"cat\":7,\"src\":3,\"x\":74,\"y\":499},{\"cat\":7,\"src\":5,\"x\":24,\"y\":133},{\"cat\":21,\"src\":8,\"x\":41,\"y\":84},{\"cat\":32,\"src\":5,\"x\":24,\"y\":251}]","moves":"[{\"cat\":\"7\",\"src\":\"0\",\"x\":480,\"y\":50},{\"cat\":\"32\",\"src\":\"12\",\"x\":0,\"y\":0},{\"cat\":\"7\",\"src\":\"0\",\"x\":0,\"y\":0},{\"cat\":\"21\",\"src\":\"11\",\"x\":0,\"y\":0},{\"cat\":\"32\",\"src\":\"5\",\"x\":0,\"y\":0},{\"cat\":\"7\",\"src\":\"3\",\"x\":0,\"y\":0},{\"cat\":\"21\",\"src\":\"18\",\"x\":0,\"y\":0},{\"cat\":\"32\",\"src\":\"17\",\"x\":0,\"y\":0},{\"cat\":\"7\",\"src\":\"5\",\"x\":0,\"y\":0},{\"cat\":\"21\",\"src\":\"8\",\"x\":0,\"y\":0}]","final_locations":"[{\"cat\":32,\"src\":12,\"loc\":2},{\"cat\":7,\"src\":0,\"loc\":1},{\"cat\":21,\"src\":11,\"loc\":0},{\"cat\":32,\"src\":5,\"loc\":7},{\"cat\":7,\"src\":3,\"loc\":3},{\"cat\":21,\"src\":18,\"loc\":5},{\"cat\":32,\"src\":17,\"loc\":4},{\"cat\":7,\"src\":5,\"loc\":6},{\"cat\":21,\"src\":8,\"loc\":8}]","rt":16436,"sort_correct":9,"finalLocations":[[21,11,0,2],[7,0,1,1],[32,12,2,0],[7,3,3,4],[32,17,4,6],[21,18,5,5],[7,5,6,7],[32,5,7,3],[21,8,8,8]],"trial_type":"free-sort","trial_index":98,"time_elapsed":693193,"internal_node_id":"0.0-4.0-49.0","session":1,"startTime":"2020-1-6 11:40:40","attn_word":["MONKEY"],"stimulus":"sort_trial"},{"rt":1056,"stimulus":"sort_feedback","key_press":75,"trial_type":"html-keyboard-response","trial_index":99,"time_elapsed":694251,"internal_node_id":"0.0-4.0-50.0","session":1,"startTime":"2020-1-6 11:40:40","attn_word":["MONKEY"]},{"animation_sequence":"[{\"cat\":4,\"src\":18,\"loc\":1},{\"cat\":4,\"src\":7,\"loc\":4},{\"cat\":4,\"src\":0,\"loc\":8},{\"cat\":32,\"src\":1,\"loc\":7},{\"cat\":32,\"src\":8,\"loc\":3},{\"cat\":32,\"src\":15,\"loc\":0},{\"cat\":20,\"src\":10,\"loc\":5},{\"cat\":20,\"src\":0,\"loc\":2},{\"cat\":20,\"src\":13,\"loc\":6}]","condition":4,"rt":19919,"time_sequence":[1103,1101,1102,1102,1102,1102,1102,1103,1102,10000],"trial_type":"animation","trial_index":100,"time_elapsed":714171,"internal_node_id":"0.0-4.0-51.0","session":1,"startTime":"2020-1-6 11:40:40","attn_word":["MONKEY"],"stimulus":"setup4"},{"rt":547,"stimulus":"flanker_instructions","key_press":71,"trial_type":"html-keyboard-response","trial_index":101,"time_elapsed":714720,"internal_node_id":"0.0-4.0-52.0","session":1,"startTime":"2020-1-6 11:40:40","attn_word":["MONKEY"]},{"rt":null,"stimulus":"flanker_test","key_press":null,"stim_type":"incongruent","direction":"left","trial_type":"image-keyboard-response","trial_index":102,"time_elapsed":716624,"internal_node_id":"0.0-4.0-53.0-0.0","session":1,"startTime":"2020-1-6 11:40:40","attn_word":["MONKEY"],"correct":false},{"rt":null,"stimulus":"flanker_test","key_press":null,"stim_type":"congruent","direction":"right","trial_type":"image-keyboard-response","trial_index":103,"time_elapsed":717970,"internal_node_id":"0.0-4.0-53.0-0.1","session":1,"startTime":"2020-1-6 11:40:40","attn_word":["MONKEY"],"correct":false},{"rt":null,"stimulus":"flanker_test","key_press":null,"stim_type":"incongruent","direction":"right","trial_type":"image-keyboard-response","trial_index":104,"time_elapsed":719945,"internal_node_id":"0.0-4.0-53.0-0.2","session":1,"startTime":"2020-1-6 11:40:40","attn_word":["MONKEY"],"correct":false},{"rt":null,"stimulus":"flanker_test","key_press":null,"stim_type":"congruent","direction":"left","trial_type":"image-keyboard-response","trial_index":105,"time_elapsed":721663,"internal_node_id":"0.0-4.0-53.0-0.3","session":1,"startTime":"2020-1-6 11:40:40","attn_word":["MONKEY"],"correct":false},{"init_locations":"[{\"cat\":4,\"src\":18,\"x\":0,\"y\":80},{\"cat\":4,\"src\":7,\"x\":50,\"y\":488},{\"cat\":4,\"src\":0,\"x\":73,\"y\":267},{\"cat\":32,\"src\":1,\"x\":42,\"y\":426},{\"cat\":32,\"src\":8,\"x\":76,\"y\":360},{\"cat\":32,\"src\":15,\"x\":53,\"y\":1},{\"cat\":20,\"src\":10,\"x\":24,\"y\":326},{\"cat\":20,\"src\":0,\"x\":55,\"y\":186},{\"cat\":20,\"src\":13,\"x\":54,\"y\":124}]","moves":"[{\"cat\":\"20\",\"src\":\"10\",\"x\":0,\"y\":0},{\"cat\":\"4\",\"src\":\"7\",\"x\":0,\"y\":0},{\"cat\":\"32\",\"src\":\"8\",\"x\":0,\"y\":0},{\"cat\":\"4\",\"src\":\"0\",\"x\":0,\"y\":0},{\"cat\":\"32\",\"src\":\"1\",\"x\":0,\"y\":0},{\"cat\":\"32\",\"src\":\"15\",\"x\":0,\"y\":0},{\"cat\":\"4\",\"src\":\"18\",\"x\":0,\"y\":0},{\"cat\":\"20\",\"src\":\"13\",\"x\":0,\"y\":0},{\"cat\":\"20\",\"src\":\"0\",\"x\":640,\"y\":187},{\"cat\":\"20\",\"src\":\"0\",\"x\":0,\"y\":0}]","final_locations":"[{\"cat\":20,\"src\":10,\"loc\":5},{\"cat\":4,\"src\":7,\"loc\":4},{\"cat\":32,\"src\":8,\"loc\":3},{\"cat\":4,\"src\":0,\"loc\":8},{\"cat\":32,\"src\":1,\"loc\":7},{\"cat\":32,\"src\":15,\"loc\":0},{\"cat\":4,\"src\":18,\"loc\":1},{\"cat\":20,\"src\":13,\"loc\":6},{\"cat\":20,\"src\":0,\"loc\":2}]","rt":16778,"sort_correct":9,"finalLocations":[[32,15,0,5],[4,18,1,6],[20,0,2,8],[32,8,3,2],[4,7,4,1],[20,10,5,0],[20,13,6,7],[32,1,7,4],[4,0,8,3]],"trial_type":"free-sort","trial_index":106,"time_elapsed":738913,"internal_node_id":"0.0-4.0-54.0","session":1,"startTime":"2020-1-6 11:40:40","attn_word":["MONKEY"],"stimulus":"sort_trial"},{"rt":1217,"stimulus":"sort_feedback","key_press":70,"trial_type":"html-keyboard-response","trial_index":107,"time_elapsed":740131,"internal_node_id":"0.0-4.0-55.0","session":1,"startTime":"2020-1-6 11:40:40","attn_word":["MONKEY"]},{"animation_sequence":"[{\"cat\":17,\"src\":19,\"loc\":2},{\"cat\":17,\"src\":6,\"loc\":0},{\"cat\":17,\"src\":13,\"loc\":1},{\"cat\":28,\"src\":4,\"loc\":4},{\"cat\":28,\"src\":13,\"loc\":3},{\"cat\":28,\"src\":11,\"loc\":5},{\"cat\":21,\"src\":15,\"loc\":8},{\"cat\":21,\"src\":3,\"loc\":6},{\"cat\":21,\"src\":12,\"loc\":7}]","condition":1,"rt":22746,"time_sequence":[1103,1101,1101,1103,1102,1102,1101,1108,3924,10001],"trial_type":"animation","trial_index":108,"time_elapsed":762878,"internal_node_id":"0.0-4.0-56.0","session":1,"startTime":"2020-1-6 11:40:40","attn_word":["MONKEY"],"stimulus":"setup1"},{"rt":1691,"stimulus":"flanker_instructions","key_press":75,"trial_type":"html-keyboard-response","trial_index":109,"time_elapsed":764570,"internal_node_id":"0.0-4.0-57.0","session":1,"startTime":"2020-1-6 11:40:40","attn_word":["MONKEY"]},{"rt":null,"stimulus":"flanker_test","key_press":null,"stim_type":"incongruent","direction":"left","trial_type":"image-keyboard-response","trial_index":110,"time_elapsed":766474,"internal_node_id":"0.0-4.0-58.0-0.0","session":1,"startTime":"2020-1-6 11:40:40","attn_word":["MONKEY"],"correct":false},{"rt":null,"stimulus":"flanker_test","key_press":null,"stim_type":"congruent","direction":"right","trial_type":"image-keyboard-response","trial_index":111,"time_elapsed":767885,"internal_node_id":"0.0-4.0-58.0-0.1","session":1,"startTime":"2020-1-6 11:40:40","attn_word":["MONKEY"],"correct":false},{"rt":null,"stimulus":"flanker_test","key_press":null,"stim_type":"incongruent","direction":"right","trial_type":"image-keyboard-response","trial_index":112,"time_elapsed":769821,"internal_node_id":"0.0-4.0-58.0-0.2","session":1,"startTime":"2020-1-6 11:40:40","attn_word":["MONKEY"],"correct":false},{"rt":null,"stimulus":"flanker_test","key_press":null,"stim_type":"congruent","direction":"left","trial_type":"image-keyboard-response","trial_index":113,"time_elapsed":771090,"internal_node_id":"0.0-4.0-58.0-0.3","session":1,"startTime":"2020-1-6 11:40:40","attn_word":["MONKEY"],"correct":false},{"init_locations":"[{\"cat\":17,\"src\":19,\"x\":64,\"y\":361},{\"cat\":17,\"src\":6,\"x\":76,\"y\":62},{\"cat\":17,\"src\":13,\"x\":72,\"y\":135},{\"cat\":28,\"src\":4,\"x\":5,\"y\":11},{\"cat\":28,\"src\":13,\"x\":9,\"y\":306},{\"cat\":28,\"src\":11,\"x\":31,\"y\":203},{\"cat\":21,\"src\":15,\"x\":56,\"y\":501},{\"cat\":21,\"src\":3,\"x\":19,\"y\":427},{\"cat\":21,\"src\":12,\"x\":56,\"y\":258}]","moves":"[{\"cat\":\"21\",\"src\":\"3\",\"x\":384,\"y\":302},{\"cat\":\"21\",\"src\":\"3\",\"x\":0,\"y\":0},{\"cat\":\"21\",\"src\":\"15\",\"x\":0,\"y\":0},{\"cat\":\"28\",\"src\":\"11\",\"x\":0,\"y\":0},{\"cat\":\"28\",\"src\":\"4\",\"x\":0,\"y\":0},{\"cat\":\"28\",\"src\":\"13\",\"x\":0,\"y\":0},{\"cat\":\"17\",\"src\":\"6\",\"x\":0,\"y\":0},{\"cat\":\"17\",\"src\":\"13\",\"x\":0,\"y\":0},{\"cat\":\"17\",\"src\":\"19\",\"x\":0,\"y\":0},{\"cat\":\"21\",\"src\":\"12\",\"x\":0,\"y\":0}]","final_locations":"[{\"cat\":21,\"src\":3,\"loc\":6},{\"cat\":21,\"src\":15,\"loc\":8},{\"cat\":28,\"src\":11,\"loc\":5},{\"cat\":28,\"src\":4,\"loc\":4},{\"cat\":28,\"src\":13,\"loc\":3},{\"cat\":17,\"src\":6,\"loc\":0},{\"cat\":17,\"src\":13,\"loc\":1},{\"cat\":17,\"src\":19,\"loc\":2},{\"cat\":21,\"src\":12,\"loc\":7}]","rt":18446,"sort_correct":9,"finalLocations":[[17,6,0,5],[17,13,1,6],[17,19,2,7],[28,13,3,4],[28,4,4,3],[28,11,5,2],[21,3,6,0],[21,12,7,8],[21,15,8,1]],"trial_type":"free-sort","trial_index":114,"time_elapsed":790185,"internal_node_id":"0.0-4.0-59.0","session":1,"startTime":"2020-1-6 11:40:40","attn_word":["MONKEY"],"stimulus":"sort_trial"},{"rt":1826,"stimulus":"sort_feedback","key_press":32,"trial_type":"html-keyboard-response","trial_index":115,"time_elapsed":792012,"internal_node_id":"0.0-4.0-60.0","session":1,"startTime":"2020-1-6 11:40:40","attn_word":["MONKEY"]},{"animation_sequence":"[{\"cat\":4,\"src\":1,\"loc\":3},{\"cat\":15,\"src\":17,\"loc\":1},{\"cat\":11,\"src\":7,\"loc\":8},{\"cat\":15,\"src\":12,\"loc\":6},{\"cat\":4,\"src\":18,\"loc\":2},{\"cat\":11,\"src\":11,\"loc\":5},{\"cat\":11,\"src\":17,\"loc\":0},{\"cat\":4,\"src\":8,\"loc\":7},{\"cat\":15,\"src\":11,\"loc\":4}]","condition":5,"rt":19923,"time_sequence":[1104,1102,1102,1102,1102,1103,1102,1103,1102,10001],"trial_type":"animation","trial_index":116,"time_elapsed":811936,"internal_node_id":"0.0-4.0-61.0","session":1,"startTime":"2020-1-6 11:40:40","attn_word":["MONKEY"],"stimulus":"setup5"},{"rt":783,"stimulus":"flanker_instructions","key_press":70,"trial_type":"html-keyboard-response","trial_index":117,"time_elapsed":812720,"internal_node_id":"0.0-4.0-62.0","session":1,"startTime":"2020-1-6 11:40:40","attn_word":["MONKEY"]},{"rt":null,"stimulus":"flanker_test","key_press":null,"stim_type":"incongruent","direction":"left","trial_type":"image-keyboard-response","trial_index":118,"time_elapsed":814625,"internal_node_id":"0.0-4.0-63.0-0.0","session":1,"startTime":"2020-1-6 11:40:40","attn_word":["MONKEY"],"correct":false},{"rt":null,"stimulus":"flanker_test","key_press":null,"stim_type":"incongruent","direction":"right","trial_type":"image-keyboard-response","trial_index":119,"time_elapsed":816404,"internal_node_id":"0.0-4.0-63.0-0.1","session":1,"startTime":"2020-1-6 11:40:40","attn_word":["MONKEY"],"correct":false},{"rt":null,"stimulus":"flanker_test","key_press":null,"stim_type":"congruent","direction":"left","trial_type":"image-keyboard-response","trial_index":120,"time_elapsed":818463,"internal_node_id":"0.0-4.0-63.0-0.2","session":1,"startTime":"2020-1-6 11:40:40","attn_word":["MONKEY"],"correct":false},{"rt":null,"stimulus":"flanker_test","key_press":null,"stim_type":"congruent","direction":"right","trial_type":"image-keyboard-response","trial_index":121,"time_elapsed":820352,"internal_node_id":"0.0-4.0-63.0-0.3","session":1,"startTime":"2020-1-6 11:40:40","attn_word":["MONKEY"],"correct":false},{"init_locations":"[{\"cat\":4,\"src\":1,\"x\":22,\"y\":378},{\"cat\":15,\"src\":17,\"x\":25,\"y\":319},{\"cat\":11,\"src\":7,\"x\":8,\"y\":252},{\"cat\":15,\"src\":12,\"x\":55,\"y\":504},{\"cat\":4,\"src\":18,\"x\":10,\"y\":5},{\"cat\":11,\"src\":11,\"x\":37,\"y\":63},{\"cat\":11,\"src\":17,\"x\":55,\"y\":136},{\"cat\":4,\"src\":8,\"x\":32,\"y\":420},{\"cat\":15,\"src\":11,\"x\":10,\"y\":184}]","moves":"[{\"cat\":\"15\",\"src\":\"17\",\"x\":0,\"y\":0},{\"cat\":\"4\",\"src\":\"18\",\"x\":0,\"y\":0},{\"cat\":\"15\",\"src\":\"11\",\"x\":0,\"y\":0},{\"cat\":\"15\",\"src\":\"12\",\"x\":0,\"y\":0},{\"cat\":\"11\",\"src\":\"7\",\"x\":0,\"y\":0},{\"cat\":\"4\",\"src\":\"1\",\"x\":0,\"y\":0},{\"cat\":\"11\",\"src\":\"11\",\"x\":0,\"y\":0},{\"cat\":\"4\",\"src\":\"8\",\"x\":0,\"y\":0},{\"cat\":\"11\",\"src\":\"17\",\"x\":0,\"y\":0}]","final_locations":"[{\"cat\":15,\"src\":17,\"loc\":1},{\"cat\":4,\"src\":18,\"loc\":2},{\"cat\":15,\"src\":11,\"loc\":4},{\"cat\":15,\"src\":12,\"loc\":6},{\"cat\":11,\"src\":7,\"loc\":8},{\"cat\":4,\"src\":1,\"loc\":3},{\"cat\":11,\"src\":11,\"loc\":7},{\"cat\":4,\"src\":8,\"loc\":0},{\"cat\":11,\"src\":17,\"loc\":5}]","rt":19466,"sort_correct":6,"finalLocations":[[4,8,0,7],[15,17,1,0],[4,18,2,1],[4,1,3,5],[15,11,4,2],[11,17,5,8],[15,12,6,3],[11,11,7,6],[11,7,8,4]],"trial_type":"free-sort","trial_index":122,"time_elapsed":840769,"internal_node_id":"0.0-4.0-64.0","session":1,"startTime":"2020-1-6 11:40:40","attn_word":["MONKEY"],"stimulus":"sort_trial"},{"rt":2014,"stimulus":"sort_feedback","key_press":75,"trial_type":"html-keyboard-response","trial_index":123,"time_elapsed":842784,"internal_node_id":"0.0-4.0-65.0","session":1,"startTime":"2020-1-6 11:40:40","attn_word":["MONKEY"]},{"animation_sequence":"[{\"cat\":3,\"src\":13,\"loc\":6},{\"cat\":20,\"src\":18,\"loc\":8},{\"cat\":8,\"src\":5,\"loc\":7},{\"cat\":3,\"src\":14,\"loc\":5},{\"cat\":20,\"src\":19,\"loc\":3},{\"cat\":8,\"src\":3,\"loc\":4},{\"cat\":3,\"src\":2,\"loc\":1},{\"cat\":20,\"src\":6,\"loc\":2},{\"cat\":8,\"src\":17,\"loc\":0}]","condition":2,"rt":19921,"time_sequence":[1103,1102,1102,1103,1102,1101,1102,1102,1103,10001],"trial_type":"animation","trial_index":124,"time_elapsed":862706,"internal_node_id":"0.0-4.0-66.0","session":1,"startTime":"2020-1-6 11:40:40","attn_word":["MONKEY"],"stimulus":"setup2"},{"rt":556,"stimulus":"flanker_instructions","key_press":75,"trial_type":"html-keyboard-response","trial_index":125,"time_elapsed":863264,"internal_node_id":"0.0-4.0-67.0","session":1,"startTime":"2020-1-6 11:40:40","attn_word":["MONKEY"]},{"rt":null,"stimulus":"flanker_test","key_press":null,"stim_type":"congruent","direction":"left","trial_type":"image-keyboard-response","trial_index":126,"time_elapsed":865167,"internal_node_id":"0.0-4.0-68.0-0.0","session":1,"startTime":"2020-1-6 11:40:40","attn_word":["MONKEY"],"correct":false},{"rt":null,"stimulus":"flanker_test","key_press":null,"stim_type":"congruent","direction":"right","trial_type":"image-keyboard-response","trial_index":127,"time_elapsed":866429,"internal_node_id":"0.0-4.0-68.0-0.1","session":1,"startTime":"2020-1-6 11:40:40","attn_word":["MONKEY"],"correct":false},{"rt":null,"stimulus":"flanker_test","key_press":null,"stim_type":"incongruent","direction":"left","trial_type":"image-keyboard-response","trial_index":128,"time_elapsed":868013,"internal_node_id":"0.0-4.0-68.0-0.2","session":1,"startTime":"2020-1-6 11:40:40","attn_word":["MONKEY"],"correct":false},{"rt":null,"stimulus":"flanker_test","key_press":null,"stim_type":"incongruent","direction":"right","trial_type":"image-keyboard-response","trial_index":129,"time_elapsed":869786,"internal_node_id":"0.0-4.0-68.0-0.3","session":1,"startTime":"2020-1-6 11:40:40","attn_word":["MONKEY"],"correct":false},{"init_locations":"[{\"cat\":3,\"src\":13,\"x\":59,\"y\":70},{\"cat\":20,\"src\":18,\"x\":78,\"y\":301},{\"cat\":8,\"src\":5,\"x\":40,\"y\":497},{\"cat\":3,\"src\":14,\"x\":3,\"y\":383},{\"cat\":20,\"src\":19,\"x\":70,\"y\":24},{\"cat\":8,\"src\":3,\"x\":81,\"y\":133},{\"cat\":3,\"src\":2,\"x\":23,\"y\":184},{\"cat\":20,\"src\":6,\"x\":80,\"y\":433},{\"cat\":8,\"src\":17,\"x\":50,\"y\":258}]","moves":"[{\"cat\":\"3\",\"src\":\"2\",\"x\":0,\"y\":0},{\"cat\":\"3\",\"src\":\"13\",\"x\":0,\"y\":0},{\"cat\":\"20\",\"src\":\"18\",\"x\":0,\"y\":0},{\"cat\":\"8\",\"src\":\"5\",\"x\":272,\"y\":400},{\"cat\":\"8\",\"src\":\"5\",\"x\":0,\"y\":0},{\"cat\":\"3\",\"src\":\"14\",\"x\":0,\"y\":0},{\"cat\":\"20\",\"src\":\"19\",\"x\":0,\"y\":0},{\"cat\":\"8\",\"src\":\"3\",\"x\":0,\"y\":0},{\"cat\":\"20\",\"src\":\"6\",\"x\":0,\"y\":0},{\"cat\":\"8\",\"src\":\"17\",\"x\":0,\"y\":0}]","final_locations":"[{\"cat\":3,\"src\":2,\"loc\":1},{\"cat\":3,\"src\":13,\"loc\":6},{\"cat\":20,\"src\":18,\"loc\":8},{\"cat\":8,\"src\":5,\"loc\":7},{\"cat\":3,\"src\":14,\"loc\":5},{\"cat\":20,\"src\":19,\"loc\":3},{\"cat\":8,\"src\":3,\"loc\":4},{\"cat\":20,\"src\":6,\"loc\":2},{\"cat\":8,\"src\":17,\"loc\":0}]","rt":19634,"sort_correct":9,"finalLocations":[[8,17,0,8],[3,2,1,0],[20,6,2,7],[20,19,3,5],[8,3,4,6],[3,14,5,4],[3,13,6,1],[8,5,7,3],[20,18,8,2]],"trial_type":"free-sort","trial_index":130,"time_elapsed":889840,"internal_node_id":"0.0-4.0-69.0","session":1,"startTime":"2020-1-6 11:40:40","attn_word":["MONKEY"],"stimulus":"sort_trial"},{"rt":894,"stimulus":"sort_feedback","key_press":68,"trial_type":"html-keyboard-response","trial_index":131,"time_elapsed":890736,"internal_node_id":"0.0-4.0-70.0","session":1,"startTime":"2020-1-6 11:40:40","attn_word":["MONKEY"]},{"animation_sequence":"[{\"cat\":12,\"src\":3,\"loc\":5},{\"cat\":10,\"src\":10,\"loc\":6},{\"cat\":24,\"src\":5,\"loc\":2},{\"cat\":10,\"src\":16,\"loc\":7},{\"cat\":24,\"src\":15,\"loc\":1},{\"cat\":12,\"src\":17,\"loc\":4},{\"cat\":10,\"src\":14,\"loc\":8},{\"cat\":24,\"src\":0,\"loc\":0},{\"cat\":12,\"src\":19,\"loc\":3}]","condition":3,"rt":19918,"time_sequence":[1103,1101,1102,1102,1102,1101,1101,1102,1102,10002],"trial_type":"animation","trial_index":132,"time_elapsed":910654,"internal_node_id":"0.0-4.0-71.0","session":1,"startTime":"2020-1-6 11:40:40","attn_word":["MONKEY"],"stimulus":"setup3"},{"rt":571,"stimulus":"flanker_instructions","key_press":76,"trial_type":"html-keyboard-response","trial_index":133,"time_elapsed":911227,"internal_node_id":"0.0-4.0-72.0","session":1,"startTime":"2020-1-6 11:40:40","attn_word":["MONKEY"]},{"rt":null,"stimulus":"flanker_test","key_press":null,"stim_type":"congruent","direction":"right","trial_type":"image-keyboard-response","trial_index":134,"time_elapsed":913146,"internal_node_id":"0.0-4.0-73.0-0.0","session":1,"startTime":"2020-1-6 11:40:40","attn_word":["MONKEY"],"correct":false},{"rt":null,"stimulus":"flanker_test","key_press":null,"stim_type":"incongruent","direction":"right","trial_type":"image-keyboard-response","trial_index":135,"time_elapsed":914392,"internal_node_id":"0.0-4.0-73.0-0.1","session":1,"startTime":"2020-1-6 11:40:40","attn_word":["MONKEY"],"correct":false},{"rt":null,"stimulus":"flanker_test","key_press":null,"stim_type":"incongruent","direction":"left","trial_type":"image-keyboard-response","trial_index":136,"time_elapsed":916256,"internal_node_id":"0.0-4.0-73.0-0.2","session":1,"startTime":"2020-1-6 11:40:40","attn_word":["MONKEY"],"correct":false},{"rt":null,"stimulus":"flanker_test","key_press":null,"stim_type":"congruent","direction":"left","trial_type":"image-keyboard-response","trial_index":137,"time_elapsed":918179,"internal_node_id":"0.0-4.0-73.0-0.3","session":1,"startTime":"2020-1-6 11:40:40","attn_word":["MONKEY"],"correct":false},{"init_locations":"[{\"cat\":12,\"src\":3,\"x\":76,\"y\":146},{\"cat\":10,\"src\":10,\"x\":20,\"y\":3},{\"cat\":24,\"src\":5,\"x\":57,\"y\":78},{\"cat\":10,\"src\":16,\"x\":7,\"y\":437},{\"cat\":24,\"src\":15,\"x\":10,\"y\":317},{\"cat\":12,\"src\":17,\"x\":16,\"y\":378},{\"cat\":10,\"src\":14,\"x\":54,\"y\":188},{\"cat\":24,\"src\":0,\"x\":21,\"y\":502},{\"cat\":12,\"src\":19,\"x\":51,\"y\":249}]","moves":"[{\"cat\":\"10\",\"src\":\"10\",\"x\":0,\"y\":0},{\"cat\":\"10\",\"src\":\"16\",\"x\":267,\"y\":399},{\"cat\":\"10\",\"src\":\"16\",\"x\":0,\"y\":0},{\"cat\":\"12\",\"src\":\"3\",\"x\":0,\"y\":0},{\"cat\":\"24\",\"src\":\"5\",\"x\":0,\"y\":0},{\"cat\":\"24\",\"src\":\"15\",\"x\":0,\"y\":0},{\"cat\":\"10\",\"src\":\"14\",\"x\":0,\"y\":0},{\"cat\":\"12\",\"src\":\"19\",\"x\":0,\"y\":0},{\"cat\":\"12\",\"src\":\"17\",\"x\":0,\"y\":0},{\"cat\":\"24\",\"src\":\"0\",\"x\":0,\"y\":0}]","final_locations":"[{\"cat\":10,\"src\":10,\"loc\":6},{\"cat\":10,\"src\":16,\"loc\":7},{\"cat\":12,\"src\":3,\"loc\":5},{\"cat\":24,\"src\":5,\"loc\":2},{\"cat\":24,\"src\":15,\"loc\":1},{\"cat\":10,\"src\":14,\"loc\":0},{\"cat\":12,\"src\":19,\"loc\":3},{\"cat\":12,\"src\":17,\"loc\":8},{\"cat\":24,\"src\":0,\"loc\":4}]","rt":40467,"sort_correct":6,"finalLocations":[[10,14,0,5],[24,15,1,4],[24,5,2,3],[12,19,3,6],[24,0,4,8],[12,3,5,2],[10,10,6,0],[10,16,7,1],[12,17,8,7]],"trial_type":"free-sort","trial_index":138,"time_elapsed":959320,"internal_node_id":"0.0-4.0-74.0","session":1,"startTime":"2020-1-6 11:40:40","attn_word":["MONKEY"],"stimulus":"sort_trial"},{"rt":2267,"stimulus":"sort_feedback","key_press":75,"trial_type":"html-keyboard-response","trial_index":139,"time_elapsed":961589,"internal_node_id":"0.0-4.0-75.0","session":1,"startTime":"2020-1-6 11:40:40","attn_word":["MONKEY"]},{"animation_sequence":"[{\"cat\":24,\"src\":8,\"loc\":2},{\"cat\":24,\"src\":0,\"loc\":8},{\"cat\":24,\"src\":5,\"loc\":3},{\"cat\":30,\"src\":18,\"loc\":0},{\"cat\":30,\"src\":9,\"loc\":7},{\"cat\":30,\"src\":15,\"loc\":5},{\"cat\":3,\"src\":3,\"loc\":6},{\"cat\":3,\"src\":13,\"loc\":1},{\"cat\":3,\"src\":9,\"loc\":4}]","condition":4,"rt":19917,"time_sequence":[1103,1101,1102,1101,1102,1102,1101,1102,1101,10001],"trial_type":"animation","trial_index":140,"time_elapsed":981506,"internal_node_id":"0.0-4.0-76.0","session":1,"startTime":"2020-1-6 11:40:40","attn_word":["MONKEY"],"stimulus":"setup4"},{"rt":959,"stimulus":"flanker_instructions","key_press":74,"trial_type":"html-keyboard-response","trial_index":141,"time_elapsed":982466,"internal_node_id":"0.0-4.0-77.0","session":1,"startTime":"2020-1-6 11:40:40","attn_word":["MONKEY"]},{"rt":null,"stimulus":"flanker_test","key_press":null,"stim_type":"congruent","direction":"left","trial_type":"image-keyboard-response","trial_index":142,"time_elapsed":984371,"internal_node_id":"0.0-4.0-78.0-0.0","session":1,"startTime":"2020-1-6 11:40:40","attn_word":["MONKEY"],"correct":false},{"rt":null,"stimulus":"flanker_test","key_press":null,"stim_type":"incongruent","direction":"left","trial_type":"image-keyboard-response","trial_index":143,"time_elapsed":985596,"internal_node_id":"0.0-4.0-78.0-0.1","session":1,"startTime":"2020-1-6 11:40:40","attn_word":["MONKEY"],"correct":false},{"rt":null,"stimulus":"flanker_test","key_press":null,"stim_type":"incongruent","direction":"right","trial_type":"image-keyboard-response","trial_index":144,"time_elapsed":987335,"internal_node_id":"0.0-4.0-78.0-0.2","session":1,"startTime":"2020-1-6 11:40:40","attn_word":["MONKEY"],"correct":false},{"rt":null,"stimulus":"flanker_test","key_press":null,"stim_type":"congruent","direction":"right","trial_type":"image-keyboard-response","trial_index":145,"time_elapsed":988972,"internal_node_id":"0.0-4.0-78.0-0.3","session":1,"startTime":"2020-1-6 11:40:40","attn_word":["MONKEY"],"correct":false},{"init_locations":"[{\"cat\":24,\"src\":8,\"x\":30,\"y\":125},{\"cat\":24,\"src\":0,\"x\":7,\"y\":16},{\"cat\":24,\"src\":5,\"x\":43,\"y\":428},{\"cat\":30,\"src\":18,\"x\":72,\"y\":481},{\"cat\":30,\"src\":9,\"x\":73,\"y\":246},{\"cat\":30,\"src\":15,\"x\":8,\"y\":67},{\"cat\":3,\"src\":3,\"x\":56,\"y\":310},{\"cat\":3,\"src\":13,\"x\":34,\"y\":185},{\"cat\":3,\"src\":9,\"x\":11,\"y\":387}]","moves":"[{\"cat\":\"30\",\"src\":\"18\",\"x\":0,\"y\":0},{\"cat\":\"24\",\"src\":\"8\",\"x\":0,\"y\":0},{\"cat\":\"30\",\"src\":\"9\",\"x\":0,\"y\":0},{\"cat\":\"24\",\"src\":\"0\",\"x\":0,\"y\":0},{\"cat\":\"30\",\"src\":\"15\",\"x\":0,\"y\":0},{\"cat\":\"24\",\"src\":\"5\",\"x\":0,\"y\":0},{\"cat\":\"3\",\"src\":\"9\",\"x\":0,\"y\":0},{\"cat\":\"3\",\"src\":\"13\",\"x\":0,\"y\":0},{\"cat\":\"3\",\"src\":\"3\",\"x\":788,\"y\":117},{\"cat\":\"3\",\"src\":\"3\",\"x\":0,\"y\":0}]","final_locations":"[{\"cat\":30,\"src\":18,\"loc\":0},{\"cat\":24,\"src\":8,\"loc\":2},{\"cat\":30,\"src\":9,\"loc\":7},{\"cat\":24,\"src\":0,\"loc\":8},{\"cat\":30,\"src\":15,\"loc\":5},{\"cat\":24,\"src\":5,\"loc\":3},{\"cat\":3,\"src\":9,\"loc\":6},{\"cat\":3,\"src\":13,\"loc\":1},{\"cat\":3,\"src\":3,\"loc\":4}]","rt":22411,"sort_correct":7,"finalLocations":[[30,18,0,0],[3,13,1,7],[24,8,2,1],[24,5,3,5],[3,3,4,8],[30,15,5,4],[3,9,6,6],[30,9,7,2],[24,0,8,3]],"trial_type":"free-sort","trial_index":146,"time_elapsed":1012134,"internal_node_id":"0.0-4.0-79.0","session":1,"startTime":"2020-1-6 11:40:40","attn_word":["MONKEY"],"stimulus":"sort_trial"},{"rt":1504,"stimulus":"sort_feedback","key_press":32,"trial_type":"html-keyboard-response","trial_index":147,"time_elapsed":1013639,"internal_node_id":"0.0-4.0-80.0","session":1,"startTime":"2020-1-6 11:40:40","attn_word":["MONKEY"]},{"animation_sequence":"[{\"cat\":23,\"src\":15,\"loc\":7},{\"cat\":15,\"src\":5,\"loc\":0},{\"cat\":0,\"src\":11,\"loc\":4},{\"cat\":0,\"src\":5,\"loc\":2},{\"cat\":23,\"src\":17,\"loc\":3},{\"cat\":15,\"src\":8,\"loc\":6},{\"cat\":15,\"src\":2,\"loc\":5},{\"cat\":0,\"src\":0,\"loc\":8},{\"cat\":23,\"src\":8,\"loc\":1}]","condition":5,"rt":19918,"time_sequence":[1103,1101,1101,1102,1101,1102,1102,1102,1103,10001],"trial_type":"animation","trial_index":148,"time_elapsed":1033558,"internal_node_id":"0.0-4.0-81.0","session":1,"startTime":"2020-1-6 11:40:40","attn_word":["MONKEY"],"stimulus":"setup5"},{"rt":412,"stimulus":"flanker_instructions","key_press":75,"trial_type":"html-keyboard-response","trial_index":149,"time_elapsed":1033971,"internal_node_id":"0.0-4.0-82.0","session":1,"startTime":"2020-1-6 11:40:40","attn_word":["MONKEY"]},{"rt":null,"stimulus":"flanker_test","key_press":null,"stim_type":"congruent","direction":"right","trial_type":"image-keyboard-response","trial_index":150,"time_elapsed":1036204,"internal_node_id":"0.0-4.0-83.0-0.0","session":1,"startTime":"2020-1-6 11:40:40","attn_word":["MONKEY"],"correct":false},{"rt":null,"stimulus":"flanker_test","key_press":null,"stim_type":"incongruent","direction":"right","trial_type":"image-keyboard-response","trial_index":151,"time_elapsed":1037680,"internal_node_id":"0.0-4.0-83.0-0.1","session":1,"startTime":"2020-1-6 11:40:40","attn_word":["MONKEY"],"correct":false},{"rt":null,"stimulus":"flanker_test","key_press":null,"stim_type":"incongruent","direction":"left","trial_type":"image-keyboard-response","trial_index":152,"time_elapsed":1039307,"internal_node_id":"0.0-4.0-83.0-0.2","session":1,"startTime":"2020-1-6 11:40:40","attn_word":["MONKEY"],"correct":false},{"rt":null,"stimulus":"flanker_test","key_press":null,"stim_type":"congruent","direction":"left","trial_type":"image-keyboard-response","trial_index":153,"time_elapsed":1040762,"internal_node_id":"0.0-4.0-83.0-0.3","session":1,"startTime":"2020-1-6 11:40:40","attn_word":["MONKEY"],"correct":false},{"init_locations":"[{\"cat\":23,\"src\":15,\"x\":78,\"y\":139},{\"cat\":15,\"src\":5,\"x\":0,\"y\":249},{\"cat\":0,\"src\":11,\"x\":45,\"y\":377},{\"cat\":0,\"src\":5,\"x\":2,\"y\":7},{\"cat\":23,\"src\":17,\"x\":81,\"y\":484},{\"cat\":15,\"src\":8,\"x\":7,\"y\":300},{\"cat\":15,\"src\":2,\"x\":54,\"y\":443},{\"cat\":0,\"src\":0,\"x\":47,\"y\":87},{\"cat\":23,\"src\":8,\"x\":80,\"y\":201}]","moves":"[{\"cat\":\"15\",\"src\":\"5\",\"x\":0,\"y\":0},{\"cat\":\"0\",\"src\":\"5\",\"x\":0,\"y\":0},{\"cat\":\"15\",\"src\":\"8\",\"x\":0,\"y\":0},{\"cat\":\"23\",\"src\":\"15\",\"x\":0,\"y\":0},{\"cat\":\"0\",\"src\":\"0\",\"x\":0,\"y\":0},{\"cat\":\"15\",\"src\":\"2\",\"x\":0,\"y\":0},{\"cat\":\"0\",\"src\":\"11\",\"x\":0,\"y\":0},{\"cat\":\"23\",\"src\":\"17\",\"x\":742,\"y\":207},{\"cat\":\"23\",\"src\":\"8\",\"x\":0,\"y\":0},{\"cat\":\"23\",\"src\":\"17\",\"x\":0,\"y\":0}]","final_locations":"[{\"cat\":15,\"src\":5,\"loc\":0},{\"cat\":0,\"src\":5,\"loc\":2},{\"cat\":15,\"src\":8,\"loc\":6},{\"cat\":23,\"src\":15,\"loc\":7},{\"cat\":0,\"src\":0,\"loc\":8},{\"cat\":15,\"src\":2,\"loc\":5},{\"cat\":0,\"src\":11,\"loc\":4},{\"cat\":23,\"src\":8,\"loc\":1},{\"cat\":23,\"src\":17,\"loc\":3}]","rt":25493,"sort_correct":9,"finalLocations":[[15,5,0,0],[23,8,1,7],[0,5,2,1],[23,17,3,8],[0,11,4,6],[15,2,5,5],[15,8,6,2],[23,15,7,3],[0,0,8,4]],"trial_type":"free-sort","trial_index":154,"time_elapsed":1066606,"internal_node_id":"0.0-4.0-84.0","session":1,"startTime":"2020-1-6 11:40:40","attn_word":["MONKEY"],"stimulus":"sort_trial"},{"rt":1807,"stimulus":"sort_feedback","key_press":66,"trial_type":"html-keyboard-response","trial_index":155,"time_elapsed":1068414,"internal_node_id":"0.0-4.0-85.0","session":1,"startTime":"2020-1-6 11:40:40","attn_word":["MONKEY"]},{"animation_sequence":"[{\"cat\":18,\"src\":8,\"loc\":6},{\"cat\":4,\"src\":8,\"loc\":7},{\"cat\":32,\"src\":10,\"loc\":8},{\"cat\":18,\"src\":15,\"loc\":5},{\"cat\":32,\"src\":1,\"loc\":3},{\"cat\":4,\"src\":15,\"loc\":4},{\"cat\":4,\"src\":18,\"loc\":2},{\"cat\":18,\"src\":18,\"loc\":1},{\"cat\":32,\"src\":5,\"loc\":0}]","condition":2,"rt":20882,"time_sequence":[1103,1103,1102,1102,1102,1102,1101,1102,2065,10000],"trial_type":"animation","trial_index":156,"time_elapsed":1089298,"internal_node_id":"0.0-4.0-86.0","session":1,"startTime":"2020-1-6 11:40:40","attn_word":["MONKEY"],"stimulus":"setup2"},{"rt":1184,"stimulus":"flanker_instructions","key_press":75,"trial_type":"html-keyboard-response","trial_index":157,"time_elapsed":1090484,"internal_node_id":"0.0-4.0-87.0","session":1,"startTime":"2020-1-6 11:40:40","attn_word":["MONKEY"]},{"rt":null,"stimulus":"flanker_test","key_press":null,"stim_type":"incongruent","direction":"left","trial_type":"image-keyboard-response","trial_index":158,"time_elapsed":1092388,"internal_node_id":"0.0-4.0-88.0-0.0","session":1,"startTime":"2020-1-6 11:40:40","attn_word":["MONKEY"],"correct":false},{"rt":null,"stimulus":"flanker_test","key_press":null,"stim_type":"congruent","direction":"left","trial_type":"image-keyboard-response","trial_index":159,"time_elapsed":1094350,"internal_node_id":"0.0-4.0-88.0-0.1","session":1,"startTime":"2020-1-6 11:40:40","attn_word":["MONKEY"],"correct":false},{"rt":null,"stimulus":"flanker_test","key_press":null,"stim_type":"congruent","direction":"right","trial_type":"image-keyboard-response","trial_index":160,"time_elapsed":1096278,"internal_node_id":"0.0-4.0-88.0-0.2","session":1,"startTime":"2020-1-6 11:40:40","attn_word":["MONKEY"],"correct":false},{"rt":null,"stimulus":"flanker_test","key_press":null,"stim_type":"incongruent","direction":"right","trial_type":"image-keyboard-response","trial_index":161,"time_elapsed":1097842,"internal_node_id":"0.0-4.0-88.0-0.3","session":1,"startTime":"2020-1-6 11:40:40","attn_word":["MONKEY"],"correct":false},{"init_locations":"[{\"cat\":18,\"src\":8,\"x\":15,\"y\":361},{\"cat\":4,\"src\":8,\"x\":20,\"y\":73},{\"cat\":32,\"src\":10,\"x\":81,\"y\":309},{\"cat\":18,\"src\":15,\"x\":74,\"y\":146},{\"cat\":32,\"src\":1,\"x\":3,\"y\":259},{\"cat\":4,\"src\":15,\"x\":33,\"y\":192},{\"cat\":4,\"src\":18,\"x\":76,\"y\":432},{\"cat\":18,\"src\":18,\"x\":9,\"y\":9},{\"cat\":32,\"src\":5,\"x\":20,\"y\":487}]","moves":"[{\"cat\":\"18\",\"src\":\"8\",\"x\":0,\"y\":0},{\"cat\":\"4\",\"src\":\"8\",\"x\":0,\"y\":0},{\"cat\":\"32\",\"src\":\"10\",\"x\":0,\"y\":0},{\"cat\":\"32\",\"src\":\"1\",\"x\":0,\"y\":0},{\"cat\":\"18\",\"src\":\"15\",\"x\":0,\"y\":0},{\"cat\":\"4\",\"src\":\"15\",\"x\":0,\"y\":0},{\"cat\":\"18\",\"src\":\"18\",\"x\":0,\"y\":0},{\"cat\":\"4\",\"src\":\"18\",\"x\":0,\"y\":0},{\"cat\":\"32\",\"src\":\"5\",\"x\":0,\"y\":0}]","final_locations":"[{\"cat\":18,\"src\":8,\"loc\":6},{\"cat\":4,\"src\":8,\"loc\":7},{\"cat\":32,\"src\":10,\"loc\":8},{\"cat\":32,\"src\":1,\"loc\":3},{\"cat\":18,\"src\":15,\"loc\":5},{\"cat\":4,\"src\":15,\"loc\":4},{\"cat\":18,\"src\":18,\"loc\":1},{\"cat\":4,\"src\":18,\"loc\":0},{\"cat\":32,\"src\":5,\"loc\":2}]","rt":18604,"sort_correct":7,"finalLocations":[[4,18,0,7],[18,18,1,6],[32,5,2,8],[32,1,3,3],[4,15,4,5],[18,15,5,4],[18,8,6,0],[4,8,7,1],[32,10,8,2]],"trial_type":"free-sort","trial_index":162,"time_elapsed":1116973,"internal_node_id":"0.0-4.0-89.0","session":1,"startTime":"2020-1-6 11:40:40","attn_word":["MONKEY"],"stimulus":"sort_trial"},{"rt":2023,"stimulus":"sort_feedback","key_press":74,"trial_type":"html-keyboard-response","trial_index":163,"time_elapsed":1118998,"internal_node_id":"0.0-4.0-90.0","session":1,"startTime":"2020-1-6 11:40:40","attn_word":["MONKEY"]},{"animation_sequence":"[{\"cat\":0,\"src\":1,\"loc\":4},{\"cat\":0,\"src\":3,\"loc\":3},{\"cat\":0,\"src\":10,\"loc\":5},{\"cat\":22,\"src\":6,\"loc\":0},{\"cat\":22,\"src\":2,\"loc\":1},{\"cat\":22,\"src\":14,\"loc\":2},{\"cat\":21,\"src\":3,\"loc\":8},{\"cat\":21,\"src\":14,\"loc\":7},{\"cat\":21,\"src\":15,\"loc\":6}]","condition":1,"rt":19918,"time_sequence":[1102,1102,1101,1102,1101,1103,1101,1102,1102,10002],"trial_type":"animation","trial_index":164,"time_elapsed":1138917,"internal_node_id":"0.0-4.0-91.0","session":1,"startTime":"2020-1-6 11:40:40","attn_word":["MONKEY"],"stimulus":"setup1"},{"rt":470,"stimulus":"flanker_instructions","key_press":75,"trial_type":"html-keyboard-response","trial_index":165,"time_elapsed":1139388,"internal_node_id":"0.0-4.0-92.0","session":1,"startTime":"2020-1-6 11:40:40","attn_word":["MONKEY"]},{"rt":null,"stimulus":"flanker_test","key_press":null,"stim_type":"incongruent","direction":"left","trial_type":"image-keyboard-response","trial_index":166,"time_elapsed":1141291,"internal_node_id":"0.0-4.0-93.0-0.0","session":1,"startTime":"2020-1-6 11:40:40","attn_word":["MONKEY"],"correct":false},{"rt":null,"stimulus":"flanker_test","key_press":null,"stim_type":"incongruent","direction":"right","trial_type":"image-keyboard-response","trial_index":167,"time_elapsed":1143132,"internal_node_id":"0.0-4.0-93.0-0.1","session":1,"startTime":"2020-1-6 11:40:40","attn_word":["MONKEY"],"correct":false},{"rt":null,"stimulus":"flanker_test","key_press":null,"stim_type":"congruent","direction":"left","trial_type":"image-keyboard-response","trial_index":168,"time_elapsed":1144708,"internal_node_id":"0.0-4.0-93.0-0.2","session":1,"startTime":"2020-1-6 11:40:40","attn_word":["MONKEY"],"correct":false},{"rt":null,"stimulus":"flanker_test","key_press":null,"stim_type":"congruent","direction":"right","trial_type":"image-keyboard-response","trial_index":169,"time_elapsed":1146137,"internal_node_id":"0.0-4.0-93.0-0.3","session":1,"startTime":"2020-1-6 11:40:40","attn_word":["MONKEY"],"correct":false},{"init_locations":"[{\"cat\":0,\"src\":1,\"x\":49,\"y\":309},{\"cat\":0,\"src\":3,\"x\":68,\"y\":61},{\"cat\":0,\"src\":10,\"x\":48,\"y\":387},{\"cat\":22,\"src\":6,\"x\":37,\"y\":249},{\"cat\":22,\"src\":2,\"x\":41,\"y\":490},{\"cat\":22,\"src\":14,\"x\":70,\"y\":15},{\"cat\":21,\"src\":3,\"x\":60,\"y\":202},{\"cat\":21,\"src\":14,\"x\":1,\"y\":133},{\"cat\":21,\"src\":15,\"x\":54,\"y\":432}]","moves":"[{\"cat\":\"22\",\"src\":\"6\",\"x\":0,\"y\":0},{\"cat\":\"22\",\"src\":\"2\",\"x\":0,\"y\":0},{\"cat\":\"22\",\"src\":\"14\",\"x\":0,\"y\":0},{\"cat\":\"21\",\"src\":\"3\",\"x\":0,\"y\":0},{\"cat\":\"0\",\"src\":\"10\",\"x\":0,\"y\":0},{\"cat\":\"21\",\"src\":\"14\",\"x\":0,\"y\":0},{\"cat\":\"0\",\"src\":\"1\",\"x\":0,\"y\":0},{\"cat\":\"0\",\"src\":\"3\",\"x\":0,\"y\":0},{\"cat\":\"21\",\"src\":\"15\",\"x\":0,\"y\":0}]","final_locations":"[{\"cat\":22,\"src\":6,\"loc\":0},{\"cat\":22,\"src\":2,\"loc\":1},{\"cat\":22,\"src\":14,\"loc\":2},{\"cat\":21,\"src\":3,\"loc\":8},{\"cat\":0,\"src\":10,\"loc\":5},{\"cat\":21,\"src\":14,\"loc\":7},{\"cat\":0,\"src\":1,\"loc\":4},{\"cat\":0,\"src\":3,\"loc\":3},{\"cat\":21,\"src\":15,\"loc\":6}]","rt":15961,"sort_correct":9,"finalLocations":[[22,6,0,0],[22,2,1,1],[22,14,2,2],[0,3,3,7],[0,1,4,6],[0,10,5,4],[21,15,6,8],[21,14,7,5],[21,3,8,3]],"trial_type":"free-sort","trial_index":170,"time_elapsed":1162741,"internal_node_id":"0.0-4.0-94.0","session":1,"startTime":"2020-1-6 11:40:40","attn_word":["MONKEY"],"stimulus":"sort_trial"},{"rt":1422,"stimulus":"sort_feedback","key_press":74,"trial_type":"html-keyboard-response","trial_index":171,"time_elapsed":1164164,"internal_node_id":"0.0-4.0-95.0","session":1,"startTime":"2020-1-6 11:40:40","attn_word":["MONKEY"]},{"animation_sequence":"[{\"cat\":15,\"src\":11,\"loc\":4},{\"cat\":14,\"src\":13,\"loc\":6},{\"cat\":17,\"src\":4,\"loc\":1},{\"cat\":14,\"src\":8,\"loc\":7},{\"cat\":15,\"src\":9,\"loc\":5},{\"cat\":17,\"src\":7,\"loc\":0},{\"cat\":15,\"src\":14,\"loc\":3},{\"cat\":17,\"src\":19,\"loc\":2},{\"cat\":14,\"src\":18,\"loc\":8}]","condition":3,"rt":19917,"time_sequence":[1102,1101,1102,1102,1102,1102,1102,1101,1102,10001],"trial_type":"animation","trial_index":172,"time_elapsed":1184082,"internal_node_id":"0.0-4.0-96.0","session":1,"startTime":"2020-1-6 11:40:40","attn_word":["MONKEY"],"stimulus":"setup3"},{"rt":960,"stimulus":"flanker_instructions","key_press":66,"trial_type":"html-keyboard-response","trial_index":173,"time_elapsed":1185044,"internal_node_id":"0.0-4.0-97.0","session":1,"startTime":"2020-1-6 11:40:40","attn_word":["MONKEY"]},{"rt":null,"stimulus":"flanker_test","key_press":null,"stim_type":"congruent","direction":"right","trial_type":"image-keyboard-response","trial_index":174,"time_elapsed":1186948,"internal_node_id":"0.0-4.0-98.0-0.0","session":1,"startTime":"2020-1-6 11:40:40","attn_word":["MONKEY"],"correct":false},{"rt":null,"stimulus":"flanker_test","key_press":null,"stim_type":"congruent","direction":"left","trial_type":"image-keyboard-response","trial_index":175,"time_elapsed":1188808,"internal_node_id":"0.0-4.0-98.0-0.1","session":1,"startTime":"2020-1-6 11:40:40","attn_word":["MONKEY"],"correct":false},{"rt":null,"stimulus":"flanker_test","key_press":null,"stim_type":"incongruent","direction":"right","trial_type":"image-keyboard-response","trial_index":176,"time_elapsed":1190750,"internal_node_id":"0.0-4.0-98.0-0.2","session":1,"startTime":"2020-1-6 11:40:40","attn_word":["MONKEY"],"correct":false},{"rt":null,"stimulus":"flanker_test","key_press":null,"stim_type":"incongruent","direction":"left","trial_type":"image-keyboard-response","trial_index":177,"time_elapsed":1192843,"internal_node_id":"0.0-4.0-98.0-0.3","session":1,"startTime":"2020-1-6 11:40:40","attn_word":["MONKEY"],"correct":false},{"init_locations":"[{\"cat\":15,\"src\":11,\"x\":15,\"y\":137},{\"cat\":14,\"src\":13,\"x\":28,\"y\":387},{\"cat\":17,\"src\":4,\"x\":44,\"y\":495},{\"cat\":14,\"src\":8,\"x\":15,\"y\":437},{\"cat\":15,\"src\":9,\"x\":19,\"y\":25},{\"cat\":17,\"src\":7,\"x\":38,\"y\":63},{\"cat\":15,\"src\":14,\"x\":26,\"y\":314},{\"cat\":17,\"src\":19,\"x\":46,\"y\":181},{\"cat\":14,\"src\":18,\"x\":65,\"y\":258}]","moves":"[{\"cat\":\"14\",\"src\":\"18\",\"x\":0,\"y\":0},{\"cat\":\"15\",\"src\":\"11\",\"x\":863,\"y\":145},{\"cat\":\"15\",\"src\":\"11\",\"x\":0,\"y\":0},{\"cat\":\"17\",\"src\":\"4\",\"x\":0,\"y\":0},{\"cat\":\"14\",\"src\":\"8\",\"x\":0,\"y\":0},{\"cat\":\"17\",\"src\":\"7\",\"x\":0,\"y\":0},{\"cat\":\"17\",\"src\":\"19\",\"x\":0,\"y\":0},{\"cat\":\"15\",\"src\":\"14\",\"x\":345,\"y\":276},{\"cat\":\"14\",\"src\":\"13\",\"x\":0,\"y\":0},{\"cat\":\"15\",\"src\":\"14\",\"x\":0,\"y\":0},{\"cat\":\"15\",\"src\":\"9\",\"x\":0,\"y\":0}]","final_locations":"[{\"cat\":14,\"src\":18,\"loc\":8},{\"cat\":15,\"src\":11,\"loc\":4},{\"cat\":17,\"src\":4,\"loc\":1},{\"cat\":14,\"src\":8,\"loc\":7},{\"cat\":17,\"src\":7,\"loc\":0},{\"cat\":17,\"src\":19,\"loc\":2},{\"cat\":14,\"src\":13,\"loc\":5},{\"cat\":15,\"src\":14,\"loc\":6},{\"cat\":15,\"src\":9,\"loc\":3}]","rt":15447,"sort_correct":6,"finalLocations":[[17,7,0,4],[17,4,1,2],[17,19,2,5],[15,9,3,8],[15,11,4,1],[14,13,5,6],[15,14,6,7],[14,8,7,3],[14,18,8,0]],"trial_type":"free-sort","trial_index":178,"time_elapsed":1209460,"internal_node_id":"0.0-4.0-99.0","session":1,"startTime":"2020-1-6 11:40:40","attn_word":["MONKEY"],"stimulus":"sort_trial"},{"rt":1493,"stimulus":"sort_feedback","key_press":74,"trial_type":"html-keyboard-response","trial_index":179,"time_elapsed":1210955,"internal_node_id":"0.0-4.0-100.0","session":1,"startTime":"2020-1-6 11:40:40","attn_word":["MONKEY"]},{"rt":null,"stimulus":"breakStart","key_press":null,"trial_type":"html-keyboard-response","trial_index":180,"time_elapsed":1240957,"internal_node_id":"0.0-5.0-0.0","session":1,"startTime":"2020-1-6 11:40:40","attn_word":["MONKEY"]},{"rt":1292,"stimulus":"breakEnd","button_pressed":"0","trial_type":"html-button-response","trial_index":181,"time_elapsed":1242252,"internal_node_id":"0.0-5.0-1.0","session":1,"startTime":"2020-1-6 11:40:40","attn_word":["MONKEY"]},{"animation_sequence":"[{\"cat\":31,\"src\":14,\"loc\":5},{\"cat\":0,\"src\":4,\"loc\":3},{\"cat\":22,\"src\":19,\"loc\":4},{\"cat\":22,\"src\":14,\"loc\":6},{\"cat\":0,\"src\":18,\"loc\":7},{\"cat\":31,\"src\":5,\"loc\":8},{\"cat\":0,\"src\":12,\"loc\":0},{\"cat\":31,\"src\":18,\"loc\":2},{\"cat\":22,\"src\":12,\"loc\":1}]","condition":2,"rt":19914,"time_sequence":[1102,1102,1101,1102,1101,1102,1101,1102,1101,10000],"trial_type":"animation","trial_index":182,"time_elapsed":1262167,"internal_node_id":"0.0-6.0-0.0","session":1,"startTime":"2020-1-6 11:40:40","attn_word":["MONKEY"],"stimulus":"setup2"},{"rt":199,"stimulus":"flanker_instructions","key_press":70,"trial_type":"html-keyboard-response","trial_index":183,"time_elapsed":1262367,"internal_node_id":"0.0-6.0-1.0","session":1,"startTime":"2020-1-6 11:40:40","attn_word":["MONKEY"]},{"rt":null,"stimulus":"flanker_test","key_press":null,"stim_type":"congruent","direction":"left","trial_type":"image-keyboard-response","trial_index":184,"time_elapsed":1264271,"internal_node_id":"0.0-6.0-2.0-0.0","session":1,"startTime":"2020-1-6 11:40:40","attn_word":["MONKEY"],"correct":false},{"rt":null,"stimulus":"flanker_test","key_press":null,"stim_type":"incongruent","direction":"right","trial_type":"image-keyboard-response","trial_index":185,"time_elapsed":1265559,"internal_node_id":"0.0-6.0-2.0-0.1","session":1,"startTime":"2020-1-6 11:40:40","attn_word":["MONKEY"],"correct":false},{"rt":null,"stimulus":"flanker_test","key_press":null,"stim_type":"congruent","direction":"right","trial_type":"image-keyboard-response","trial_index":186,"time_elapsed":1267657,"internal_node_id":"0.0-6.0-2.0-0.2","session":1,"startTime":"2020-1-6 11:40:40","attn_word":["MONKEY"],"correct":false},{"rt":null,"stimulus":"flanker_test","key_press":null,"stim_type":"incongruent","direction":"left","trial_type":"image-keyboard-response","trial_index":187,"time_elapsed":1269271,"internal_node_id":"0.0-6.0-2.0-0.3","session":1,"startTime":"2020-1-6 11:40:40","attn_word":["MONKEY"],"correct":false},{"init_locations":"[{\"cat\":31,\"src\":14,\"x\":2,\"y\":486},{\"cat\":0,\"src\":4,\"x\":26,\"y\":437},{\"cat\":22,\"src\":19,\"x\":78,\"y\":253},{\"cat\":22,\"src\":14,\"x\":49,\"y\":1},{\"cat\":0,\"src\":18,\"x\":57,\"y\":191},{\"cat\":31,\"src\":5,\"x\":76,\"y\":324},{\"cat\":0,\"src\":12,\"x\":5,\"y\":369},{\"cat\":31,\"src\":18,\"x\":76,\"y\":136},{\"cat\":22,\"src\":12,\"x\":70,\"y\":77}]","moves":"[{\"cat\":\"31\",\"src\":\"5\",\"x\":0,\"y\":0},{\"cat\":\"22\",\"src\":\"14\",\"x\":0,\"y\":0},{\"cat\":\"0\",\"src\":\"18\",\"x\":0,\"y\":0},{\"cat\":\"31\",\"src\":\"14\",\"x\":0,\"y\":0},{\"cat\":\"22\",\"src\":\"19\",\"x\":0,\"y\":0},{\"cat\":\"0\",\"src\":\"4\",\"x\":0,\"y\":0},{\"cat\":\"31\",\"src\":\"18\",\"x\":0,\"y\":0},{\"cat\":\"0\",\"src\":\"12\",\"x\":0,\"y\":0},{\"cat\":\"22\",\"src\":\"12\",\"x\":0,\"y\":0}]","final_locations":"[{\"cat\":31,\"src\":5,\"loc\":8},{\"cat\":22,\"src\":14,\"loc\":6},{\"cat\":0,\"src\":18,\"loc\":7},{\"cat\":31,\"src\":14,\"loc\":5},{\"cat\":22,\"src\":19,\"loc\":4},{\"cat\":0,\"src\":4,\"loc\":3},{\"cat\":31,\"src\":18,\"loc\":2},{\"cat\":0,\"src\":12,\"loc\":0},{\"cat\":22,\"src\":12,\"loc\":1}]","rt":48651,"sort_correct":9,"finalLocations":[[0,12,0,7],[22,12,1,8],[31,18,2,6],[0,4,3,5],[22,19,4,4],[31,14,5,3],[22,14,6,1],[0,18,7,2],[31,5,8,0]],"trial_type":"free-sort","trial_index":188,"time_elapsed":1318539,"internal_node_id":"0.0-6.0-3.0","session":1,"startTime":"2020-1-6 11:40:40","attn_word":["MONKEY"],"stimulus":"sort_trial"},{"rt":1637,"stimulus":"sort_feedback","key_press":75,"trial_type":"html-keyboard-response","trial_index":189,"time_elapsed":1320179,"internal_node_id":"0.0-6.0-4.0","session":1,"startTime":"2020-1-6 11:40:40","attn_word":["MONKEY"]},{"animation_sequence":"[{\"cat\":8,\"src\":13,\"loc\":4},{\"cat\":8,\"src\":9,\"loc\":3},{\"cat\":8,\"src\":14,\"loc\":5},{\"cat\":14,\"src\":10,\"loc\":6},{\"cat\":14,\"src\":13,\"loc\":7},{\"cat\":14,\"src\":2,\"loc\":8},{\"cat\":2,\"src\":13,\"loc\":2},{\"cat\":2,\"src\":12,\"loc\":1},{\"cat\":2,\"src\":14,\"loc\":0}]","condition":1,"rt":19916,"time_sequence":[1102,1102,1101,1102,1102,1102,1101,1101,1102,10001],"trial_type":"animation","trial_index":190,"time_elapsed":1340096,"internal_node_id":"0.0-6.0-5.0","session":1,"startTime":"2020-1-6 11:40:40","attn_word":["MONKEY"],"stimulus":"setup1"},{"rt":420,"stimulus":"flanker_instructions","key_press":75,"trial_type":"html-keyboard-response","trial_index":191,"time_elapsed":1340518,"internal_node_id":"0.0-6.0-6.0","session":1,"startTime":"2020-1-6 11:40:40","attn_word":["MONKEY"]},{"rt":null,"stimulus":"flanker_test","key_press":null,"stim_type":"congruent","direction":"left","trial_type":"image-keyboard-response","trial_index":192,"time_elapsed":1342422,"internal_node_id":"0.0-6.0-7.0-0.0","session":1,"startTime":"2020-1-6 11:40:40","attn_word":["MONKEY"],"correct":false},{"rt":null,"stimulus":"flanker_test","key_press":null,"stim_type":"congruent","direction":"right","trial_type":"image-keyboard-response","trial_index":193,"time_elapsed":1343754,"internal_node_id":"0.0-6.0-7.0-0.1","session":1,"startTime":"2020-1-6 11:40:40","attn_word":["MONKEY"],"correct":false},{"rt":null,"stimulus":"flanker_test","key_press":null,"stim_type":"incongruent","direction":"right","trial_type":"image-keyboard-response","trial_index":194,"time_elapsed":1345816,"internal_node_id":"0.0-6.0-7.0-0.2","session":1,"startTime":"2020-1-6 11:40:40","attn_word":["MONKEY"],"correct":false},{"rt":null,"stimulus":"flanker_test","key_press":null,"stim_type":"incongruent","direction":"left","trial_type":"image-keyboard-response","trial_index":195,"time_elapsed":1347719,"internal_node_id":"0.0-6.0-7.0-0.3","session":1,"startTime":"2020-1-6 11:40:40","attn_word":["MONKEY"],"correct":false},{"init_locations":"[{\"cat\":8,\"src\":13,\"x\":65,\"y\":325},{\"cat\":8,\"src\":9,\"x\":62,\"y\":490},{\"cat\":8,\"src\":14,\"x\":7,\"y\":11},{\"cat\":14,\"src\":10,\"x\":22,\"y\":373},{\"cat\":14,\"src\":13,\"x\":44,\"y\":182},{\"cat\":14,\"src\":2,\"x\":72,\"y\":247},{\"cat\":2,\"src\":13,\"x\":17,\"y\":132},{\"cat\":2,\"src\":12,\"x\":16,\"y\":421},{\"cat\":2,\"src\":14,\"x\":77,\"y\":85}]","moves":"[{\"cat\":\"14\",\"src\":\"13\",\"x\":0,\"y\":0},{\"cat\":\"14\",\"src\":\"10\",\"x\":0,\"y\":0},{\"cat\":\"14\",\"src\":\"2\",\"x\":0,\"y\":0},{\"cat\":\"8\",\"src\":\"9\",\"x\":0,\"y\":0},{\"cat\":\"8\",\"src\":\"13\",\"x\":0,\"y\":0},{\"cat\":\"8\",\"src\":\"14\",\"x\":0,\"y\":0},{\"cat\":\"2\",\"src\":\"12\",\"x\":0,\"y\":0},{\"cat\":\"2\",\"src\":\"13\",\"x\":327,\"y\":167},{\"cat\":\"2\",\"src\":\"14\",\"x\":0,\"y\":0},{\"cat\":\"2\",\"src\":\"13\",\"x\":0,\"y\":0}]","final_locations":"[{\"cat\":14,\"src\":13,\"loc\":7},{\"cat\":14,\"src\":10,\"loc\":6},{\"cat\":14,\"src\":2,\"loc\":8},{\"cat\":8,\"src\":9,\"loc\":3},{\"cat\":8,\"src\":13,\"loc\":4},{\"cat\":8,\"src\":14,\"loc\":5},{\"cat\":2,\"src\":12,\"loc\":0},{\"cat\":2,\"src\":14,\"loc\":1},{\"cat\":2,\"src\":13,\"loc\":2}]","rt":17192,"sort_correct":7,"finalLocations":[[2,12,0,6],[2,14,1,7],[2,13,2,8],[8,9,3,3],[8,13,4,4],[8,14,5,5],[14,10,6,1],[14,13,7,0],[14,2,8,2]],"trial_type":"free-sort","trial_index":196,"time_elapsed":1366010,"internal_node_id":"0.0-6.0-8.0","session":1,"startTime":"2020-1-6 11:40:40","attn_word":["MONKEY"],"stimulus":"sort_trial"},{"rt":1301,"stimulus":"sort_feedback","key_press":75,"trial_type":"html-keyboard-response","trial_index":197,"time_elapsed":1367313,"internal_node_id":"0.0-6.0-9.0","session":1,"startTime":"2020-1-6 11:40:40","attn_word":["MONKEY"]},{"animation_sequence":"[{\"cat\":20,\"src\":15,\"loc\":0},{\"cat\":20,\"src\":8,\"loc\":7},{\"cat\":20,\"src\":11,\"loc\":4},{\"cat\":3,\"src\":13,\"loc\":6},{\"cat\":3,\"src\":15,\"loc\":1},{\"cat\":3,\"src\":8,\"loc\":3},{\"cat\":24,\"src\":12,\"loc\":8},{\"cat\":24,\"src\":17,\"loc\":5},{\"cat\":24,\"src\":1,\"loc\":2}]","condition":4,"rt":19915,"time_sequence":[1102,1102,1101,1102,1102,1101,1101,1101,1103,10000],"trial_type":"animation","trial_index":198,"time_elapsed":1387228,"internal_node_id":"0.0-6.0-10.0","session":1,"startTime":"2020-1-6 11:40:40","attn_word":["MONKEY"],"stimulus":"setup4"},{"rt":616,"stimulus":"flanker_instructions","key_press":75,"trial_type":"html-keyboard-response","trial_index":199,"time_elapsed":1387845,"internal_node_id":"0.0-6.0-11.0","session":1,"startTime":"2020-1-6 11:40:40","attn_word":["MONKEY"]},{"rt":null,"stimulus":"flanker_test","key_press":null,"stim_type":"incongruent","direction":"left","trial_type":"image-keyboard-response","trial_index":200,"time_elapsed":1389748,"internal_node_id":"0.0-6.0-12.0-0.0","session":1,"startTime":"2020-1-6 11:40:40","attn_word":["MONKEY"],"correct":false},{"rt":null,"stimulus":"flanker_test","key_press":null,"stim_type":"congruent","direction":"left","trial_type":"image-keyboard-response","trial_index":201,"time_elapsed":1391255,"internal_node_id":"0.0-6.0-12.0-0.1","session":1,"startTime":"2020-1-6 11:40:40","attn_word":["MONKEY"],"correct":false},{"rt":null,"stimulus":"flanker_test","key_press":null,"stim_type":"incongruent","direction":"right","trial_type":"image-keyboard-response","trial_index":202,"time_elapsed":1392535,"internal_node_id":"0.0-6.0-12.0-0.2","session":1,"startTime":"2020-1-6 11:40:40","attn_word":["MONKEY"],"correct":false},{"rt":null,"stimulus":"flanker_test","key_press":null,"stim_type":"congruent","direction":"right","trial_type":"image-keyboard-response","trial_index":203,"time_elapsed":1394042,"internal_node_id":"0.0-6.0-12.0-0.3","session":1,"startTime":"2020-1-6 11:40:40","attn_word":["MONKEY"],"correct":false},{"init_locations":"[{\"cat\":20,\"src\":15,\"x\":8,\"y\":240},{\"cat\":20,\"src\":8,\"x\":4,\"y\":383},{\"cat\":20,\"src\":11,\"x\":0,\"y\":120},{\"cat\":3,\"src\":13,\"x\":15,\"y\":19},{\"cat\":3,\"src\":15,\"x\":34,\"y\":434},{\"cat\":3,\"src\":8,\"x\":58,\"y\":320},{\"cat\":24,\"src\":12,\"x\":1,\"y\":201},{\"cat\":24,\"src\":17,\"x\":20,\"y\":490},{\"cat\":24,\"src\":1,\"x\":14,\"y\":88}]","moves":"[{\"cat\":\"20\",\"src\":\"15\",\"x\":0,\"y\":0},{\"cat\":\"3\",\"src\":\"15\",\"x\":398,\"y\":81},{\"cat\":\"3\",\"src\":\"15\",\"x\":0,\"y\":0},{\"cat\":\"20\",\"src\":\"8\",\"x\":0,\"y\":0},{\"cat\":\"3\",\"src\":\"13\",\"x\":0,\"y\":0},{\"cat\":\"20\",\"src\":\"11\",\"x\":0,\"y\":0},{\"cat\":\"3\",\"src\":\"8\",\"x\":0,\"y\":0},{\"cat\":\"24\",\"src\":\"12\",\"x\":471,\"y\":320},{\"cat\":\"24\",\"src\":\"17\",\"x\":413,\"y\":236},{\"cat\":\"24\",\"src\":\"12\",\"x\":394,\"y\":169},{\"cat\":\"24\",\"src\":\"17\",\"x\":0,\"y\":0},{\"cat\":\"24\",\"src\":\"12\",\"x\":0,\"y\":0},{\"cat\":\"24\",\"src\":\"1\",\"x\":0,\"y\":0}]","final_locations":"[{\"cat\":20,\"src\":15,\"loc\":0},{\"cat\":3,\"src\":15,\"loc\":1},{\"cat\":20,\"src\":8,\"loc\":7},{\"cat\":3,\"src\":13,\"loc\":6},{\"cat\":20,\"src\":11,\"loc\":4},{\"cat\":3,\"src\":8,\"loc\":3},{\"cat\":24,\"src\":17,\"loc\":8},{\"cat\":24,\"src\":12,\"loc\":2},{\"cat\":24,\"src\":1,\"loc\":5}]","rt":24013,"sort_correct":6,"finalLocations":[[20,15,0,0],[3,15,1,1],[24,12,2,7],[3,8,3,5],[20,11,4,4],[24,1,5,8],[3,13,6,3],[20,8,7,2],[24,17,8,6]],"trial_type":"free-sort","trial_index":204,"time_elapsed":1418961,"internal_node_id":"0.0-6.0-13.0","session":1,"startTime":"2020-1-6 11:40:40","attn_word":["MONKEY"],"stimulus":"sort_trial"},{"rt":1288,"stimulus":"sort_feedback","key_press":75,"trial_type":"html-keyboard-response","trial_index":205,"time_elapsed":1420251,"internal_node_id":"0.0-6.0-14.0","session":1,"startTime":"2020-1-6 11:40:40","attn_word":["MONKEY"]},{"animation_sequence":"[{\"cat\":20,\"src\":12,\"loc\":7},{\"cat\":13,\"src\":16,\"loc\":1},{\"cat\":19,\"src\":9,\"loc\":3},{\"cat\":19,\"src\":0,\"loc\":4},{\"cat\":13,\"src\":15,\"loc\":0},{\"cat\":20,\"src\":10,\"loc\":6},{\"cat\":19,\"src\":10,\"loc\":5},{\"cat\":20,\"src\":14,\"loc\":8},{\"cat\":13,\"src\":6,\"loc\":2}]","condition":3,"rt":21671,"time_sequence":[1103,1945,2010,1102,1102,1102,1102,1101,1103,10001],"trial_type":"animation","trial_index":206,"time_elapsed":1441922,"internal_node_id":"0.0-6.0-15.0","session":1,"startTime":"2020-1-6 11:40:40","attn_word":["MONKEY"],"stimulus":"setup3"},{"rt":328,"stimulus":"flanker_instructions","key_press":32,"trial_type":"html-keyboard-response","trial_index":207,"time_elapsed":1442251,"internal_node_id":"0.0-6.0-16.0","session":1,"startTime":"2020-1-6 11:40:40","attn_word":["MONKEY"]},{"rt":null,"stimulus":"flanker_test","key_press":null,"stim_type":"congruent","direction":"right","trial_type":"image-keyboard-response","trial_index":208,"time_elapsed":1444154,"internal_node_id":"0.0-6.0-17.0-0.0","session":1,"startTime":"2020-1-6 11:40:40","attn_word":["MONKEY"],"correct":false},{"rt":null,"stimulus":"flanker_test","key_press":null,"stim_type":"congruent","direction":"left","trial_type":"image-keyboard-response","trial_index":209,"time_elapsed":1445649,"internal_node_id":"0.0-6.0-17.0-0.1","session":1,"startTime":"2020-1-6 11:40:40","attn_word":["MONKEY"],"correct":false},{"rt":null,"stimulus":"flanker_test","key_press":null,"stim_type":"incongruent","direction":"left","trial_type":"image-keyboard-response","trial_index":210,"time_elapsed":1447131,"internal_node_id":"0.0-6.0-17.0-0.2","session":1,"startTime":"2020-1-6 11:40:40","attn_word":["MONKEY"],"correct":false},{"rt":null,"stimulus":"flanker_test","key_press":null,"stim_type":"incongruent","direction":"right","trial_type":"image-keyboard-response","trial_index":211,"time_elapsed":1449001,"internal_node_id":"0.0-6.0-17.0-0.3","session":1,"startTime":"2020-1-6 11:40:40","attn_word":["MONKEY"],"correct":false},{"init_locations":"[{\"cat\":20,\"src\":12,\"x\":10,\"y\":132},{\"cat\":13,\"src\":16,\"x\":15,\"y\":256},{\"cat\":19,\"src\":9,\"x\":77,\"y\":19},{\"cat\":19,\"src\":0,\"x\":39,\"y\":187},{\"cat\":13,\"src\":15,\"x\":53,\"y\":483},{\"cat\":20,\"src\":10,\"x\":35,\"y\":444},{\"cat\":19,\"src\":10,\"x\":70,\"y\":68},{\"cat\":20,\"src\":14,\"x\":37,\"y\":370},{\"cat\":13,\"src\":6,\"x\":54,\"y\":304}]","moves":"[{\"cat\":\"20\",\"src\":\"10\",\"x\":0,\"y\":0},{\"cat\":\"20\",\"src\":\"12\",\"x\":0,\"y\":0},{\"cat\":\"13\",\"src\":\"15\",\"x\":0,\"y\":0},{\"cat\":\"13\",\"src\":\"16\",\"x\":0,\"y\":0},{\"cat\":\"13\",\"src\":\"6\",\"x\":0,\"y\":0},{\"cat\":\"20\",\"src\":\"14\",\"x\":0,\"y\":0},{\"cat\":\"19\",\"src\"