{"_id":{"$oid":"5e15e69ddec13a000484f134"},"data":[{"rt":21257,"stimulus":"welcome","key_press":32,"trial_type":"html-keyboard-response","trial_index":0,"time_elapsed":21265,"internal_node_id":"0.0-0.0","session":3,"startTime":"2020-1-8 8:35:34","attn_word":["LION"]},{"rt":7903,"stimulus":"consent","button_pressed":"0","trial_type":"html-button-response","trial_index":1,"time_elapsed":29172,"internal_node_id":"0.0-1.0","session":3,"startTime":"2020-1-8 8:35:34","attn_word":["LION"]},{"view_history":"[{\"page_index\":0,\"viewing_time\":3719},{\"page_index\":1,\"viewing_time\":6297},{\"page_index\":2,\"viewing_time\":3187},{\"page_index\":3,\"viewing_time\":4588},{\"page_index\":4,\"viewing_time\":8754},{\"page_index\":5,\"viewing_time\":28173}]","rt":54719,"trial_type":"instructions","trial_index":2,"time_elapsed":83893,"internal_node_id":"0.0-2.0","session":3,"startTime":"2020-1-8 8:35:34","attn_word":["LION"],"stimulus":"instructions"},{"rt":2625,"stimulus":"finalInstructions","button_pressed":"0","trial_type":"html-button-response","trial_index":3,"time_elapsed":86520,"internal_node_id":"0.0-3.0-0.0","session":3,"startTime":"2020-1-8 8:35:34","attn_word":["LION"]},{"animation_sequence":"[{\"cat\":20,\"src\":5,\"loc\":7},{\"cat\":20,\"src\":17,\"loc\":8},{\"cat\":20,\"src\":12,\"loc\":6},{\"cat\":24,\"src\":19,\"loc\":0},{\"cat\":24,\"src\":15,\"loc\":2},{\"cat\":24,\"src\":0,\"loc\":1},{\"cat\":6,\"src\":6,\"loc\":5},{\"cat\":6,\"src\":4,\"loc\":3},{\"cat\":6,\"src\":16,\"loc\":4}]","condition":1,"rt":19971,"time_sequence":[1107,1103,1103,1102,1114,1103,1110,1104,1112,10013],"trial_type":"animation","trial_index":4,"time_elapsed":106493,"internal_node_id":"0.0-3.0-1.0","session":3,"startTime":"2020-1-8 8:35:34","attn_word":["LION"],"stimulus":"setup1"},{"rt":2415,"stimulus":"flanker_instructions","key_press":39,"trial_type":"html-keyboard-response","trial_index":5,"time_elapsed":108912,"internal_node_id":"0.0-3.0-2.0","session":3,"startTime":"2020-1-8 8:35:34","attn_word":["LION"]},{"rt":528,"stimulus":"flanker_test","key_press":37,"stim_type":"congruent","direction":"left","trial_type":"image-keyboard-response","trial_index":6,"time_elapsed":110453,"internal_node_id":"0.0-3.0-3.0-0.0","session":3,"startTime":"2020-1-8 8:35:34","attn_word":["LION"],"correct":true},{"rt":656,"stimulus":"flanker_test","key_press":39,"stim_type":"incongruent","direction":"left","trial_type":"image-keyboard-response","trial_index":7,"time_elapsed":111742,"internal_node_id":"0.0-3.0-3.0-0.1","session":3,"startTime":"2020-1-8 8:35:34","attn_word":["LION"],"correct":false},{"rt":682,"stimulus":"flanker_test","key_press":39,"stim_type":"congruent","direction":"right","trial_type":"image-keyboard-response","trial_index":8,"time_elapsed":113270,"internal_node_id":"0.0-3.0-3.0-0.2","session":3,"startTime":"2020-1-8 8:35:34","attn_word":["LION"],"correct":true},{"rt":745,"stimulus":"flanker_test","key_press":39,"stim_type":"incongruent","direction":"right","trial_type":"image-keyboard-response","trial_index":9,"time_elapsed":115054,"internal_node_id":"0.0-3.0-3.0-0.3","session":3,"startTime":"2020-1-8 8:35:34","attn_word":["LION"],"correct":true},{"init_locations":"[{\"cat\":20,\"src\":5,\"x\":63,\"y\":192},{\"cat\":20,\"src\":17,\"x\":79,\"y\":436},{\"cat\":20,\"src\":12,\"x\":59,\"y\":325},{\"cat\":24,\"src\":19,\"x\":7,\"y\":22},{\"cat\":24,\"src\":15,\"x\":31,\"y\":367},{\"cat\":24,\"src\":0,\"x\":8,\"y\":146},{\"cat\":6,\"src\":6,\"x\":31,\"y\":74},{\"cat\":6,\"src\":4,\"x\":10,\"y\":496},{\"cat\":6,\"src\":16,\"x\":0,\"y\":264}]","moves":"[{\"cat\":\"24\",\"src\":\"19\",\"x\":0,\"y\":0},{\"cat\":\"24\",\"src\":\"0\",\"x\":0,\"y\":0},{\"cat\":\"24\",\"src\":\"15\",\"x\":181,\"y\":264},{\"cat\":\"24\",\"src\":\"15\",\"x\":0,\"y\":0},{\"cat\":\"6\",\"src\":\"6\",\"x\":0,\"y\":0},{\"cat\":\"6\",\"src\":\"16\",\"x\":0,\"y\":0},{\"cat\":\"6\",\"src\":\"4\",\"x\":0,\"y\":0},{\"cat\":\"20\",\"src\":\"12\",\"x\":0,\"y\":0},{\"cat\":\"20\",\"src\":\"5\",\"x\":0,\"y\":0},{\"cat\":\"20\",\"src\":\"17\",\"x\":0,\"y\":0}]","final_locations":"[{\"cat\":24,\"src\":19,\"loc\":0},{\"cat\":24,\"src\":0,\"loc\":1},{\"cat\":24,\"src\":15,\"loc\":2},{\"cat\":6,\"src\":6,\"loc\":5},{\"cat\":6,\"src\":16,\"loc\":4},{\"cat\":6,\"src\":4,\"loc\":3},{\"cat\":20,\"src\":12,\"loc\":6},{\"cat\":20,\"src\":5,\"loc\":7},{\"cat\":20,\"src\":17,\"loc\":8}]","rt":48398,"sort_correct":9,"finalLocations":[[24,19,0,0],[24,0,1,1],[24,15,2,2],[6,4,3,5],[6,16,4,4],[6,6,5,3],[20,12,6,6],[20,5,7,7],[20,17,8,8]],"trial_type":"free-sort","trial_index":10,"time_elapsed":163986,"internal_node_id":"0.0-3.0-4.0","session":3,"startTime":"2020-1-8 8:35:34","attn_word":["LION"],"stimulus":"sort_trial"},{"rt":9504,"stimulus":"sort_feedback","key_press":32,"trial_type":"html-keyboard-response","trial_index":11,"time_elapsed":173494,"internal_node_id":"0.0-3.0-5.0","session":3,"startTime":"2020-1-8 8:35:34","attn_word":["LION"]},{"animation_sequence":"[{\"cat\":7,\"src\":8,\"loc\":2},{\"cat\":7,\"src\":5,\"loc\":7},{\"cat\":7,\"src\":3,\"loc\":3},{\"cat\":24,\"src\":3,\"loc\":1},{\"cat\":24,\"src\":19,\"loc\":5},{\"cat\":24,\"src\":4,\"loc\":8},{\"cat\":26,\"src\":3,\"loc\":4},{\"cat\":26,\"src\":16,\"loc\":6},{\"cat\":26,\"src\":11,\"loc\":0}]","condition":4,"rt":20013,"time_sequence":[1106,1117,1114,1102,1105,1117,1109,1113,1118,10011],"trial_type":"animation","trial_index":12,"time_elapsed":193509,"internal_node_id":"0.0-3.0-6.0","session":3,"startTime":"2020-1-8 8:35:34","attn_word":["LION"],"stimulus":"setup4"},{"rt":27249,"stimulus":"flanker_instructions","key_press":39,"trial_type":"html-keyboard-response","trial_index":13,"time_elapsed":220763,"internal_node_id":"0.0-3.0-7.0","session":3,"startTime":"2020-1-8 8:35:34","attn_word":["LION"]},{"rt":null,"stimulus":"flanker_test","key_press":null,"stim_type":"incongruent","direction":"right","trial_type":"image-keyboard-response","trial_index":14,"time_elapsed":222685,"internal_node_id":"0.0-3.0-8.0-0.0","session":3,"startTime":"2020-1-8 8:35:34","attn_word":["LION"],"correct":false},{"rt":561,"stimulus":"flanker_test","key_press":39,"stim_type":"congruent","direction":"right","trial_type":"image-keyboard-response","trial_index":15,"time_elapsed":224108,"internal_node_id":"0.0-3.0-8.0-0.1","session":3,"startTime":"2020-1-8 8:35:34","attn_word":["LION"],"correct":true},{"rt":485,"stimulus":"flanker_test","key_press":37,"stim_type":"congruent","direction":"left","trial_type":"image-keyboard-response","trial_index":16,"time_elapsed":225768,"internal_node_id":"0.0-3.0-8.0-0.2","session":3,"startTime":"2020-1-8 8:35:34","attn_word":["LION"],"correct":true},{"rt":507,"stimulus":"flanker_test","key_press":37,"stim_type":"incongruent","direction":"left","trial_type":"image-keyboard-response","trial_index":17,"time_elapsed":226695,"internal_node_id":"0.0-3.0-8.0-0.3","session":3,"startTime":"2020-1-8 8:35:34","attn_word":["LION"],"correct":true},{"init_locations":"[{\"cat\":7,\"src\":8,\"x\":82,\"y\":445},{\"cat\":7,\"src\":5,\"x\":55,\"y\":1},{\"cat\":7,\"src\":3,\"x\":52,\"y\":385},{\"cat\":24,\"src\":3,\"x\":79,\"y\":481},{\"cat\":24,\"src\":19,\"x\":63,\"y\":139},{\"cat\":24,\"src\":4,\"x\":34,\"y\":262},{\"cat\":26,\"src\":3,\"x\":13,\"y\":182},{\"cat\":26,\"src\":16,\"x\":2,\"y\":87},{\"cat\":26,\"src\":11,\"x\":26,\"y\":310}]","moves":"[{\"cat\":\"24\",\"src\":\"3\",\"x\":0,\"y\":0},{\"cat\":\"26\",\"src\":\"11\",\"x\":0,\"y\":0},{\"cat\":\"7\",\"src\":\"8\",\"x\":0,\"y\":0},{\"cat\":\"24\",\"src\":\"19\",\"x\":0,\"y\":0},{\"cat\":\"26\",\"src\":\"3\",\"x\":0,\"y\":0},{\"cat\":\"7\",\"src\":\"3\",\"x\":0,\"y\":0},{\"cat\":\"26\",\"src\":\"16\",\"x\":0,\"y\":0},{\"cat\":\"24\",\"src\":\"4\",\"x\":0,\"y\":0},{\"cat\":\"7\",\"src\":\"5\",\"x\":0,\"y\":0}]","final_locations":"[{\"cat\":24,\"src\":3,\"loc\":1},{\"cat\":26,\"src\":11,\"loc\":0},{\"cat\":7,\"src\":8,\"loc\":2},{\"cat\":24,\"src\":19,\"loc\":5},{\"cat\":26,\"src\":3,\"loc\":4},{\"cat\":7,\"src\":3,\"loc\":3},{\"cat\":26,\"src\":16,\"loc\":6},{\"cat\":24,\"src\":4,\"loc\":8},{\"cat\":7,\"src\":5,\"loc\":7}]","rt":57196,"sort_correct":9,"finalLocations":[[26,11,0,1],[24,3,1,0],[7,8,2,2],[7,3,3,5],[26,3,4,4],[24,19,5,3],[26,16,6,6],[7,5,7,8],[24,4,8,7]],"trial_type":"free-sort","trial_index":18,"time_elapsed":284610,"internal_node_id":"0.0-3.0-9.0","session":3,"startTime":"2020-1-8 8:35:34","attn_word":["LION"],"stimulus":"sort_trial"},{"rt":8752,"stimulus":"sort_feedback","key_press":32,"trial_type":"html-keyboard-response","trial_index":19,"time_elapsed":293366,"internal_node_id":"0.0-3.0-10.0","session":3,"startTime":"2020-1-8 8:35:34","attn_word":["LION"]},{"animation_sequence":"[{\"cat\":24,\"src\":1,\"loc\":8},{\"cat\":9,\"src\":10,\"loc\":4},{\"cat\":16,\"src\":10,\"loc\":2},{\"cat\":9,\"src\":6,\"loc\":7},{\"cat\":16,\"src\":17,\"loc\":5},{\"cat\":24,\"src\":11,\"loc\":1},{\"cat\":16,\"src\":18,\"loc\":6},{\"cat\":24,\"src\":0,\"loc\":3},{\"cat\":9,\"src\":18,\"loc\":0}]","condition":5,"rt":20021,"time_sequence":[1113,1116,1104,1116,1119,1113,1102,1117,1113,10008],"trial_type":"animation","trial_index":20,"time_elapsed":313389,"internal_node_id":"0.0-3.0-11.0","session":3,"startTime":"2020-1-8 8:35:34","attn_word":["LION"],"stimulus":"setup5"},{"rt":3057,"stimulus":"flanker_instructions","key_press":39,"trial_type":"html-keyboard-response","trial_index":21,"time_elapsed":316451,"internal_node_id":"0.0-3.0-12.0","session":3,"startTime":"2020-1-8 8:35:34","attn_word":["LION"]},{"rt":572,"stimulus":"flanker_test","key_press":37,"stim_type":"incongruent","direction":"left","trial_type":"image-keyboard-response","trial_index":22,"time_elapsed":318042,"internal_node_id":"0.0-3.0-13.0-0.0","session":3,"startTime":"2020-1-8 8:35:34","attn_word":["LION"],"correct":true},{"rt":764,"stimulus":"flanker_test","key_press":39,"stim_type":"incongruent","direction":"right","trial_type":"image-keyboard-response","trial_index":23,"time_elapsed":319223,"internal_node_id":"0.0-3.0-13.0-0.1","session":3,"startTime":"2020-1-8 8:35:34","attn_word":["LION"],"correct":true},{"rt":594,"stimulus":"flanker_test","key_press":37,"stim_type":"congruent","direction":"left","trial_type":"image-keyboard-response","trial_index":24,"time_elapsed":320643,"internal_node_id":"0.0-3.0-13.0-0.2","session":3,"startTime":"2020-1-8 8:35:34","attn_word":["LION"],"correct":true},{"rt":433,"stimulus":"flanker_test","key_press":39,"stim_type":"congruent","direction":"right","trial_type":"image-keyboard-response","trial_index":25,"time_elapsed":322023,"internal_node_id":"0.0-3.0-13.0-0.3","session":3,"startTime":"2020-1-8 8:35:34","attn_word":["LION"],"correct":true},{"init_locations":"[{\"cat\":24,\"src\":1,\"x\":0,\"y\":14},{\"cat\":9,\"src\":10,\"x\":12,\"y\":324},{\"cat\":16,\"src\":10,\"x\":8,\"y\":362},{\"cat\":9,\"src\":6,\"x\":57,\"y\":76},{\"cat\":16,\"src\":17,\"x\":46,\"y\":191},{\"cat\":24,\"src\":11,\"x\":11,\"y\":504},{\"cat\":16,\"src\":18,\"x\":34,\"y\":449},{\"cat\":24,\"src\":0,\"x\":3,\"y\":142},{\"cat\":9,\"src\":18,\"x\":46,\"y\":249}]","moves":"[{\"cat\":\"24\",\"src\":\"11\",\"x\":146,\"y\":400},{\"cat\":\"24\",\"src\":\"11\",\"x\":0,\"y\":0},{\"cat\":\"9\",\"src\":\"18\",\"x\":0,\"y\":0},{\"cat\":\"16\",\"src\":\"10\",\"x\":0,\"y\":0},{\"cat\":\"16\",\"src\":\"18\",\"x\":0,\"y\":0},{\"cat\":\"16\",\"src\":\"17\",\"x\":0,\"y\":0},{\"cat\":\"9\",\"src\":\"10\",\"x\":0,\"y\":0},{\"cat\":\"24\",\"src\":\"0\",\"x\":0,\"y\":0},{\"cat\":\"24\",\"src\":\"1\",\"x\":55,\"y\":319},{\"cat\":\"24\",\"src\":\"1\",\"x\":0,\"y\":0},{\"cat\":\"9\",\"src\":\"6\",\"x\":0,\"y\":0}]","final_locations":"[{\"cat\":24,\"src\":11,\"loc\":1},{\"cat\":9,\"src\":18,\"loc\":0},{\"cat\":16,\"src\":10,\"loc\":2},{\"cat\":16,\"src\":18,\"loc\":6},{\"cat\":16,\"src\":17,\"loc\":5},{\"cat\":9,\"src\":10,\"loc\":4},{\"cat\":24,\"src\":0,\"loc\":3},{\"cat\":24,\"src\":1,\"loc\":8},{\"cat\":9,\"src\":6,\"loc\":7}]","rt":62236,"sort_correct":9,"finalLocations":[[9,18,0,1],[24,11,1,0],[16,10,2,2],[24,0,3,6],[9,10,4,5],[16,17,5,4],[16,18,6,3],[9,6,7,8],[24,1,8,7]],"trial_type":"free-sort","trial_index":26,"time_elapsed":384628,"internal_node_id":"0.0-3.0-14.0","session":3,"startTime":"2020-1-8 8:35:34","attn_word":["LION"],"stimulus":"sort_trial"},{"rt":3993,"stimulus":"sort_feedback","key_press":32,"trial_type":"html-keyboard-response","trial_index":27,"time_elapsed":388626,"internal_node_id":"0.0-3.0-15.0","session":3,"startTime":"2020-1-8 8:35:34","attn_word":["LION"]},{"animation_sequence":"[{\"cat\":15,\"src\":0,\"loc\":4},{\"cat\":3,\"src\":8,\"loc\":3},{\"cat\":25,\"src\":17,\"loc\":5},{\"cat\":25,\"src\":13,\"loc\":6},{\"cat\":15,\"src\":12,\"loc\":7},{\"cat\":3,\"src\":9,\"loc\":8},{\"cat\":15,\"src\":5,\"loc\":1},{\"cat\":3,\"src\":3,\"loc\":2},{\"cat\":25,\"src\":9,\"loc\":0}]","condition":2,"rt":20017,"time_sequence":[1119,1113,1111,1106,1104,1102,1108,1117,1120,10017],"trial_type":"animation","trial_index":28,"time_elapsed":408646,"internal_node_id":"0.0-3.0-16.0","session":3,"startTime":"2020-1-8 8:35:34","attn_word":["LION"],"stimulus":"setup2"},{"rt":2566,"stimulus":"flanker_instructions","key_press":39,"trial_type":"html-keyboard-response","trial_index":29,"time_elapsed":411216,"internal_node_id":"0.0-3.0-17.0","session":3,"startTime":"2020-1-8 8:35:34","attn_word":["LION"]},{"rt":670,"stimulus":"flanker_test","key_press":39,"stim_type":"congruent","direction":"right","trial_type":"image-keyboard-response","trial_index":30,"time_elapsed":412895,"internal_node_id":"0.0-3.0-18.0-0.0","session":3,"startTime":"2020-1-8 8:35:34","attn_word":["LION"],"correct":true},{"rt":647,"stimulus":"flanker_test","key_press":37,"stim_type":"congruent","direction":"left","trial_type":"image-keyboard-response","trial_index":31,"time_elapsed":413858,"internal_node_id":"0.0-3.0-18.0-0.1","session":3,"startTime":"2020-1-8 8:35:34","attn_word":["LION"],"correct":true},{"rt":607,"stimulus":"flanker_test","key_press":39,"stim_type":"incongruent","direction":"right","trial_type":"image-keyboard-response","trial_index":32,"time_elapsed":415377,"internal_node_id":"0.0-3.0-18.0-0.2","session":3,"startTime":"2020-1-8 8:35:34","attn_word":["LION"],"correct":true},{"rt":406,"stimulus":"flanker_test","key_press":37,"stim_type":"incongruent","direction":"left","trial_type":"image-keyboard-response","trial_index":33,"time_elapsed":416937,"internal_node_id":"0.0-3.0-18.0-0.3","session":3,"startTime":"2020-1-8 8:35:34","attn_word":["LION"],"correct":true},{"init_locations":"[{\"cat\":15,\"src\":0,\"x\":20,\"y\":315},{\"cat\":3,\"src\":8,\"x\":71,\"y\":485},{\"cat\":25,\"src\":17,\"x\":35,\"y\":266},{\"cat\":25,\"src\":13,\"x\":24,\"y\":84},{\"cat\":15,\"src\":12,\"x\":40,\"y\":17},{\"cat\":3,\"src\":9,\"x\":37,\"y\":428},{\"cat\":15,\"src\":5,\"x\":24,\"y\":139},{\"cat\":3,\"src\":3,\"x\":55,\"y\":195},{\"cat\":25,\"src\":9,\"x\":42,\"y\":366}]","moves":"[{\"cat\":\"15\",\"src\":\"5\",\"x\":0,\"y\":0},{\"cat\":\"25\",\"src\":\"9\",\"x\":0,\"y\":0},{\"cat\":\"3\",\"src\":\"3\",\"x\":0,\"y\":0},{\"cat\":\"25\",\"src\":\"17\",\"x\":0,\"y\":0},{\"cat\":\"15\",\"src\":\"0\",\"x\":0,\"y\":0},{\"cat\":\"3\",\"src\":\"8\",\"x\":741,\"y\":257},{\"cat\":\"3\",\"src\":\"8\",\"x\":0,\"y\":0},{\"cat\":\"3\",\"src\":\"9\",\"x\":523,\"y\":364},{\"cat\":\"3\",\"src\":\"9\",\"x\":0,\"y\":0},{\"cat\":\"15\",\"src\":\"12\",\"x\":0,\"y\":0},{\"cat\":\"25\",\"src\":\"13\",\"x\":0,\"y\":0}]","final_locations":"[{\"cat\":15,\"src\":5,\"loc\":1},{\"cat\":25,\"src\":9,\"loc\":0},{\"cat\":3,\"src\":3,\"loc\":2},{\"cat\":25,\"src\":17,\"loc\":5},{\"cat\":15,\"src\":0,\"loc\":4},{\"cat\":3,\"src\":8,\"loc\":3},{\"cat\":3,\"src\":9,\"loc\":8},{\"cat\":15,\"src\":12,\"loc\":7},{\"cat\":25,\"src\":13,\"loc\":6}]","rt":63998,"sort_correct":9,"finalLocations":[[25,9,0,1],[15,5,1,0],[3,3,2,2],[3,8,3,5],[15,0,4,4],[25,17,5,3],[25,13,6,8],[15,12,7,7],[3,9,8,6]],"trial_type":"free-sort","trial_index":34,"time_elapsed":481469,"internal_node_id":"0.0-3.0-19.0","session":3,"startTime":"2020-1-8 8:35:34","attn_word":["LION"],"stimulus":"sort_trial"},{"rt":6895,"stimulus":"sort_feedback","key_press":32,"trial_type":"html-keyboard-response","trial_index":35,"time_elapsed":488367,"internal_node_id":"0.0-3.0-20.0","session":3,"startTime":"2020-1-8 8:35:34","attn_word":["LION"]},{"animation_sequence":"[{\"cat\":11,\"src\":17,\"loc\":7},{\"cat\":24,\"src\":12,\"loc\":3},{\"cat\":21,\"src\":0,\"loc\":1},{\"cat\":24,\"src\":14,\"loc\":4},{\"cat\":11,\"src\":2,\"loc\":6},{\"cat\":21,\"src\":14,\"loc\":0},{\"cat\":11,\"src\":0,\"loc\":8},{\"cat\":24,\"src\":9,\"loc\":5},{\"cat\":21,\"src\":2,\"loc\":2}]","condition":3,"rt":20053,"time_sequence":[1104,1144,1115,1116,1115,1103,1116,1116,1116,10008],"trial_type":"animation","trial_index":36,"time_elapsed":508422,"internal_node_id":"0.0-3.0-21.0","session":3,"startTime":"2020-1-8 8:35:34","attn_word":["LION"],"stimulus":"setup3"},{"rt":2385,"stimulus":"flanker_instructions","key_press":39,"trial_type":"html-keyboard-response","trial_index":37,"time_elapsed":510812,"internal_node_id":"0.0-3.0-22.0","session":3,"startTime":"2020-1-8 8:35:34","attn_word":["LION"]},{"rt":701,"stimulus":"flanker_test","key_press":39,"stim_type":"incongruent","direction":"right","trial_type":"image-keyboard-response","trial_index":38,"time_elapsed":512520,"internal_node_id":"0.0-3.0-23.0-0.0","session":3,"startTime":"2020-1-8 8:35:34","attn_word":["LION"],"correct":true},{"rt":638,"stimulus":"flanker_test","key_press":37,"stim_type":"incongruent","direction":"left","trial_type":"image-keyboard-response","trial_index":39,"time_elapsed":514373,"internal_node_id":"0.0-3.0-23.0-0.1","session":3,"startTime":"2020-1-8 8:35:34","attn_word":["LION"],"correct":true},{"rt":532,"stimulus":"flanker_test","key_press":37,"stim_type":"congruent","direction":"left","trial_type":"image-keyboard-response","trial_index":40,"time_elapsed":515711,"internal_node_id":"0.0-3.0-23.0-0.2","session":3,"startTime":"2020-1-8 8:35:34","attn_word":["LION"],"correct":true},{"rt":622,"stimulus":"flanker_test","key_press":39,"stim_type":"congruent","direction":"right","trial_type":"image-keyboard-response","trial_index":41,"time_elapsed":516683,"internal_node_id":"0.0-3.0-23.0-0.3","session":3,"startTime":"2020-1-8 8:35:34","attn_word":["LION"],"correct":true},{"init_locations":"[{\"cat\":11,\"src\":17,\"x\":16,\"y\":201},{\"cat\":24,\"src\":12,\"x\":53,\"y\":87},{\"cat\":21,\"src\":0,\"x\":61,\"y\":495},{\"cat\":24,\"src\":14,\"x\":20,\"y\":254},{\"cat\":11,\"src\":2,\"x\":30,\"y\":5},{\"cat\":21,\"src\":14,\"x\":14,\"y\":447},{\"cat\":11,\"src\":0,\"x\":80,\"y\":123},{\"cat\":24,\"src\":9,\"x\":5,\"y\":302},{\"cat\":21,\"src\":2,\"x\":54,\"y\":373}]","moves":"[{\"cat\":\"21\",\"src\":\"0\",\"x\":0,\"y\":0},{\"cat\":\"11\",\"src\":\"0\",\"x\":103,\"y\":141},{\"cat\":\"11\",\"src\":\"0\",\"x\":81,\"y\":123},{\"cat\":\"11\",\"src\":\"0\",\"x\":81,\"y\":123},{\"cat\":\"11\",\"src\":\"0\",\"x\":0,\"y\":0},{\"cat\":\"21\",\"src\":\"14\",\"x\":0,\"y\":0},{\"cat\":\"21\",\"src\":\"2\",\"x\":0,\"y\":0},{\"cat\":\"11\",\"src\":\"2\",\"x\":0,\"y\":0},{\"cat\":\"11\",\"src\":\"17\",\"x\":0,\"y\":0},{\"cat\":\"24\",\"src\":\"14\",\"x\":0,\"y\":0},{\"cat\":\"24\",\"src\":\"12\",\"x\":0,\"y\":0},{\"cat\":\"24\",\"src\":\"9\",\"x\":0,\"y\":0}]","final_locations":"[{\"cat\":21,\"src\":0,\"loc\":1},{\"cat\":11,\"src\":0,\"loc\":8},{\"cat\":21,\"src\":14,\"loc\":0},{\"cat\":21,\"src\":2,\"loc\":2},{\"cat\":11,\"src\":2,\"loc\":6},{\"cat\":11,\"src\":17,\"loc\":7},{\"cat\":24,\"src\":14,\"loc\":4},{\"cat\":24,\"src\":12,\"loc\":3},{\"cat\":24,\"src\":9,\"loc\":5}]","rt":61277,"sort_correct":9,"finalLocations":[[21,14,0,2],[21,0,1,0],[21,2,2,3],[24,12,3,7],[24,14,4,6],[24,9,5,8],[11,2,6,4],[11,17,7,5],[11,0,8,1]],"trial_type":"free-sort","trial_index":42,"time_elapsed":578692,"internal_node_id":"0.0-3.0-24.0","session":3,"startTime":"2020-1-8 8:35:34","attn_word":["LION"],"stimulus":"sort_trial"},{"rt":1470,"stimulus":"sort_feedback","key_press":32,"trial_type":"html-keyboard-response","trial_index":43,"time_elapsed":580165,"internal_node_id":"0.0-3.0-25.0","session":3,"startTime":"2020-1-8 8:35:34","attn_word":["LION"]},{"animation_sequence":"[{\"cat\":23,\"src\":7,\"loc\":1},{\"cat\":0,\"src\":4,\"loc\":7},{\"cat\":2,\"src\":15,\"loc\":4},{\"cat\":23,\"src\":14,\"loc\":5},{\"cat\":0,\"src\":10,\"loc\":2},{\"cat\":2,\"src\":5,\"loc\":6},{\"cat\":0,\"src\":0,\"loc\":3},{\"cat\":2,\"src\":11,\"loc\":0},{\"cat\":23,\"src\":2,\"loc\":8}]","condition":5,"rt":20011,"time_sequence":[1105,1122,1104,1104,1116,1115,1113,1105,1117,10009],"trial_type":"animation","trial_index":44,"time_elapsed":600177,"internal_node_id":"0.0-3.0-26.0","session":3,"startTime":"2020-1-8 8:35:34","attn_word":["LION"],"stimulus":"setup5"},{"rt":7428,"stimulus":"flanker_instructions","key_press":39,"trial_type":"html-keyboard-response","trial_index":45,"time_elapsed":607609,"internal_node_id":"0.0-3.0-27.0","session":3,"startTime":"2020-1-8 8:35:34","attn_word":["LION"]},{"rt":892,"stimulus":"flanker_test","key_press":39,"stim_type":"incongruent","direction":"right","trial_type":"image-keyboard-response","trial_index":46,"time_elapsed":609522,"internal_node_id":"0.0-3.0-28.0-0.0","session":3,"startTime":"2020-1-8 8:35:34","attn_word":["LION"],"correct":true},{"rt":595,"stimulus":"flanker_test","key_press":37,"stim_type":"incongruent","direction":"left","trial_type":"image-keyboard-response","trial_index":47,"time_elapsed":611004,"internal_node_id":"0.0-3.0-28.0-0.1","session":3,"startTime":"2020-1-8 8:35:34","attn_word":["LION"],"correct":true},{"rt":559,"stimulus":"flanker_test","key_press":37,"stim_type":"congruent","direction":"left","trial_type":"image-keyboard-response","trial_index":48,"time_elapsed":611960,"internal_node_id":"0.0-3.0-28.0-0.2","session":3,"startTime":"2020-1-8 8:35:34","attn_word":["LION"],"correct":true},{"rt":542,"stimulus":"flanker_test","key_press":39,"stim_type":"congruent","direction":"right","trial_type":"image-keyboard-response","trial_index":49,"time_elapsed":612815,"internal_node_id":"0.0-3.0-28.0-0.3","session":3,"startTime":"2020-1-8 8:35:34","attn_word":["LION"],"correct":true},{"init_locations":"[{\"cat\":23,\"src\":7,\"x\":55,\"y\":314},{\"cat\":0,\"src\":4,\"x\":75,\"y\":0},{\"cat\":2,\"src\":15,\"x\":67,\"y\":423},{\"cat\":23,\"src\":14,\"x\":60,\"y\":259},{\"cat\":0,\"src\":10,\"x\":72,\"y\":205},{\"cat\":2,\"src\":5,\"x\":72,\"y\":85},{\"cat\":0,\"src\":0,\"x\":83,\"y\":140},{\"cat\":2,\"src\":11,\"x\":51,\"y\":494},{\"cat\":23,\"src\":2,\"x\":34,\"y\":380}]","moves":"[{\"cat\":\"23\",\"src\":\"7\",\"x\":194,\"y\":251},{\"cat\":\"23\",\"src\":\"7\",\"x\":0,\"y\":0},{\"cat\":\"2\",\"src\":\"11\",\"x\":0,\"y\":0},{\"cat\":\"0\",\"src\":\"10\",\"x\":0,\"y\":0},{\"cat\":\"23\",\"src\":\"14\",\"x\":0,\"y\":0},{\"cat\":\"2\",\"src\":\"15\",\"x\":0,\"y\":0},{\"cat\":\"0\",\"src\":\"0\",\"x\":0,\"y\":0},{\"cat\":\"0\",\"src\":\"4\",\"x\":0,\"y\":0},{\"cat\":\"23\",\"src\":\"2\",\"x\":0,\"y\":0},{\"cat\":\"2\",\"src\":\"5\",\"x\":0,\"y\":0}]","final_locations":"[{\"cat\":23,\"src\":7,\"loc\":1},{\"cat\":2,\"src\":11,\"loc\":0},{\"cat\":0,\"src\":10,\"loc\":2},{\"cat\":23,\"src\":14,\"loc\":5},{\"cat\":2,\"src\":15,\"loc\":4},{\"cat\":0,\"src\":0,\"loc\":3},{\"cat\":0,\"src\":4,\"loc\":7},{\"cat\":23,\"src\":2,\"loc\":8},{\"cat\":2,\"src\":5,\"loc\":6}]","rt":52870,"sort_correct":9,"finalLocations":[[2,11,0,1],[23,7,1,0],[0,10,2,2],[0,0,3,5],[2,15,4,4],[23,14,5,3],[2,5,6,8],[0,4,7,6],[23,2,8,7]],"trial_type":"free-sort","trial_index":50,"time_elapsed":666242,"internal_node_id":"0.0-3.0-29.0","session":3,"startTime":"2020-1-8 8:35:34","attn_word":["LION"],"stimulus":"sort_trial"},{"rt":5185,"stimulus":"sort_feedback","key_press":32,"trial_type":"html-keyboard-response","trial_index":51,"time_elapsed":671429,"internal_node_id":"0.0-3.0-30.0","session":3,"startTime":"2020-1-8 8:35:34","attn_word":["LION"]},{"animation_sequence":"[{\"cat\":25,\"src\":0,\"loc\":6},{\"cat\":5,\"src\":1,\"loc\":3},{\"cat\":27,\"src\":9,\"loc\":0},{\"cat\":25,\"src\":6,\"loc\":8},{\"cat\":27,\"src\":10,\"loc\":1},{\"cat\":5,\"src\":0,\"loc\":5},{\"cat\":5,\"src\":19,\"loc\":4},{\"cat\":27,\"src\":17,\"loc\":2},{\"cat\":25,\"src\":11,\"loc\":7}]","condition":3,"rt":19998,"time_sequence":[1104,1115,1111,1103,1111,1103,1115,1117,1104,10015],"trial_type":"animation","trial_index":52,"time_elapsed":691443,"internal_node_id":"0.0-3.0-31.0","session":3,"startTime":"2020-1-8 8:35:34","attn_word":["LION"],"stimulus":"setup3"},{"rt":6913,"stimulus":"flanker_instructions","key_press":39,"trial_type":"html-keyboard-response","trial_index":53,"time_elapsed":698361,"internal_node_id":"0.0-3.0-32.0","session":3,"startTime":"2020-1-8 8:35:34","attn_word":["LION"]},{"rt":null,"stimulus":"flanker_test","key_press":null,"stim_type":"congruent","direction":"left","trial_type":"image-keyboard-response","trial_index":54,"time_elapsed":700297,"internal_node_id":"0.0-3.0-33.0-0.0","session":3,"startTime":"2020-1-8 8:35:34","attn_word":["LION"],"correct":false},{"rt":736,"stimulus":"flanker_test","key_press":37,"stim_type":"incongruent","direction":"left","trial_type":"image-keyboard-response","trial_index":55,"time_elapsed":702123,"internal_node_id":"0.0-3.0-33.0-0.1","session":3,"startTime":"2020-1-8 8:35:34","attn_word":["LION"],"correct":true},{"rt":455,"stimulus":"flanker_test","key_press":39,"stim_type":"congruent","direction":"right","trial_type":"image-keyboard-response","trial_index":56,"time_elapsed":703595,"internal_node_id":"0.0-3.0-33.0-0.2","session":3,"startTime":"2020-1-8 8:35:34","attn_word":["LION"],"correct":true},{"rt":559,"stimulus":"flanker_test","key_press":39,"stim_type":"incongruent","direction":"right","trial_type":"image-keyboard-response","trial_index":57,"time_elapsed":704487,"internal_node_id":"0.0-3.0-33.0-0.3","session":3,"startTime":"2020-1-8 8:35:34","attn_word":["LION"],"correct":true},{"init_locations":"[{\"cat\":25,\"src\":0,\"x\":75,\"y\":314},{\"cat\":5,\"src\":1,\"x\":62,\"y\":443},{\"cat\":27,\"src\":9,\"x\":62,\"y\":77},{\"cat\":25,\"src\":6,\"x\":42,\"y\":136},{\"cat\":27,\"src\":10,\"x\":49,\"y\":200},{\"cat\":5,\"src\":0,\"x\":65,\"y\":493},{\"cat\":5,\"src\":19,\"x\":70,\"y\":359},{\"cat\":27,\"src\":17,\"x\":23,\"y\":29},{\"cat\":25,\"src\":11,\"x\":64,\"y\":259}]","moves":"[{\"cat\":\"27\",\"src\":\"10\",\"x\":0,\"y\":0},{\"cat\":\"27\",\"src\":\"9\",\"x\":0,\"y\":0},{\"cat\":\"27\",\"src\":\"17\",\"x\":0,\"y\":0},{\"cat\":\"5\",\"src\":\"0\",\"x\":0,\"y\":0},{\"cat\":\"5\",\"src\":\"19\",\"x\":0,\"y\":0},{\"cat\":\"5\",\"src\":\"1\",\"x\":0,\"y\":0},{\"cat\":\"25\",\"src\":\"0\",\"x\":0,\"y\":0},{\"cat\":\"25\",\"src\":\"11\",\"x\":0,\"y\":0},{\"cat\":\"25\",\"src\":\"6\",\"x\":0,\"y\":0}]","final_locations":"[{\"cat\":27,\"src\":10,\"loc\":1},{\"cat\":27,\"src\":9,\"loc\":0},{\"cat\":27,\"src\":17,\"loc\":2},{\"cat\":5,\"src\":0,\"loc\":5},{\"cat\":5,\"src\":19,\"loc\":4},{\"cat\":5,\"src\":1,\"loc\":3},{\"cat\":25,\"src\":0,\"loc\":6},{\"cat\":25,\"src\":11,\"loc\":7},{\"cat\":25,\"src\":6,\"loc\":8}]","rt":43543,"sort_correct":9,"finalLocations":[[27,9,0,1],[27,10,1,0],[27,17,2,2],[5,1,3,5],[5,19,4,4],[5,0,5,3],[25,0,6,6],[25,11,7,7],[25,6,8,8]],"trial_type":"free-sort","trial_index":58,"time_elapsed":748908,"internal_node_id":"0.0-3.0-34.0","session":3,"startTime":"2020-1-8 8:35:34","attn_word":["LION"],"stimulus":"sort_trial"},{"rt":7121,"stimulus":"sort_feedback","key_press":32,"trial_type":"html-keyboard-response","trial_index":59,"time_elapsed":756032,"internal_node_id":"0.0-3.0-35.0","session":3,"startTime":"2020-1-8 8:35:34","attn_word":["LION"]},{"animation_sequence":"[{\"cat\":25,\"src\":16,\"loc\":2},{\"cat\":23,\"src\":3,\"loc\":1},{\"cat\":2,\"src\":4,\"loc\":0},{\"cat\":2,\"src\":9,\"loc\":6},{\"cat\":23,\"src\":5,\"loc\":8},{\"cat\":25,\"src\":17,\"loc\":7},{\"cat\":23,\"src\":17,\"loc\":3},{\"cat\":25,\"src\":6,\"loc\":4},{\"cat\":2,\"src\":13,\"loc\":5}]","condition":2,"rt":20002,"time_sequence":[1117,1117,1102,1103,1107,1102,1118,1110,1106,10020],"trial_type":"animation","trial_index":60,"time_elapsed":776035,"internal_node_id":"0.0-3.0-36.0","session":3,"startTime":"2020-1-8 8:35:34","attn_word":["LION"],"stimulus":"setup2"},{"rt":3492,"stimulus":"flanker_instructions","key_press":39,"trial_type":"html-keyboard-response","trial_index":61,"time_elapsed":779531,"internal_node_id":"0.0-3.0-37.0","session":3,"startTime":"2020-1-8 8:35:34","attn_word":["LION"]},{"rt":718,"stimulus":"flanker_test","key_press":39,"stim_type":"incongruent","direction":"right","trial_type":"image-keyboard-response","trial_index":62,"time_elapsed":781254,"internal_node_id":"0.0-3.0-38.0-0.0","session":3,"startTime":"2020-1-8 8:35:34","attn_word":["LION"],"correct":true},{"rt":792,"stimulus":"flanker_test","key_press":37,"stim_type":"congruent","direction":"left","trial_type":"image-keyboard-response","trial_index":63,"time_elapsed":782388,"internal_node_id":"0.0-3.0-38.0-0.1","session":3,"startTime":"2020-1-8 8:35:34","attn_word":["LION"],"correct":true},{"rt":502,"stimulus":"flanker_test","key_press":37,"stim_type":"incongruent","direction":"left","trial_type":"image-keyboard-response","trial_index":64,"time_elapsed":783255,"internal_node_id":"0.0-3.0-38.0-0.2","session":3,"startTime":"2020-1-8 8:35:34","attn_word":["LION"],"correct":true},{"rt":365,"stimulus":"flanker_test","key_press":39,"stim_type":"congruent","direction":"right","trial_type":"image-keyboard-response","trial_index":65,"time_elapsed":784527,"internal_node_id":"0.0-3.0-38.0-0.3","session":3,"startTime":"2020-1-8 8:35:34","attn_word":["LION"],"correct":true},{"init_locations":"[{\"cat\":25,\"src\":16,\"x\":62,\"y\":204},{\"cat\":23,\"src\":3,\"x\":80,\"y\":373},{\"cat\":2,\"src\":4,\"x\":29,\"y\":148},{\"cat\":2,\"src\":9,\"x\":15,\"y\":267},{\"cat\":23,\"src\":5,\"x\":12,\"y\":439},{\"cat\":25,\"src\":17,\"x\":29,\"y\":87},{\"cat\":23,\"src\":17,\"x\":12,\"y\":20},{\"cat\":25,\"src\":6,\"x\":60,\"y\":496},{\"cat\":2,\"src\":13,\"x\":68,\"y\":323}]","moves":"[{\"cat\":\"23\",\"src\":\"3\",\"x\":0,\"y\":0},{\"cat\":\"2\",\"src\":\"4\",\"x\":0,\"y\":0},{\"cat\":\"25\",\"src\":\"16\",\"x\":0,\"y\":0},{\"cat\":\"2\",\"src\":\"13\",\"x\":0,\"y\":0},{\"cat\":\"25\",\"src\":\"6\",\"x\":0,\"y\":0},{\"cat\":\"23\",\"src\":\"17\",\"x\":0,\"y\":0},{\"cat\":\"2\",\"src\":\"9\",\"x\":0,\"y\":0},{\"cat\":\"25\",\"src\":\"17\",\"x\":41,\"y\":172},{\"cat\":\"25\",\"src\":\"17\",\"x\":0,\"y\":0},{\"cat\":\"23\",\"src\":\"5\",\"x\":0,\"y\":0}]","final_locations":"[{\"cat\":23,\"src\":3,\"loc\":1},{\"cat\":2,\"src\":4,\"loc\":0},{\"cat\":25,\"src\":16,\"loc\":2},{\"cat\":2,\"src\":13,\"loc\":5},{\"cat\":25,\"src\":6,\"loc\":4},{\"cat\":23,\"src\":17,\"loc\":3},{\"cat\":2,\"src\":9,\"loc\":6},{\"cat\":25,\"src\":17,\"loc\":7},{\"cat\":23,\"src\":5,\"loc\":8}]","rt":41584,"sort_correct":9,"finalLocations":[[2,4,0,1],[23,3,1,0],[25,16,2,2],[23,17,3,5],[25,6,4,4],[2,13,5,3],[2,9,6,6],[25,17,7,7],[23,5,8,8]],"trial_type":"free-sort","trial_index":66,"time_elapsed":827008,"internal_node_id":"0.0-3.0-39.0","session":3,"startTime":"2020-1-8 8:35:34","attn_word":["LION"],"stimulus":"sort_trial"},{"rt":7005,"stimulus":"sort_feedback","key_press":32,"trial_type":"html-keyboard-response","trial_index":67,"time_elapsed":834016,"internal_node_id":"0.0-3.0-40.0","session":3,"startTime":"2020-1-8 8:35:34","attn_word":["LION"]},{"animation_sequence":"[{\"cat\":33,\"src\":3,\"loc\":0},{\"cat\":33,\"src\":8,\"loc\":2},{\"cat\":33,\"src\":11,\"loc\":1},{\"cat\":14,\"src\":5,\"loc\":4},{\"cat\":14,\"src\":17,\"loc\":5},{\"cat\":14,\"src\":14,\"loc\":3},{\"cat\":1,\"src\":9,\"loc\":8},{\"cat\":1,\"src\":6,\"loc\":7},{\"cat\":1,\"src\":0,\"loc\":6}]","condition":1,"rt":19985,"time_sequence":[1109,1103,1111,1102,1103,1112,1102,1112,1113,10018],"trial_type":"animation","trial_index":68,"time_elapsed":854003,"internal_node_id":"0.0-3.0-41.0","session":3,"startTime":"2020-1-8 8:35:34","attn_word":["LION"],"stimulus":"setup1"},{"rt":4087,"stimulus":"flanker_instructions","key_press":39,"trial_type":"html-keyboard-response","trial_index":69,"time_elapsed":858095,"internal_node_id":"0.0-3.0-42.0","session":3,"startTime":"2020-1-8 8:35:34","attn_word":["LION"]},{"rt":715,"stimulus":"flanker_test","key_press":37,"stim_type":"congruent","direction":"left","trial_type":"image-keyboard-response","trial_index":70,"time_elapsed":859819,"internal_node_id":"0.0-3.0-43.0-0.0","session":3,"startTime":"2020-1-8 8:35:34","attn_word":["LION"],"correct":true},{"rt":520,"stimulus":"flanker_test","key_press":39,"stim_type":"congruent","direction":"right","trial_type":"image-keyboard-response","trial_index":71,"time_elapsed":861342,"internal_node_id":"0.0-3.0-43.0-0.1","session":3,"startTime":"2020-1-8 8:35:34","attn_word":["LION"],"correct":true},{"rt":576,"stimulus":"flanker_test","key_press":37,"stim_type":"incongruent","direction":"left","trial_type":"image-keyboard-response","trial_index":72,"time_elapsed":863025,"internal_node_id":"0.0-3.0-43.0-0.2","session":3,"startTime":"2020-1-8 8:35:34","attn_word":["LION"],"correct":true},{"rt":621,"stimulus":"flanker_test","key_press":39,"stim_type":"incongruent","direction":"right","trial_type":"image-keyboard-response","trial_index":73,"time_elapsed":863967,"internal_node_id":"0.0-3.0-43.0-0.3","session":3,"startTime":"2020-1-8 8:35:34","attn_word":["LION"],"correct":true},{"init_locations":"[{\"cat\":33,\"src\":3,\"x\":6,\"y\":70},{\"cat\":33,\"src\":8,\"x\":31,\"y\":253},{\"cat\":33,\"src\":11,\"x\":74,\"y\":489},{\"cat\":14,\"src\":5,\"x\":58,\"y\":1},{\"cat\":14,\"src\":17,\"x\":14,\"y\":436},{\"cat\":14,\"src\":14,\"x\":23,\"y\":146},{\"cat\":1,\"src\":9,\"x\":10,\"y\":305},{\"cat\":1,\"src\":6,\"x\":70,\"y\":367},{\"cat\":1,\"src\":0,\"x\":65,\"y\":203}]","moves":"[{\"cat\":\"33\",\"src\":\"11\",\"x\":0,\"y\":0},{\"cat\":\"14\",\"src\":\"5\",\"x\":66,\"y\":16},{\"cat\":\"33\",\"src\":\"3\",\"x\":0,\"y\":0},{\"cat\":\"33\",\"src\":\"8\",\"x\":0,\"y\":0},{\"cat\":\"14\",\"src\":\"17\",\"x\":0,\"y\":0},{\"cat\":\"14\",\"src\":\"5\",\"x\":0,\"y\":0},{\"cat\":\"14\",\"src\":\"14\",\"x\":0,\"y\":0},{\"cat\":\"1\",\"src\":\"0\",\"x\":0,\"y\":0},{\"cat\":\"1\",\"src\":\"9\",\"x\":0,\"y\":0},{\"cat\":\"1\",\"src\":\"6\",\"x\":0,\"y\":0}]","final_locations":"[{\"cat\":33,\"src\":11,\"loc\":1},{\"cat\":33,\"src\":3,\"loc\":0},{\"cat\":33,\"src\":8,\"loc\":2},{\"cat\":14,\"src\":17,\"loc\":5},{\"cat\":14,\"src\":5,\"loc\":4},{\"cat\":14,\"src\":14,\"loc\":3},{\"cat\":1,\"src\":0,\"loc\":6},{\"cat\":1,\"src\":9,\"loc\":8},{\"cat\":1,\"src\":6,\"loc\":7}]","rt":50937,"sort_correct":9,"finalLocations":[[33,3,0,1],[33,11,1,0],[33,8,2,2],[14,14,3,5],[14,5,4,4],[14,17,5,3],[1,0,6,6],[1,6,7,8],[1,9,8,7]],"trial_type":"free-sort","trial_index":74,"time_elapsed":915680,"internal_node_id":"0.0-3.0-44.0","session":3,"startTime":"2020-1-8 8:35:34","attn_word":["LION"],"stimulus":"sort_trial"},{"rt":1166,"stimulus":"sort_feedback","key_press":32,"trial_type":"html-keyboard-response","trial_index":75,"time_elapsed":916849,"internal_node_id":"0.0-3.0-45.0","session":3,"startTime":"2020-1-8 8:35:34","attn_word":["LION"]},{"animation_sequence":"[{\"cat\":14,\"src\":13,\"loc\":4},{\"cat\":14,\"src\":3,\"loc\":1},{\"cat\":14,\"src\":6,\"loc\":7},{\"cat\":30,\"src\":18,\"loc\":0},{\"cat\":30,\"src\":2,\"loc\":5},{\"cat\":30,\"src\":16,\"loc\":6},{\"cat\":32,\"src\":16,\"loc\":2},{\"cat\":32,\"src\":5,\"loc\":3},{\"cat\":32,\"src\":8,\"loc\":8}]","condition":4,"rt":19996,"time_sequence":[1107,1111,1115,1106,1116,1118,1105,1103,1111,10004],"trial_type":"animation","trial_index":76,"time_elapsed":936846,"internal_node_id":"0.0-3.0-46.0","session":3,"startTime":"2020-1-8 8:35:34","attn_word":["LION"],"stimulus":"setup4"},{"rt":2730,"stimulus":"flanker_instructions","key_press":39,"trial_type":"html-keyboard-response","trial_index":77,"time_elapsed":939580,"internal_node_id":"0.0-3.0-47.0","session":3,"startTime":"2020-1-8 8:35:34","attn_word":["LION"]},{"rt":694,"stimulus":"flanker_test","key_press":39,"stim_type":"incongruent","direction":"right","trial_type":"image-keyboard-response","trial_index":78,"time_elapsed":941308,"internal_node_id":"0.0-3.0-48.0-0.0","session":3,"startTime":"2020-1-8 8:35:34","attn_word":["LION"],"correct":true},{"rt":632,"stimulus":"flanker_test","key_press":39,"stim_type":"congruent","direction":"right","trial_type":"image-keyboard-response","trial_index":79,"time_elapsed":942249,"internal_node_id":"0.0-3.0-48.0-0.1","session":3,"startTime":"2020-1-8 8:35:34","attn_word":["LION"],"correct":true},{"rt":386,"stimulus":"flanker_test","key_press":37,"stim_type":"congruent","direction":"left","trial_type":"image-keyboard-response","trial_index":80,"time_elapsed":943191,"internal_node_id":"0.0-3.0-48.0-0.2","session":3,"startTime":"2020-1-8 8:35:34","attn_word":["LION"],"correct":true},{"rt":388,"stimulus":"flanker_test","key_press":37,"stim_type":"incongruent","direction":"left","trial_type":"image-keyboard-response","trial_index":81,"time_elapsed":944013,"internal_node_id":"0.0-3.0-48.0-0.3","session":3,"startTime":"2020-1-8 8:35:34","attn_word":["LION"],"correct":true},{"init_locations":"[{\"cat\":14,\"src\":13,\"x\":54,\"y\":205},{\"cat\":14,\"src\":3,\"x\":13,\"y\":385},{\"cat\":14,\"src\":6,\"x\":80,\"y\":258},{\"cat\":30,\"src\":18,\"x\":27,\"y\":430},{\"cat\":30,\"src\":2,\"x\":52,\"y\":313},{\"cat\":30,\"src\":16,\"x\":19,\"y\":82},{\"cat\":32,\"src\":16,\"x\":2,\"y\":24},{\"cat\":32,\"src\":5,\"x\":3,\"y\":483},{\"cat\":32,\"src\":8,\"x\":57,\"y\":136}]","moves":"[{\"cat\":\"14\",\"src\":\"3\",\"x\":0,\"y\":0},{\"cat\":\"30\",\"src\":\"18\",\"x\":0,\"y\":0},{\"cat\":\"32\",\"src\":\"16\",\"x\":0,\"y\":0},{\"cat\":\"30\",\"src\":\"2\",\"x\":0,\"y\":0},{\"cat\":\"14\",\"src\":\"13\",\"x\":54,\"y\":205},{\"cat\":\"14\",\"src\":\"13\",\"x\":0,\"y\":0},{\"cat\":\"32\",\"src\":\"5\",\"x\":283,\"y\":397},{\"cat\":\"32\",\"src\":\"5\",\"x\":0,\"y\":0},{\"cat\":\"32\",\"src\":\"8\",\"x\":0,\"y\":0},{\"cat\":\"30\",\"src\":\"16\",\"x\":0,\"y\":0},{\"cat\":\"14\",\"src\":\"6\",\"x\":0,\"y\":0}]","final_locations":"[{\"cat\":14,\"src\":3,\"loc\":1},{\"cat\":30,\"src\":18,\"loc\":0},{\"cat\":32,\"src\":16,\"loc\":2},{\"cat\":30,\"src\":2,\"loc\":5},{\"cat\":14,\"src\":13,\"loc\":3},{\"cat\":32,\"src\":5,\"loc\":4},{\"cat\":32,\"src\":8,\"loc\":7},{\"cat\":30,\"src\":16,\"loc\":6},{\"cat\":14,\"src\":6,\"loc\":8}]","rt":52131,"sort_correct":5,"finalLocations":[[30,18,0,1],[14,3,1,0],[32,16,2,2],[14,13,3,4],[32,5,4,5],[30,2,5,3],[30,16,6,7],[32,8,7,6],[14,6,8,8]],"trial_type":"free-sort","trial_index":82,"time_elapsed":996873,"internal_node_id":"0.0-3.0-49.0","session":3,"startTime":"2020-1-8 8:35:34","attn_word":["LION"],"stimulus":"sort_trial"},{"rt":1215,"stimulus":"sort_feedback","key_press":32,"trial_type":"html-keyboard-response","trial_index":83,"time_elapsed":998092,"internal_node_id":"0.0-3.0-50.0","session":3,"startTime":"2020-1-8 8:35:34","attn_word":["LION"]},{"animation_sequence":"[{\"cat\":24,\"src\":6,\"loc\":2},{\"cat\":14,\"src\":17,\"loc\":8},{\"cat\":21,\"src\":19,\"loc\":3},{\"cat\":21,\"src\":3,\"loc\":6},{\"cat\":14,\"src\":10,\"loc\":0},{\"cat\":24,\"src\":0,\"loc\":5},{\"cat\":14,\"src\":12,\"loc\":4},{\"cat\":21,\"src\":7,\"loc\":1},{\"cat\":24,\"src\":10,\"loc\":7}]","condition":5,"rt":20015,"time_sequence":[1119,1118,1116,1104,1116,1111,1103,1117,1102,10009],"trial_type":"animation","trial_index":84,"time_elapsed":1018108,"internal_node_id":"0.0-3.0-51.0","session":3,"startTime":"2020-1-8 8:35:34","attn_word":["LION"],"stimulus":"setup5"},{"rt":2177,"stimulus":"flanker_instructions","key_press":39,"trial_type":"html-keyboard-response","trial_index":85,"time_elapsed":1020290,"internal_node_id":"0.0-3.0-52.0","session":3,"startTime":"2020-1-8 8:35:34","attn_word":["LION"]},{"rt":664,"stimulus":"flanker_test","key_press":37,"stim_type":"congruent","direction":"left","trial_type":"image-keyboard-response","trial_index":86,"time_elapsed":1021983,"internal_node_id":"0.0-3.0-53.0-0.0","session":3,"startTime":"2020-1-8 8:35:34","attn_word":["LION"],"correct":true},{"rt":595,"stimulus":"flanker_test","key_press":39,"stim_type":"incongruent","direction":"right","trial_type":"image-keyboard-response","trial_index":87,"time_elapsed":1023731,"internal_node_id":"0.0-3.0-53.0-0.1","session":3,"startTime":"2020-1-8 8:35:34","attn_word":["LION"],"correct":true},{"rt":662,"stimulus":"flanker_test","key_press":39,"stim_type":"congruent","direction":"right","trial_type":"image-keyboard-response","trial_index":88,"time_elapsed":1025080,"internal_node_id":"0.0-3.0-53.0-0.2","session":3,"startTime":"2020-1-8 8:35:34","attn_word":["LION"],"correct":true},{"rt":371,"stimulus":"flanker_test","key_press":37,"stim_type":"incongruent","direction":"left","trial_type":"image-keyboard-response","trial_index":89,"time_elapsed":1026235,"internal_node_id":"0.0-3.0-53.0-0.3","session":3,"startTime":"2020-1-8 8:35:34","attn_word":["LION"],"correct":true},{"init_locations":"[{\"cat\":24,\"src\":6,\"x\":47,\"y\":21},{\"cat\":14,\"src\":17,\"x\":15,\"y\":188},{\"cat\":21,\"src\":19,\"x\":37,\"y\":444},{\"cat\":21,\"src\":3,\"x\":35,\"y\":257},{\"cat\":14,\"src\":10,\"x\":60,\"y\":83},{\"cat\":24,\"src\":0,\"x\":27,\"y\":376},{\"cat\":14,\"src\":12,\"x\":75,\"y\":303},{\"cat\":21,\"src\":7,\"x\":51,\"y\":485},{\"cat\":24,\"src\":10,\"x\":37,\"y\":147}]","moves":"[{\"cat\":\"21\",\"src\":\"7\",\"x\":0,\"y\":0},{\"cat\":\"14\",\"src\":\"10\",\"x\":0,\"y\":0},{\"cat\":\"24\",\"src\":\"6\",\"x\":0,\"y\":0},{\"cat\":\"24\",\"src\":\"0\",\"x\":0,\"y\":0},{\"cat\":\"14\",\"src\":\"12\",\"x\":0,\"y\":0},{\"cat\":\"21\",\"src\":\"19\",\"x\":0,\"y\":0},{\"cat\":\"24\",\"src\":\"10\",\"x\":0,\"y\":0},{\"cat\":\"21\",\"src\":\"3\",\"x\":0,\"y\":0},{\"cat\":\"14\",\"src\":\"17\",\"x\":0,\"y\":0}]","final_locations":"[{\"cat\":21,\"src\":7,\"loc\":1},{\"cat\":14,\"src\":10,\"loc\":0},{\"cat\":24,\"src\":6,\"loc\":2},{\"cat\":24,\"src\":0,\"loc\":5},{\"cat\":14,\"src\":12,\"loc\":4},{\"cat\":21,\"src\":19,\"loc\":3},{\"cat\":24,\"src\":10,\"loc\":7},{\"cat\":21,\"src\":3,\"loc\":6},{\"cat\":14,\"src\":17,\"loc\":8}]","rt":51299,"sort_correct":9,"finalLocations":[[14,10,0,1],[21,7,1,0],[24,6,2,2],[21,19,3,5],[14,12,4,4],[24,0,5,3],[21,3,6,7],[24,10,7,6],[14,17,8,8]],"trial_type":"free-sort","trial_index":90,"time_elapsed":1078544,"internal_node_id":"0.0-3.0-54.0","session":3,"startTime":"2020-1-8 8:35:34","attn_word":["LION"],"stimulus":"sort_trial"},{"rt":1812,"stimulus":"sort_feedback","key_press":32,"trial_type":"html-keyboard-response","trial_index":91,"time_elapsed":1080360,"internal_node_id":"0.0-3.0-55.0","session":3,"startTime":"2020-1-8 8:35:34","attn_word":["LION"]},{"animation_sequence":"[{\"cat\":13,\"src\":13,\"loc\":7},{\"cat\":13,\"src\":7,\"loc\":6},{\"cat\":13,\"src\":8,\"loc\":8},{\"cat\":12,\"src\":18,\"loc\":1},{\"cat\":12,\"src\":4,\"loc\":2},{\"cat\":12,\"src\":8,\"loc\":0},{\"cat\":1,\"src\":12,\"loc\":3},{\"cat\":1,\"src\":9,\"loc\":5},{\"cat\":1,\"src\":4,\"loc\":4}]","condition":1,"rt":19970,"time_sequence":[1105,1103,1112,1102,1107,1109,1102,1117,1111,10002],"trial_type":"animation","trial_index":92,"time_elapsed":1100331,"internal_node_id":"0.0-3.0-56.0","session":3,"startTime":"2020-1-8 8:35:34","attn_word":["LION"],"stimulus":"setup1"},{"rt":2323,"stimulus":"flanker_instructions","key_press":39,"trial_type":"html-keyboard-response","trial_index":93,"time_elapsed":1102658,"internal_node_id":"0.0-3.0-57.0","session":3,"startTime":"2020-1-8 8:35:34","attn_word":["LION"]},{"rt":618,"stimulus":"flanker_test","key_press":37,"stim_type":"incongruent","direction":"left","trial_type":"image-keyboard-response","trial_index":94,"time_elapsed":1104295,"internal_node_id":"0.0-3.0-58.0-0.0","session":3,"startTime":"2020-1-8 8:35:34","attn_word":["LION"],"correct":true},{"rt":555,"stimulus":"flanker_test","key_press":37,"stim_type":"congruent","direction":"left","trial_type":"image-keyboard-response","trial_index":95,"time_elapsed":1105473,"internal_node_id":"0.0-3.0-58.0-0.1","session":3,"startTime":"2020-1-8 8:35:34","attn_word":["LION"],"correct":true},{"rt":480,"stimulus":"flanker_test","key_press":39,"stim_type":"incongruent","direction":"right","trial_type":"image-keyboard-response","trial_index":96,"time_elapsed":1107146,"internal_node_id":"0.0-3.0-58.0-0.2","session":3,"startTime":"2020-1-8 8:35:34","attn_word":["LION"],"correct":true},{"rt":460,"stimulus":"flanker_test","key_press":39,"stim_type":"congruent","direction":"right","trial_type":"image-keyboard-response","trial_index":97,"time_elapsed":1108494,"internal_node_id":"0.0-3.0-58.0-0.3","session":3,"startTime":"2020-1-8 8:35:34","attn_word":["LION"],"correct":true},{"init_locations":"[{\"cat\":13,\"src\":13,\"x\":46,\"y\":127},{\"cat\":13,\"src\":7,\"x\":13,\"y\":385},{\"cat\":13,\"src\":8,\"x\":19,\"y\":316},{\"cat\":12,\"src\":18,\"x\":66,\"y\":484},{\"cat\":12,\"src\":4,\"x\":68,\"y\":79},{\"cat\":12,\"src\":8,\"x\":6,\"y\":420},{\"cat\":1,\"src\":12,\"x\":70,\"y\":199},{\"cat\":1,\"src\":9,\"x\":76,\"y\":17},{\"cat\":1,\"src\":4,\"x\":68,\"y\":265}]","moves":"[{\"cat\":\"12\",\"src\":\"18\",\"x\":0,\"y\":0},{\"cat\":\"12\",\"src\":\"8\",\"x\":0,\"y\":0},{\"cat\":\"12\",\"src\":\"4\",\"x\":0,\"y\":0},{\"cat\":\"1\",\"src\":\"9\",\"x\":0,\"y\":0},{\"cat\":\"1\",\"src\":\"4\",\"x\":0,\"y\":0},{\"cat\":\"1\",\"src\":\"12\",\"x\":0,\"y\":0},{\"cat\":\"13\",\"src\":\"13\",\"x\":0,\"y\":0},{\"cat\":\"13\",\"src\":\"8\",\"x\":0,\"y\":0},{\"cat\":\"13\",\"src\":\"7\",\"x\":0,\"y\":0}]","final_locations":"[{\"cat\":12,\"src\":18,\"loc\":1},{\"cat\":12,\"src\":8,\"loc\":0},{\"cat\":12,\"src\":4,\"loc\":2},{\"cat\":1,\"src\":9,\"loc\":5},{\"cat\":1,\"src\":4,\"loc\":4},{\"cat\":1,\"src\":12,\"loc\":3},{\"cat\":13,\"src\":13,\"loc\":7},{\"cat\":13,\"src\":8,\"loc\":8},{\"cat\":13,\"src\":7,\"loc\":6}]","rt":47405,"sort_correct":9,"finalLocations":[[12,8,0,1],[12,18,1,0],[12,4,2,2],[1,12,3,5],[1,4,4,4],[1,9,5,3],[13,7,6,8],[13,13,7,6],[13,8,8,7]],"trial_type":"free-sort","trial_index":98,"time_elapsed":1156513,"internal_node_id":"0.0-3.0-59.0","session":3,"startTime":"2020-1-8 8:35:34","attn_word":["LION"],"stimulus":"sort_trial"},{"rt":5999,"stimulus":"sort_feedback","key_press":32,"trial_type":"html-keyboard-response","trial_index":99,"time_elapsed":1162515,"internal_node_id":"0.0-3.0-60.0","session":3,"startTime":"2020-1-8 8:35:34","attn_word":["LION"]},{"animation_sequence":"[{\"cat\":17,\"src\":5,\"loc\":0},{\"cat\":8,\"src\":6,\"loc\":7},{\"cat\":29,\"src\":14,\"loc\":5},{\"cat\":17,\"src\":13,\"loc\":1},{\"cat\":8,\"src\":3,\"loc\":6},{\"cat\":29,\"src\":5,\"loc\":4},{\"cat\":29,\"src\":19,\"loc\":3},{\"cat\":8,\"src\":9,\"loc\":8},{\"cat\":17,\"src\":6,\"loc\":2}]","condition":3,"rt":20023,"time_sequence":[1126,1102,1119,1102,1120,1103,1111,1110,1118,10012],"trial_type":"animation","trial_index":100,"time_elapsed":1182539,"internal_node_id":"0.0-3.0-61.0","session":3,"startTime":"2020-1-8 8:35:34","attn_word":["LION"],"stimulus":"setup3"},{"rt":2545,"stimulus":"flanker_instructions","key_press":39,"trial_type":"html-keyboard-response","trial_index":101,"time_elapsed":1185089,"internal_node_id":"0.0-3.0-62.0","session":3,"startTime":"2020-1-8 8:35:34","attn_word":["LION"]},{"rt":563,"stimulus":"flanker_test","key_press":39,"stim_type":"congruent","direction":"right","trial_type":"image-keyboard-response","trial_index":102,"time_elapsed":1186658,"internal_node_id":"0.0-3.0-63.0-0.0","session":3,"startTime":"2020-1-8 8:35:34","attn_word":["LION"],"correct":true},{"rt":633,"stimulus":"flanker_test","key_press":39,"stim_type":"incongruent","direction":"right","trial_type":"image-keyboard-response","trial_index":103,"time_elapsed":1188296,"internal_node_id":"0.0-3.0-63.0-0.1","session":3,"startTime":"2020-1-8 8:35:34","attn_word":["LION"],"correct":true},{"rt":499,"stimulus":"flanker_test","key_press":37,"stim_type":"incongruent","direction":"left","trial_type":"image-keyboard-response","trial_index":104,"time_elapsed":1189247,"internal_node_id":"0.0-3.0-63.0-0.2","session":3,"startTime":"2020-1-8 8:35:34","attn_word":["LION"],"correct":true},{"rt":478,"stimulus":"flanker_test","key_press":37,"stim_type":"congruent","direction":"left","trial_type":"image-keyboard-response","trial_index":105,"time_elapsed":1190457,"internal_node_id":"0.0-3.0-63.0-0.3","session":3,"startTime":"2020-1-8 8:35:34","attn_word":["LION"],"correct":true},{"init_locations":"[{\"cat\":17,\"src\":5,\"x\":56,\"y\":72},{\"cat\":8,\"src\":6,\"x\":55,\"y\":436},{\"cat\":29,\"src\":14,\"x\":9,\"y\":252},{\"cat\":17,\"src\":13,\"x\":26,\"y\":19},{\"cat\":8,\"src\":3,\"x\":24,\"y\":371},{\"cat\":29,\"src\":5,\"x\":79,\"y\":305},{\"cat\":29,\"src\":19,\"x\":53,\"y\":481},{\"cat\":8,\"src\":9,\"x\":9,\"y\":123},{\"cat\":17,\"src\":6,\"x\":73,\"y\":191}]","moves":"[{\"cat\":\"17\",\"src\":\"13\",\"x\":0,\"y\":0},{\"cat\":\"17\",\"src\":\"5\",\"x\":133,\"y\":76},{\"cat\":\"17\",\"src\":\"5\",\"x\":56,\"y\":71},{\"cat\":\"17\",\"src\":\"5\",\"x\":0,\"y\":0},{\"cat\":\"17\",\"src\":\"6\",\"x\":0,\"y\":0},{\"cat\":\"29\",\"src\":\"14\",\"x\":0,\"y\":0},{\"cat\":\"29\",\"src\":\"5\",\"x\":0,\"y\":0},{\"cat\":\"29\",\"src\":\"19\",\"x\":0,\"y\":0},{\"cat\":\"8\",\"src\":\"3\",\"x\":0,\"y\":0},{\"cat\":\"8\",\"src\":\"9\",\"x\":0,\"y\":0},{\"cat\":\"8\",\"src\":\"6\",\"x\":0,\"y\":0}]","final_locations":"[{\"cat\":17,\"src\":13,\"loc\":1},{\"cat\":17,\"src\":5,\"loc\":0},{\"cat\":17,\"src\":6,\"loc\":2},{\"cat\":29,\"src\":14,\"loc\":5},{\"cat\":29,\"src\":5,\"loc\":4},{\"cat\":29,\"src\":19,\"loc\":3},{\"cat\":8,\"src\":3,\"loc\":6},{\"cat\":8,\"src\":9,\"loc\":8},{\"cat\":8,\"src\":6,\"loc\":7}]","rt":53507,"sort_correct":9,"finalLocations":[[17,5,0,1],[17,13,1,0],[17,6,2,2],[29,19,3,5],[29,5,4,4],[29,14,5,3],[8,3,6,6],[8,6,7,8],[8,9,8,7]],"trial_type":"free-sort","trial_index":106,"time_elapsed":1244943,"internal_node_id":"0.0-3.0-64.0","session":3,"startTime":"2020-1-8 8:35:34","attn_word":["LION"],"stimulus":"sort_trial"},{"rt":6230,"stimulus":"sort_feedback","key_press":32,"trial_type":"html-keyboard-response","trial_index":107,"time_elapsed":1251177,"internal_node_id":"0.0-3.0-65.0","session":3,"startTime":"2020-1-8 8:35:34","attn_word":["LION"]},{"animation_sequence":"[{\"cat\":30,\"src\":15,\"loc\":3},{\"cat\":14,\"src\":1,\"loc\":5},{\"cat\":16,\"src\":16,\"loc\":4},{\"cat\":30,\"src\":1,\"loc\":0},{\"cat\":14,\"src\":0,\"loc\":1},{\"cat\":16,\"src\":5,\"loc\":2},{\"cat\":16,\"src\":13,\"loc\":6},{\"cat\":14,\"src\":9,\"loc\":8},{\"cat\":30,\"src\":7,\"loc\":7}]","condition":2,"rt":20007,"time_sequence":[1119,1117,1104,1117,1104,1117,1104,1103,1104,10018],"trial_type":"animation","trial_index":108,"time_elapsed":1271185,"internal_node_id":"0.0-3.0-66.0","session":3,"startTime":"2020-1-8 8:35:34","attn_word":["LION"],"stimulus":"setup2"},{"rt":1780,"stimulus":"flanker_instructions","key_press":39,"trial_type":"html-keyboard-response","trial_index":109,"time_elapsed":1272971,"internal_node_id":"0.0-3.0-67.0","session":3,"startTime":"2020-1-8 8:35:34","attn_word":["LION"]},{"rt":null,"stimulus":"flanker_test","key_press":null,"stim_type":"incongruent","direction":"right","trial_type":"image-keyboard-response","trial_index":110,"time_elapsed":1274889,"internal_node_id":"0.0-3.0-68.0-0.0","session":3,"startTime":"2020-1-8 8:35:34","attn_word":["LION"],"correct":false},{"rt":668,"stimulus":"flanker_test","key_press":37,"stim_type":"incongruent","direction":"left","trial_type":"image-keyboard-response","trial_index":111,"time_elapsed":1275895,"internal_node_id":"0.0-3.0-68.0-0.1","session":3,"startTime":"2020-1-8 8:35:34","attn_word":["LION"],"correct":true},{"rt":786,"stimulus":"flanker_test","key_press":37,"stim_type":"congruent","direction":"left","trial_type":"image-keyboard-response","trial_index":112,"time_elapsed":1277387,"internal_node_id":"0.0-3.0-68.0-0.2","session":3,"startTime":"2020-1-8 8:35:34","attn_word":["LION"],"correct":true},{"rt":457,"stimulus":"flanker_test","key_press":39,"stim_type":"congruent","direction":"right","trial_type":"image-keyboard-response","trial_index":113,"time_elapsed":1278326,"internal_node_id":"0.0-3.0-68.0-0.3","session":3,"startTime":"2020-1-8 8:35:34","attn_word":["LION"],"correct":true},{"init_locations":"[{\"cat\":30,\"src\":15,\"x\":15,\"y\":382},{\"cat\":14,\"src\":1,\"x\":73,\"y\":307},{\"cat\":16,\"src\":16,\"x\":40,\"y\":265},{\"cat\":30,\"src\":1,\"x\":1,\"y\":141},{\"cat\":14,\"src\":0,\"x\":31,\"y\":487},{\"cat\":16,\"src\":5,\"x\":79,\"y\":80},{\"cat\":16,\"src\":13,\"x\":6,\"y\":440},{\"cat\":14,\"src\":9,\"x\":71,\"y\":9},{\"cat\":30,\"src\":7,\"x\":77,\"y\":185}]","moves":"[{\"cat\":\"30\",\"src\":\"7\",\"x\":0,\"y\":0},{\"cat\":\"16\",\"src\":\"13\",\"x\":0,\"y\":0},{\"cat\":\"14\",\"src\":\"9\",\"x\":0,\"y\":0},{\"cat\":\"14\",\"src\":\"1\",\"x\":433,\"y\":287},{\"cat\":\"14\",\"src\":\"1\",\"x\":0,\"y\":0},{\"cat\":\"16\",\"src\":\"16\",\"x\":0,\"y\":0},{\"cat\":\"30\",\"src\":\"15\",\"x\":0,\"y\":0},{\"cat\":\"30\",\"src\":\"1\",\"x\":0,\"y\":0},{\"cat\":\"16\",\"src\":\"5\",\"x\":0,\"y\":0},{\"cat\":\"14\",\"src\":\"0\",\"x\":0,\"y\":0}]","final_locations":"[{\"cat\":30,\"src\":7,\"loc\":7},{\"cat\":16,\"src\":13,\"loc\":6},{\"cat\":14,\"src\":9,\"loc\":8},{\"cat\":14,\"src\":1,\"loc\":5},{\"cat\":16,\"src\":16,\"loc\":4},{\"cat\":30,\"src\":15,\"loc\":3},{\"cat\":30,\"src\":1,\"loc\":0},{\"cat\":16,\"src\":5,\"loc\":2},{\"cat\":14,\"src\":0,\"loc\":1}]","rt":48058,"sort_correct":9,"finalLocations":[[30,1,0,6],[14,0,1,8],[16,5,2,7],[30,15,3,5],[16,16,4,4],[14,1,5,3],[16,13,6,1],[30,7,7,0],[14,9,8,2]],"trial_type":"free-sort","trial_index":114,"time_elapsed":1326719,"internal_node_id":"0.0-3.0-69.0","session":3,"startTime":"2020-1-8 8:35:34","attn_word":["LION"],"stimulus":"sort_trial"},{"rt":8433,"stimulus":"sort_feedback","key_press":32,"trial_type":"html-keyboard-response","trial_index":115,"time_elapsed":1335157,"internal_node_id":"0.0-3.0-70.0","session":3,"startTime":"2020-1-8 8:35:34","attn_word":["LION"]},{"animation_sequence":"[{\"cat\":18,\"src\":6,\"loc\":1},{\"cat\":18,\"src\":2,\"loc\":8},{\"cat\":18,\"src\":0,\"loc\":3},{\"cat\":26,\"src\":14,\"loc\":7},{\"cat\":26,\"src\":13,\"loc\":5},{\"cat\":26,\"src\":11,\"loc\":0},{\"cat\":29,\"src\":16,\"loc\":6},{\"cat\":29,\"src\":0,\"loc\":2},{\"cat\":29,\"src\":6,\"loc\":4}]","condition":4,"rt":20014,"time_sequence":[1108,1102,1116,1102,1124,1118,1118,1118,1104,10004],"trial_type":"animation","trial_index":116,"time_elapsed":1355173,"internal_node_id":"0.0-3.0-71.0","session":3,"startTime":"2020-1-8 8:35:34","attn_word":["LION"],"stimulus":"setup4"},{"rt":654,"stimulus":"flanker_instructions","key_press":39,"trial_type":"html-keyboard-response","trial_index":117,"time_elapsed":1355831,"internal_node_id":"0.0-3.0-72.0","session":3,"startTime":"2020-1-8 8:35:34","attn_word":["LION"]},{"rt":853,"stimulus":"flanker_test","key_press":37,"stim_type":"incongruent","direction":"left","trial_type":"image-keyboard-response","trial_index":118,"time_elapsed":1357706,"internal_node_id":"0.0-3.0-73.0-0.0","session":3,"startTime":"2020-1-8 8:35:34","attn_word":["LION"],"correct":true},{"rt":559,"stimulus":"flanker_test","key_press":37,"stim_type":"congruent","direction":"left","trial_type":"image-keyboard-response","trial_index":119,"time_elapsed":1359242,"internal_node_id":"0.0-3.0-73.0-0.1","session":3,"startTime":"2020-1-8 8:35:34","attn_word":["LION"],"correct":true},{"rt":433,"stimulus":"flanker_test","key_press":39,"stim_type":"congruent","direction":"right","trial_type":"image-keyboard-response","trial_index":120,"time_elapsed":1360638,"internal_node_id":"0.0-3.0-73.0-0.2","session":3,"startTime":"2020-1-8 8:35:34","attn_word":["LION"],"correct":true},{"rt":433,"stimulus":"flanker_test","key_press":39,"stim_type":"incongruent","direction":"right","trial_type":"image-keyboard-response","trial_index":121,"time_elapsed":1361896,"internal_node_id":"0.0-3.0-73.0-0.3","session":3,"startTime":"2020-1-8 8:35:34","attn_word":["LION"],"correct":true},{"init_locations":"[{\"cat\":18,\"src\":6,\"x\":23,\"y\":311},{\"cat\":18,\"src\":2,\"x\":6,\"y\":128},{\"cat\":18,\"src\":0,\"x\":68,\"y\":191},{\"cat\":26,\"src\":14,\"x\":15,\"y\":10},{\"cat\":26,\"src\":13,\"x\":81,\"y\":499},{\"cat\":26,\"src\":11,\"x\":22,\"y\":388},{\"cat\":29,\"src\":16,\"x\":28,\"y\":64},{\"cat\":29,\"src\":0,\"x\":69,\"y\":265},{\"cat\":29,\"src\":6,\"x\":46,\"y\":419}]","moves":"[{\"cat\":\"18\",\"src\":\"6\",\"x\":0,\"y\":0},{\"cat\":\"26\",\"src\":\"11\",\"x\":0,\"y\":0},{\"cat\":\"29\",\"src\":\"0\",\"x\":0,\"y\":0},{\"cat\":\"26\",\"src\":\"13\",\"x\":0,\"y\":0},{\"cat\":\"29\",\"src\":\"6\",\"x\":0,\"y\":0},{\"cat\":\"18\",\"src\":\"0\",\"x\":0,\"y\":0},{\"cat\":\"26\",\"src\":\"14\",\"x\":0,\"y\":0},{\"cat\":\"29\",\"src\":\"16\",\"x\":0,\"y\":0},{\"cat\":\"18\",\"src\":\"2\",\"x\":0,\"y\":0}]","final_locations":"[{\"cat\":18,\"src\":6,\"loc\":1},{\"cat\":26,\"src\":11,\"loc\":0},{\"cat\":29,\"src\":0,\"loc\":2},{\"cat\":26,\"src\":13,\"loc\":5},{\"cat\":29,\"src\":6,\"loc\":4},{\"cat\":18,\"src\":0,\"loc\":3},{\"cat\":26,\"src\":14,\"loc\":7},{\"cat\":29,\"src\":16,\"loc\":6},{\"cat\":18,\"src\":2,\"loc\":8}]","rt":47791,"sort_correct":9,"finalLocations":[[26,11,0,1],[18,6,1,0],[29,0,2,2],[18,0,3,5],[29,6,4,4],[26,13,5,3],[29,16,6,7],[26,14,7,6],[18,2,8,8]],"trial_type":"free-sort","trial_index":122,"time_elapsed":1410460,"internal_node_id":"0.0-3.0-74.0","session":3,"startTime":"2020-1-8 8:35:34","attn_word":["LION"],"stimulus":"sort_trial"},{"rt":2627,"stimulus":"sort_feedback","key_press":32,"trial_type":"html-keyboard-response","trial_index":123,"time_elapsed":1413091,"internal_node_id":"0.0-3.0-75.0","session":3,"startTime":"2020-1-8 8:35:34","attn_word":["LION"]},{"animation_sequence":"[{\"cat\":1,\"src\":9,\"loc\":1},{\"cat\":18,\"src\":19,\"loc\":6},{\"cat\":26,\"src\":12,\"loc\":3},{\"cat\":1,\"src\":11,\"loc\":2},{\"cat\":18,\"src\":6,\"loc\":8},{\"cat\":26,\"src\":19,\"loc\":4},{\"cat\":26,\"src\":16,\"loc\":5},{\"cat\":18,\"src\":1,\"loc\":7},{\"cat\":1,\"src\":12,\"loc\":0}]","condition":3,"rt":19986,"time_sequence":[1110,1101,1104,1105,1122,1113,1112,1103,1113,10003],"trial_type":"animation","trial_index":124,"time_elapsed":1433079,"internal_node_id":"0.0-3.0-76.0","session":3,"startTime":"2020-1-8 8:35:34","attn_word":["LION"],"stimulus":"setup3"},{"rt":75876,"stimulus":"flanker_instructions","key_press":39,"trial_type":"html-keyboard-response","trial_index":125,"time_elapsed":1508960,"internal_node_id":"0.0-3.0-77.0","session":3,"startTime":"2020-1-8 8:35:34","attn_word":["LION"]},{"rt":562,"stimulus":"flanker_test","key_press":39,"stim_type":"congruent","direction":"right","trial_type":"image-keyboard-response","trial_index":126,"time_elapsed":1510538,"internal_node_id":"0.0-3.0-78.0-0.0","session":3,"startTime":"2020-1-8 8:35:34","attn_word":["LION"],"correct":true},{"rt":496,"stimulus":"flanker_test","key_press":39,"stim_type":"incongruent","direction":"right","trial_type":"image-keyboard-response","trial_index":127,"time_elapsed":1511930,"internal_node_id":"0.0-3.0-78.0-0.1","session":3,"startTime":"2020-1-8 8:35:34","attn_word":["LION"],"correct":true},{"rt":465,"stimulus":"flanker_test","key_press":37,"stim_type":"incongruent","direction":"left","trial_type":"image-keyboard-response","trial_index":128,"time_elapsed":1512942,"internal_node_id":"0.0-3.0-78.0-0.2","session":3,"startTime":"2020-1-8 8:35:34","attn_word":["LION"],"correct":true},{"rt":347,"stimulus":"flanker_test","key_press":37,"stim_type":"congruent","direction":"left","trial_type":"image-keyboard-response","trial_index":129,"time_elapsed":1514414,"internal_node_id":"0.0-3.0-78.0-0.3","session":3,"startTime":"2020-1-8 8:35:34","attn_word":["LION"],"correct":true},{"init_locations":"[{\"cat\":1,\"src\":9,\"x\":80,\"y\":422},{\"cat\":18,\"src\":19,\"x\":42,\"y\":28},{\"cat\":26,\"src\":12,\"x\":10,\"y\":370},{\"cat\":1,\"src\":11,\"x\":37,\"y\":200},{\"cat\":18,\"src\":6,\"x\":74,\"y\":494},{\"cat\":26,\"src\":19,\"x\":58,\"y\":324},{\"cat\":26,\"src\":16,\"x\":60,\"y\":260},{\"cat\":18,\"src\":1,\"x\":12,\"y\":145},{\"cat\":1,\"src\":12,\"x\":23,\"y\":70}]","moves":"[{\"cat\":\"1\",\"src\":\"9\",\"x\":0,\"y\":0},{\"cat\":\"1\",\"src\":\"12\",\"x\":0,\"y\":0},{\"cat\":\"1\",\"src\":\"11\",\"x\":0,\"y\":0},{\"cat\":\"26\",\"src\":\"16\",\"x\":0,\"y\":0},{\"cat\":\"26\",\"src\":\"19\",\"x\":0,\"y\":0},{\"cat\":\"26\",\"src\":\"12\",\"x\":0,\"y\":0},{\"cat\":\"18\",\"src\":\"19\",\"x\":0,\"y\":0},{\"cat\":\"18\",\"src\":\"1\",\"x\":12,\"y\":156},{\"cat\":\"18\",\"src\":\"1\",\"x\":288,\"y\":384},{\"cat\":\"18\",\"src\":\"1\",\"x\":0,\"y\":0},{\"cat\":\"18\",\"src\":\"6\",\"x\":0,\"y\":0}]","final_locations":"[{\"cat\":1,\"src\":9,\"loc\":1},{\"cat\":1,\"src\":12,\"loc\":0},{\"cat\":1,\"src\":11,\"loc\":2},{\"cat\":26,\"src\":16,\"loc\":5},{\"cat\":26,\"src\":19,\"loc\":4},{\"cat\":26,\"src\":12,\"loc\":3},{\"cat\":18,\"src\":19,\"loc\":6},{\"cat\":18,\"src\":1,\"loc\":7},{\"cat\":18,\"src\":6,\"loc\":8}]","rt":64201,"sort_correct":9,"finalLocations":[[1,12,0,1],[1,9,1,0],[1,11,2,2],[26,12,3,5],[26,19,4,4],[26,16,5,3],[18,19,6,6],[18,1,7,7],[18,6,8,8]],"trial_type":"free-sort","trial_index":130,"time_elapsed":1579455,"internal_node_id":"0.0-3.0-79.0","session":3,"startTime":"2020-1-8 8:35:34","attn_word":["LION"],"stimulus":"sort_trial"},{"rt":1123,"stimulus":"sort_feedback","key_press":32,"trial_type":"html-keyboard-response","trial_index":131,"time_elapsed":1580581,"internal_node_id":"0.0-3.0-80.0","session":3,"startTime":"2020-1-8 8:35:34","attn_word":["LION"]},{"animation_sequence":"[{\"cat\":3,\"src\":8,\"loc\":6},{\"cat\":3,\"src\":16,\"loc\":5},{\"cat\":3,\"src\":4,\"loc\":1},{\"cat\":28,\"src\":17,\"loc\":3},{\"cat\":28,\"src\":11,\"loc\":7},{\"cat\":28,\"src\":9,\"loc\":0},{\"cat\":17,\"src\":2,\"loc\":8},{\"cat\":17,\"src\":3,\"loc\":4},{\"cat\":17,\"src\":16,\"loc\":2}]","condition":4,"rt":20009,"time_sequence":[1118,1104,1103,1118,1110,1116,1117,1103,1117,10003],"trial_type":"animation","trial_index":132,"time_elapsed":1600592,"internal_node_id":"0.0-3.0-81.0","session":3,"startTime":"2020-1-8 8:35:34","attn_word":["LION"],"stimulus":"setup4"},{"rt":29814,"stimulus":"flanker_instructions","key_press":39,"trial_type":"html-keyboard-response","trial_index":133,"time_elapsed":1630410,"internal_node_id":"0.0-3.0-82.0","session":3,"startTime":"2020-1-8 8:35:34","attn_word":["LION"]},{"rt":null,"stimulus":"flanker_test","key_press":null,"stim_type":"congruent","direction":"left","trial_type":"image-keyboard-response","trial_index":134,"time_elapsed":1632319,"internal_node_id":"0.0-3.0-83.0-0.0","session":3,"startTime":"2020-1-8 8:35:34","attn_word":["LION"],"correct":false},{"rt":528,"stimulus":"flanker_test","key_press":39,"stim_type":"congruent","direction":"right","trial_type":"image-keyboard-response","trial_index":135,"time_elapsed":1633765,"internal_node_id":"0.0-3.0-83.0-0.1","session":3,"startTime":"2020-1-8 8:35:34","attn_word":["LION"],"correct":true},{"rt":560,"stimulus":"flanker_test","key_press":37,"stim_type":"incongruent","direction":"left","trial_type":"image-keyboard-response","trial_index":136,"time_elapsed":1635270,"internal_node_id":"0.0-3.0-83.0-0.2","session":3,"startTime":"2020-1-8 8:35:34","attn_word":["LION"],"correct":true},{"rt":398,"stimulus":"flanker_test","key_press":39,"stim_type":"incongruent","direction":"right","trial_type":"image-keyboard-response","trial_index":137,"time_elapsed":1636773,"internal_node_id":"0.0-3.0-83.0-0.3","session":3,"startTime":"2020-1-8 8:35:34","attn_word":["LION"],"correct":true},{"init_locations":"[{\"cat\":3,\"src\":8,\"x\":33,\"y\":324},{\"cat\":3,\"src\":16,\"x\":36,\"y\":438},{\"cat\":3,\"src\":4,\"x\":53,\"y\":13},{\"cat\":28,\"src\":17,\"x\":36,\"y\":484},{\"cat\":28,\"src\":11,\"x\":35,\"y\":190},{\"cat\":28,\"src\":9,\"x\":51,\"y\":366},{\"cat\":17,\"src\":2,\"x\":81,\"y\":81},{\"cat\":17,\"src\":3,\"x\":11,\"y\":143},{\"cat\":17,\"src\":16,\"x\":38,\"y\":250}]","moves":"[{\"cat\":\"3\",\"src\":\"4\",\"x\":0,\"y\":0},{\"cat\":\"28\",\"src\":\"9\",\"x\":0,\"y\":0},{\"cat\":\"17\",\"src\":\"16\",\"x\":0,\"y\":0},{\"cat\":\"3\",\"src\":\"16\",\"x\":73,\"y\":410},{\"cat\":\"3\",\"src\":\"16\",\"x\":75,\"y\":411},{\"cat\":\"3\",\"src\":\"16\",\"x\":0,\"y\":0},{\"cat\":\"17\",\"src\":\"3\",\"x\":0,\"y\":0},{\"cat\":\"28\",\"src\":\"17\",\"x\":0,\"y\":0},{\"cat\":\"3\",\"src\":\"8\",\"x\":0,\"y\":0},{\"cat\":\"17\",\"src\":\"2\",\"x\":0,\"y\":0},{\"cat\":\"28\",\"src\":\"11\",\"x\":0,\"y\":0}]","final_locations":"[{\"cat\":3,\"src\":4,\"loc\":1},{\"cat\":28,\"src\":9,\"loc\":0},{\"cat\":17,\"src\":16,\"loc\":2},{\"cat\":3,\"src\":16,\"loc\":5},{\"cat\":17,\"src\":3,\"loc\":4},{\"cat\":28,\"src\":17,\"loc\":3},{\"cat\":3,\"src\":8,\"loc\":6},{\"cat\":17,\"src\":2,\"loc\":8},{\"cat\":28,\"src\":11,\"loc\":7}]","rt":45662,"sort_correct":9,"finalLocations":[[28,9,0,1],[3,4,1,0],[17,16,2,2],[28,17,3,5],[17,3,4,4],[3,16,5,3],[3,8,6,6],[28,11,7,8],[17,2,8,7]],"trial_type":"free-sort","trial_index":138,"time_elapsed":1682784,"internal_node_id":"0.0-3.0-84.0","session":3,"startTime":"2020-1-8 8:35:34","attn_word":["LION"],"stimulus":"sort_trial"},{"rt":7529,"stimulus":"sort_feedback","key_press":32,"trial_type":"html-keyboard-response","trial_index":139,"time_elapsed":1690316,"internal_node_id":"0.0-3.0-85.0","session":3,"startTime":"2020-1-8 8:35:34","attn_word":["LION"]},{"animation_sequence":"[{\"cat\":24,\"src\":9,\"loc\":2},{\"cat\":24,\"src\":18,\"loc\":0},{\"cat\":24,\"src\":10,\"loc\":1},{\"cat\":28,\"src\":6,\"loc\":6},{\"cat\":28,\"src\":4,\"loc\":8},{\"cat\":28,\"src\":5,\"loc\":7},{\"cat\":32,\"src\":15,\"loc\":4},{\"cat\":32,\"src\":3,\"loc\":5},{\"cat\":32,\"src\":18,\"loc\":3}]","condition":1,"rt":19991,"time_sequence":[1106,1105,1111,1105,1117,1114,1103,1106,1109,10015],"trial_type":"animation","trial_index":140,"time_elapsed":1710309,"internal_node_id":"0.0-3.0-86.0","session":3,"startTime":"2020-1-8 8:35:34","attn_word":["LION"],"stimulus":"setup1"},{"rt":121622,"stimulus":"flanker_instructions","key_press":39,"trial_type":"html-keyboard-response","trial_index":141,"time_elapsed":1831936,"internal_node_id":"0.0-3.0-87.0","session":3,"startTime":"2020-1-8 8:35:34","attn_word":["LION"]},{"rt":683,"stimulus":"flanker_test","key_press":37,"stim_type":"congruent","direction":"left","trial_type":"image-keyboard-response","trial_index":142,"time_elapsed":1833624,"internal_node_id":"0.0-3.0-88.0-0.0","session":3,"startTime":"2020-1-8 8:35:34","attn_word":["LION"],"correct":true},{"rt":540,"stimulus":"flanker_test","key_press":39,"stim_type":"congruent","direction":"right","trial_type":"image-keyboard-response","trial_index":143,"time_elapsed":1834909,"internal_node_id":"0.0-3.0-88.0-0.1","session":3,"startTime":"2020-1-8 8:35:34","attn_word":["LION"],"correct":true},{"rt":642,"stimulus":"flanker_test","key_press":39,"stim_type":"incongruent","direction":"right","trial_type":"image-keyboard-response","trial_index":144,"time_elapsed":1836217,"internal_node_id":"0.0-3.0-88.0-0.2","session":3,"startTime":"2020-1-8 8:35:34","attn_word":["LION"],"correct":true},{"rt":478,"stimulus":"flanker_test","key_press":37,"stim_type":"incongruent","direction":"left","trial_type":"image-keyboard-response","trial_index":145,"time_elapsed":1837430,"internal_node_id":"0.0-3.0-88.0-0.3","session":3,"startTime":"2020-1-8 8:35:34","attn_word":["LION"],"correct":true},{"init_locations":"[{\"cat\":24,\"src\":9,\"x\":52,\"y\":180},{\"cat\":24,\"src\":18,\"x\":73,\"y\":84},{\"cat\":24,\"src\":10,\"x\":52,\"y\":385},{\"cat\":28,\"src\":6,\"x\":47,\"y\":21},{\"cat\":28,\"src\":4,\"x\":63,\"y\":261},{\"cat\":28,\"src\":5,\"x\":15,\"y\":440},{\"cat\":32,\"src\":15,\"x\":68,\"y\":487},{\"cat\":32,\"src\":3,\"x\":34,\"y\":141},{\"cat\":32,\"src\":18,\"x\":39,\"y\":328}]","moves":"[{\"cat\":\"32\",\"src\":\"15\",\"x\":0,\"y\":0},{\"cat\":\"32\",\"src\":\"3\",\"x\":0,\"y\":0},{\"cat\":\"32\",\"src\":\"18\",\"x\":0,\"y\":0},{\"cat\":\"28\",\"src\":\"5\",\"x\":0,\"y\":0},{\"cat\":\"28\",\"src\":\"6\",\"x\":0,\"y\":0},{\"cat\":\"28\",\"src\":\"4\",\"x\":0,\"y\":0},{\"cat\":\"24\",\"src\":\"10\",\"x\":0,\"y\":0},{\"cat\":\"24\",\"src\":\"18\",\"x\":0,\"y\":0},{\"cat\":\"24\",\"src\":\"9\",\"x\":0,\"y\":0}]","final_locations":"[{\"cat\":32,\"src\":15,\"loc\":4},{\"cat\":32,\"src\":3,\"loc\":5},{\"cat\":32,\"src\":18,\"loc\":3},{\"cat\":28,\"src\":5,\"loc\":7},{\"cat\":28,\"src\":6,\"loc\":6},{\"cat\":28,\"src\":4,\"loc\":8},{\"cat\":24,\"src\":10,\"loc\":1},{\"cat\":24,\"src\":18,\"loc\":0},{\"cat\":24,\"src\":9,\"loc\":2}]","rt":46804,"sort_correct":9,"finalLocations":[[24,18,0,7],[24,10,1,6],[24,9,2,8],[32,18,3,2],[32,15,4,0],[32,3,5,1],[28,6,6,4],[28,5,7,3],[28,4,8,5]],"trial_type":"free-sort","trial_index":146,"time_elapsed":1884839,"internal_node_id":"0.0-3.0-89.0","session":3,"startTime":"2020-1-8 8:35:34","attn_word":["LION"],"stimulus":"sort_trial"},{"rt":6784,"stimulus":"sort_feedback","key_press":32,"trial_type":"html-keyboard-response","trial_index":147,"time_elapsed":1891626,"internal_node_id":"0.0-3.0-90.0","session":3,"startTime":"2020-1-8 8:35:34","attn_word":["LION"]},{"animation_sequence":"[{\"cat\":13,\"src\":12,\"loc\":8},{\"cat\":33,\"src\":15,\"loc\":1},{\"cat\":32,\"src\":6,\"loc\":3},{\"cat\":13,\"src\":15,\"loc\":0},{\"cat\":33,\"src\":11,\"loc\":5},{\"cat\":32,\"src\":4,\"loc\":6},{\"cat\":32,\"src\":14,\"loc\":2},{\"cat\":13,\"src\":14,\"loc\":4},{\"cat\":33,\"src\":4,\"loc\":7}]","condition":5,"rt":20031,"time_sequence":[1124,1101,1118,1104,1112,1119,1115,1116,1117,10005],"trial_type":"animation","trial_index":148,"time_elapsed":1911659,"internal_node_id":"0.0-3.0-91.0","session":3,"startTime":"2020-1-8 8:35:34","attn_word":["LION"],"stimulus":"setup5"},{"rt":2540,"stimulus":"flanker_instructions","key_press":39,"trial_type":"html-keyboard-response","trial_index":149,"time_elapsed":1914204,"internal_node_id":"0.0-3.0-92.0","session":3,"startTime":"2020-1-8 8:35:34","attn_word":["LION"]},{"rt":562,"stimulus":"flanker_test","key_press":37,"stim_type":"congruent","direction":"left","trial_type":"image-keyboard-response","trial_index":150,"time_elapsed":1915770,"internal_node_id":"0.0-3.0-93.0-0.0","session":3,"startTime":"2020-1-8 8:35:34","attn_word":["LION"],"correct":true},{"rt":486,"stimulus":"flanker_test","key_press":39,"stim_type":"incongruent","direction":"right","trial_type":"image-keyboard-response","trial_index":151,"time_elapsed":1917169,"internal_node_id":"0.0-3.0-93.0-0.1","session":3,"startTime":"2020-1-8 8:35:34","attn_word":["LION"],"correct":true},{"rt":526,"stimulus":"flanker_test","key_press":39,"stim_type":"congruent","direction":"right","trial_type":"image-keyboard-response","trial_index":152,"time_elapsed":1918580,"internal_node_id":"0.0-3.0-93.0-0.2","session":3,"startTime":"2020-1-8 8:35:34","attn_word":["LION"],"correct":true},{"rt":446,"stimulus":"flanker_test","key_press":37,"stim_type":"incongruent","direction":"left","trial_type":"image-keyboard-response","trial_index":153,"time_elapsed":1919336,"internal_node_id":"0.0-3.0-93.0-0.3","session":3,"startTime":"2020-1-8 8:35:34","attn_word":["LION"],"correct":true},{"init_locations":"[{\"cat\":13,\"src\":12,\"x\":73,\"y\":76},{\"cat\":33,\"src\":15,\"x\":53,\"y\":428},{\"cat\":32,\"src\":6,\"x\":39,\"y\":367},{\"cat\":13,\"src\":15,\"x\":81,\"y\":245},{\"cat\":33,\"src\":11,\"x\":53,\"y\":317},{\"cat\":32,\"src\":4,\"x\":60,\"y\":126},{\"cat\":32,\"src\":14,\"x\":24,\"y\":486},{\"cat\":13,\"src\":14,\"x\":74,\"y\":1},{\"cat\":33,\"src\":4,\"x\":15,\"y\":185}]","moves":"[{\"cat\":\"33\",\"src\":\"15\",\"x\":435,\"y\":77},{\"cat\":\"33\",\"src\":\"15\",\"x\":0,\"y\":0},{\"cat\":\"13\",\"src\":\"15\",\"x\":0,\"y\":0},{\"cat\":\"32\",\"src\":\"14\",\"x\":30,\"y\":480},{\"cat\":\"32\",\"src\":\"14\",\"x\":397,\"y\":182},{\"cat\":\"32\",\"src\":\"14\",\"x\":0,\"y\":0},{\"cat\":\"32\",\"src\":\"4\",\"x\":0,\"y\":0},{\"cat\":\"33\",\"src\":\"4\",\"x\":0,\"y\":0},{\"cat\":\"13\",\"src\":\"12\",\"x\":0,\"y\":0},{\"cat\":\"33\",\"src\":\"11\",\"x\":0,\"y\":0},{\"cat\":\"13\",\"src\":\"14\",\"x\":0,\"y\":0},{\"cat\":\"32\",\"src\":\"6\",\"x\":0,\"y\":0}]","final_locations":"[{\"cat\":33,\"src\":15,\"loc\":1},{\"cat\":13,\"src\":15,\"loc\":0},{\"cat\":32,\"src\":14,\"loc\":2},{\"cat\":32,\"src\":4,\"loc\":6},{\"cat\":33,\"src\":4,\"loc\":7},{\"cat\":13,\"src\":12,\"loc\":8},{\"cat\":33,\"src\":11,\"loc\":5},{\"cat\":13,\"src\":14,\"loc\":4},{\"cat\":32,\"src\":6,\"loc\":3}]","rt":54057,"sort_correct":9,"finalLocations":[[13,15,0,1],[33,15,1,0],[32,14,2,2],[32,6,3,8],[13,14,4,7],[33,11,5,6],[32,4,6,3],[33,4,7,4],[13,12,8,5]],"trial_type":"free-sort","trial_index":154,"time_elapsed":1974037,"internal_node_id":"0.0-3.0-94.0","session":3,"startTime":"2020-1-8 8:35:34","attn_word":["LION"],"stimulus":"sort_trial"},{"rt":6454,"stimulus":"sort_feedback","key_press":32,"trial_type":"html-keyboard-response","trial_index":155,"time_elapsed":1980496,"internal_node_id":"0.0-3.0-95.0","session":3,"startTime":"2020-1-8 8:35:34","attn_word":["LION"]},{"animation_sequence":"[{\"cat\":20,\"src\":6,\"loc\":8},{\"cat\":30,\"src\":7,\"loc\":7},{\"cat\":28,\"src\":14,\"loc\":6},{\"cat\":20,\"src\":19,\"loc\":2},{\"cat\":28,\"src\":16,\"loc\":0},{\"cat\":30,\"src\":11,\"loc\":1},{\"cat\":28,\"src\":11,\"loc\":3},{\"cat\":30,\"src\":12,\"loc\":5},{\"cat\":20,\"src\":15,\"loc\":4}]","condition":2,"rt":19961,"time_sequence":[1103,1113,1103,1104,1111,1111,1104,1104,1104,10004],"trial_type":"animation","trial_index":156,"time_elapsed":2000458,"internal_node_id":"0.0-3.0-96.0","session":3,"startTime":"2020-1-8 8:35:34","attn_word":["LION"],"stimulus":"setup2"},{"rt":6595,"stimulus":"flanker_instructions","key_press":39,"trial_type":"html-keyboard-response","trial_index":157,"time_elapsed":2007057,"internal_node_id":"0.0-3.0-97.0","session":3,"startTime":"2020-1-8 8:35:34","attn_word":["LION"]},{"rt":738,"stimulus":"flanker_test","key_press":37,"stim_type":"incongruent","direction":"left","trial_type":"image-keyboard-response","trial_index":158,"time_elapsed":2008809,"internal_node_id":"0.0-3.0-98.0-0.0","session":3,"startTime":"2020-1-8 8:35:34","attn_word":["LION"],"correct":true},{"rt":581,"stimulus":"flanker_test","key_press":39,"stim_type":"congruent","direction":"right","trial_type":"image-keyboard-response","trial_index":159,"time_elapsed":2010122,"internal_node_id":"0.0-3.0-98.0-0.1","session":3,"startTime":"2020-1-8 8:35:34","attn_word":["LION"],"correct":true},{"rt":508,"stimulus":"flanker_test","key_press":39,"stim_type":"incongruent","direction":"right","trial_type":"image-keyboard-response","trial_index":160,"time_elapsed":2010973,"internal_node_id":"0.0-3.0-98.0-0.2","session":3,"startTime":"2020-1-8 8:35:34","attn_word":["LION"],"correct":true},{"rt":389,"stimulus":"flanker_test","key_press":37,"stim_type":"congruent","direction":"left","trial_type":"image-keyboard-response","trial_index":161,"time_elapsed":2012284,"internal_node_id":"0.0-3.0-98.0-0.3","session":3,"startTime":"2020-1-8 8:35:34","attn_word":["LION"],"correct":true},{"init_locations":"[{\"cat\":20,\"src\":6,\"x\":64,\"y\":268},{\"cat\":30,\"src\":7,\"x\":29,\"y\":499},{\"cat\":28,\"src\":14,\"x\":27,\"y\":9},{\"cat\":20,\"src\":19,\"x\":80,\"y\":137},{\"cat\":28,\"src\":16,\"x\":65,\"y\":300},{\"cat\":30,\"src\":11,\"x\":9,\"y\":81},{\"cat\":28,\"src\":11,\"x\":32,\"y\":363},{\"cat\":30,\"src\":12,\"x\":52,\"y\":194},{\"cat\":20,\"src\":15,\"x\":3,\"y\":425}]","moves":"[{\"cat\":\"30\",\"src\":\"11\",\"x\":0,\"y\":0},{\"cat\":\"28\",\"src\":\"16\",\"x\":0,\"y\":0},{\"cat\":\"20\",\"src\":\"19\",\"x\":0,\"y\":0},{\"cat\":\"30\",\"src\":\"12\",\"x\":0,\"y\":0},{\"cat\":\"20\",\"src\":\"15\",\"x\":0,\"y\":0},{\"cat\":\"28\",\"src\":\"11\",\"x\":0,\"y\":0},{\"cat\":\"20\",\"src\":\"6\",\"x\":0,\"y\":0},{\"cat\":\"28\",\"src\":\"14\",\"x\":0,\"y\":0},{\"cat\":\"30\",\"src\":\"7\",\"x\":0,\"y\":0}]","final_locations":"[{\"cat\":30,\"src\":11,\"loc\":1},{\"cat\":28,\"src\":16,\"loc\":0},{\"cat\":20,\"src\":19,\"loc\":2},{\"cat\":30,\"src\":12,\"loc\":5},{\"cat\":20,\"src\":15,\"loc\":4},{\"cat\":28,\"src\":11,\"loc\":3},{\"cat\":20,\"src\":6,\"loc\":8},{\"cat\":28,\"src\":14,\"loc\":6},{\"cat\":30,\"src\":7,\"loc\":7}]","rt":45742,"sort_correct":9,"finalLocations":[[28,16,0,1],[30,11,1,0],[20,19,2,2],[28,11,3,5],[20,15,4,4],[30,12,5,3],[28,14,6,7],[30,7,7,8],[20,6,8,6]],"trial_type":"free-sort","trial_index":162,"time_elapsed":2059007,"internal_node_id":"0.0-3.0-99.0","session":3,"startTime":"2020-1-8 8:35:34","attn_word":["LION"],"stimulus":"sort_trial"},{"rt":6288,"stimulus":"sort_feedback","key_press":32,"trial_type":"html-keyboard-response","trial_index":163,"time_elapsed":2065298,"internal_node_id":"0.0-3.0-100.0","session":3,"startTime":"2020-1-8 8:35:34","attn_word":["LION"]},{"rt":null,"stimulus":"breakStart","key_press":null,"trial_type":"html-keyboard-response","trial_index":164,"time_elapsed":2095312,"internal_node_id":"0.0-4.0-0.0","session":3,"startTime":"2020-1-8 8:35:34","attn_word":["LION"]},{"rt":2169,"stimulus":"breakEnd","button_pressed":"0","trial_type":"html-button-response","trial_index":165,"time_elapsed":2097485,"internal_node_id":"0.0-4.0-1.0","session":3,"startTime":"2020-1-8 8:35:34","attn_word":["LION"]},{"animation_sequence":"[{\"cat\":31,\"src\":7,\"loc\":3},{\"cat\":22,\"src\":17,\"loc\":2},{\"cat\":0,\"src\":1,\"loc\":6},{\"cat\":0,\"src\":3,\"loc\":7},{\"cat\":31,\"src\":19,\"loc\":4},{\"cat\":22,\"src\":5,\"loc\":0},{\"cat\":31,\"src\":2,\"loc\":5},{\"cat\":0,\"src\":18,\"loc\":8},{\"cat\":22,\"src\":7,\"loc\":1}]","condition":3,"rt":19981,"time_sequence":[1105,1103,1103,1108,1104,1105,1117,1113,1109,10014],"trial_type":"animation","trial_index":166,"time_elapsed":2117468,"internal_node_id":"0.0-5.0-0.0","session":3,"startTime":"2020-1-8 8:35:34","attn_word":["LION"],"stimulus":"setup3"},{"rt":1965,"stimulus":"flanker_instructions","key_press":39,"trial_type":"html-keyboard-response","trial_index":167,"time_elapsed":2119437,"internal_node_id":"0.0-5.0-1.0","session":3,"startTime":"2020-1-8 8:35:34","attn_word":["LION"]},{"rt":886,"stimulus":"flanker_test","key_press":37,"stim_type":"incongruent","direction":"left","trial_type":"image-keyboard-response","trial_index":168,"time_elapsed":2121337,"internal_node_id":"0.0-5.0-2.0-0.0","session":3,"startTime":"2020-1-8 8:35:34","attn_word":["LION"],"correct":true},{"rt":586,"stimulus":"flanker_test","key_press":39,"stim_type":"congruent","direction":"right","trial_type":"image-keyboard-response","trial_index":169,"time_elapsed":2122637,"internal_node_id":"0.0-5.0-2.0-0.1","session":3,"startTime":"2020-1-8 8:35:34","attn_word":["LION"],"correct":true},{"rt":565,"stimulus":"flanker_test","key_press":37,"stim_type":"congruent","direction":"left","trial_type":"image-keyboard-response","trial_index":170,"time_elapsed":2123739,"internal_node_id":"0.0-5.0-2.0-0.2","session":3,"startTime":"2020-1-8 8:35:34","attn_word":["LION"],"correct":true},{"rt":413,"stimulus":"flanker_test","key_press":39,"stim_type":"incongruent","direction":"right","trial_type":"image-keyboard-response","trial_index":171,"time_elapsed":2125312,"internal_node_id":"0.0-5.0-2.0-0.3","session":3,"startTime":"2020-1-8 8:35:34","attn_word":["LION"],"correct":true},{"init_locations":"[{\"cat\":31,\"src\":7,\"x\":23,\"y\":434},{\"cat\":22,\"src\":17,\"x\":29,\"y\":260},{\"cat\":0,\"src\":1,\"x\":6,\"y\":4},{\"cat\":0,\"src\":3,\"x\":26,\"y\":488},{\"cat\":31,\"src\":19,\"x\":34,\"y\":70},{\"cat\":22,\"src\":5,\"x\":79,\"y\":186},{\"cat\":31,\"src\":2,\"x\":28,\"y\":385},{\"cat\":0,\"src\":18,\"x\":60,\"y\":122},{\"cat\":22,\"src\":7,\"x\":45,\"y\":321}]","moves":"[{\"cat\":\"31\",\"src\":\"19\",\"x\":176,\"y\":44},{\"cat\":\"31\",\"src\":\"19\",\"x\":0,\"y\":0},{\"cat\":\"31\",\"src\":\"2\",\"x\":0,\"y\":0},{\"cat\":\"31\",\"src\":\"7\",\"x\":774,\"y\":285},{\"cat\":\"31\",\"src\":\"7\",\"x\":0,\"y\":0},{\"cat\":\"0\",\"src\":\"1\",\"x\":0,\"y\":0},{\"cat\":\"0\",\"src\":\"18\",\"x\":0,\"y\":0},{\"cat\":\"0\",\"src\":\"3\",\"x\":0,\"y\":0},{\"cat\":\"22\",\"src\":\"17\",\"x\":29,\"y\":260},{\"cat\":\"22\",\"src\":\"17\",\"x\":0,\"y\":0},{\"cat\":\"22\",\"src\":\"7\",\"x\":0,\"y\":0},{\"cat\":\"22\",\"src\":\"5\",\"x\":0,\"y\":0}]","final_locations":"[{\"cat\":31,\"src\":19,\"loc\":4},{\"cat\":31,\"src\":2,\"loc\":5},{\"cat\":31,\"src\":7,\"loc\":3},{\"cat\":0,\"src\":1,\"loc\":6},{\"cat\":0,\"src\":18,\"loc\":8},{\"cat\":0,\"src\":3,\"loc\":7},{\"cat\":22,\"src\":17,\"loc\":2},{\"cat\":22,\"src\":7,\"loc\":1},{\"cat\":22,\"src\":5,\"loc\":0}]","rt":51523,"sort_correct":9,"finalLocations":[[22,5,0,8],[22,7,1,7],[22,17,2,6],[31,7,3,2],[31,19,4,0],[31,2,5,1],[0,1,6,3],[0,3,7,5],[0,18,8,4]],"trial_type":"free-sort","trial_index":172,"time_elapsed":2177873,"internal_node_id":"0.0-5.0-3.0","session":3,"startTime":"2020-1-8 8:35:34","attn_word":["LION"],"stimulus":"sort_trial"},{"rt":5288,"stimulus":"sort_feedback","key_press":32,"trial_type":"html-keyboard-response","trial_index":173,"time_elapsed":2183166,"internal_node_id":"0.0-5.0-4.0","session":3,"startTime":"2020-1-8 8:35:34","attn_word":["LION"]},{"animation_sequence":"[{\"cat\":11,\"src\":0,\"loc\":6},{\"cat\":28,\"src\":1,\"loc\":7},{\"cat\":22,\"src\":14,\"loc\":8},{\"cat\":22,\"src\":18,\"loc\":1},{\"cat\":11,\"src\":6,\"loc\":0},{\"cat\":28,\"src\":4,\"loc\":2},{\"cat\":11,\"src\":17,\"loc\":3},{\"cat\":22,\"src\":11,\"loc\":5},{\"cat\":28,\"src\":5,\"loc\":4}]","condition":2,"rt":20006,"time_sequence":[1118,1118,1103,1114,1115,1115,1104,1109,1106,10003],"trial_type":"animation","trial_index":174,"time_elapsed":2203173,"internal_node_id":"0.0-5.0-5.0","session":3,"startTime":"2020-1-8 8:35:34","attn_word":["LION"],"stimulus":"setup2"},{"rt":1558,"stimulus":"flanker_instructions","key_press":39,"trial_type":"html-keyboard-response","trial_index":175,"time_elapsed":2204735,"internal_node_id":"0.0-5.0-6.0","session":3,"startTime":"2020-1-8 8:35:34","attn_word":["LION"]},{"rt":681,"stimulus":"flanker_test","key_press":37,"stim_type":"incongruent","direction":"left","trial_type":"image-keyboard-response","trial_index":176,"time_elapsed":2206426,"internal_node_id":"0.0-5.0-7.0-0.0","session":3,"startTime":"2020-1-8 8:35:34","attn_word":["LION"],"correct":true},{"rt":573,"stimulus":"flanker_test","key_press":39,"stim_type":"congruent","direction":"right","trial_type":"image-keyboard-response","trial_index":177,"time_elapsed":2207715,"internal_node_id":"0.0-5.0-7.0-0.1","session":3,"startTime":"2020-1-8 8:35:34","attn_word":["LION"],"correct":true},{"rt":685,"stimulus":"flanker_test","key_press":39,"stim_type":"incongruent","direction":"right","trial_type":"image-keyboard-response","trial_index":178,"time_elapsed":2209565,"internal_node_id":"0.0-5.0-7.0-0.2","session":3,"startTime":"2020-1-8 8:35:34","attn_word":["LION"],"correct":true},{"rt":364,"stimulus":"flanker_test","key_press":37,"stim_type":"congruent","direction":"left","trial_type":"image-keyboard-response","trial_index":179,"time_elapsed":2210770,"internal_node_id":"0.0-5.0-7.0-0.3","session":3,"startTime":"2020-1-8 8:35:34","attn_word":["LION"],"correct":true},{"init_locations":"[{\"cat\":11,\"src\":0,\"x\":4,\"y\":243},{\"cat\":28,\"src\":1,\"x\":62,\"y\":432},{\"cat\":22,\"src\":14,\"x\":42,\"y\":14},{\"cat\":22,\"src\":18,\"x\":44,\"y\":208},{\"cat\":11,\"src\":6,\"x\":43,\"y\":318},{\"cat\":28,\"src\":4,\"x\":35,\"y\":379},{\"cat\":11,\"src\":17,\"x\":0,\"y\":500},{\"cat\":22,\"src\":11,\"x\":21,\"y\":68},{\"cat\":28,\"src\":5,\"x\":47,\"y\":136}]","moves":"[{\"cat\":\"22\",\"src\":\"18\",\"x\":0,\"y\":0},{\"cat\":\"11\",\"src\":\"6\",\"x\":0,\"y\":0},{\"cat\":\"28\",\"src\":\"4\",\"x\":0,\"y\":0},{\"cat\":\"22\",\"src\":\"14\",\"x\":72,\"y\":62},{\"cat\":\"22\",\"src\":\"14\",\"x\":0,\"y\":0},{\"cat\":\"11\",\"src\":\"0\",\"x\":0,\"y\":0},{\"cat\":\"28\",\"src\":\"1\",\"x\":108,\"y\":424},{\"cat\":\"28\",\"src\":\"1\",\"x\":63,\"y\":431},{\"cat\":\"28\",\"src\":\"1\",\"x\":0,\"y\":0},{\"cat\":\"11\",\"src\":\"17\",\"x\":0,\"y\":0},{\"cat\":\"28\",\"src\":\"5\",\"x\":0,\"y\":0},{\"cat\":\"22\",\"src\":\"11\",\"x\":0,\"y\":0}]","final_locations":"[{\"cat\":22,\"src\":18,\"loc\":1},{\"cat\":11,\"src\":6,\"loc\":0},{\"cat\":28,\"src\":4,\"loc\":2},{\"cat\":22,\"src\":14,\"loc\":8},{\"cat\":11,\"src\":0,\"loc\":6},{\"cat\":28,\"src\":1,\"loc\":7},{\"cat\":11,\"src\":17,\"loc\":3},{\"cat\":28,\"src\":5,\"loc\":4},{\"cat\":22,\"src\":11,\"loc\":5}]","rt":46932,"sort_correct":9,"finalLocations":[[11,6,0,1],[22,18,1,0],[28,4,2,2],[11,17,3,6],[28,5,4,7],[22,11,5,8],[11,0,6,4],[28,1,7,5],[22,14,8,3]],"trial_type":"free-sort","trial_index":180,"time_elapsed":2258254,"internal_node_id":"0.0-5.0-8.0","session":3,"startTime":"2020-1-8 8:35:34","attn_word":["LION"],"stimulus":"sort_trial"},{"rt":5825,"stimulus":"sort_feedback","key_press":32,"trial_type":"html-keyboard-response","trial_index":181,"time_elapsed":2264084,"internal_node_id":"0.0-5.0-9.0","session":3,"startTime":"2020-1-8 8:35:34","attn_word":["LION"]},{"animation_sequence":"[{\"cat\":25,\"src\":10,\"loc\":1},{\"cat\":33,\"src\":6,\"loc\":6},{\"cat\":19,\"src\":9,\"loc\":4},{\"cat\":33,\"src\":13,\"loc\":2},{\"cat\":19,\"src\":11,\"loc\":7},{\"cat\":25,\"src\":19,\"loc\":5},{\"cat\":33,\"src\":10,\"loc\":3},{\"cat\":25,\"src\":12,\"loc\":8},{\"cat\":19,\"src\":14,\"loc\":0}]","condition":5,"rt":20027,"time_sequence":[1108,1127,1115,1104,1113,1104,1115,1103,1119,10018],"trial_type":"animation","trial_index":182,"time_elapsed":2284112,"internal_node_id":"0.0-5.0-10.0","session":3,"startTime":"2020-1-8 8:35:34","attn_word":["LION"],"stimulus":"setup5"},{"rt":75196,"stimulus":"flanker_instructions","key_press":37,"trial_type":"html-keyboard-response","trial_index":183,"time_elapsed":2359312,"internal_node_id":"0.0-5.0-11.0","session":3,"startTime":"2020-1-8 8:35:34","attn_word":["LION"]},{"rt":617,"stimulus":"flanker_test","key_press":37,"stim_type":"congruent","direction":"left","trial_type":"image-keyboard-response","trial_index":184,"time_elapsed":2360947,"internal_node_id":"0.0-5.0-12.0-0.0","session":3,"startTime":"2020-1-8 8:35:34","attn_word":["LION"],"correct":true},{"rt":568,"stimulus":"flanker_test","key_press":39,"stim_type":"incongruent","direction":"right","trial_type":"image-keyboard-response","trial_index":185,"time_elapsed":2362213,"internal_node_id":"0.0-5.0-12.0-0.1","session":3,"startTime":"2020-1-8 8:35:34","attn_word":["LION"],"correct":true},{"rt":616,"stimulus":"flanker_test","key_press":37,"stim_type":"incongruent","direction":"left","trial_type":"image-keyboard-response","trial_index":186,"time_elapsed":2363590,"internal_node_id":"0.0-5.0-12.0-0.2","session":3,"startTime":"2020-1-8 8:35:34","attn_word":["LION"],"correct":true},{"rt":373,"stimulus":"flanker_test","key_press":39,"stim_type":"congruent","direction":"right","trial_type":"image-keyboard-response","trial_index":187,"time_elapsed":2364986,"internal_node_id":"0.0-5.0-12.0-0.3","session":3,"startTime":"2020-1-8 8:35:34","attn_word":["LION"],"correct":true},{"init_locations":"[{\"cat\":25,\"src\":10,\"x\":77,\"y\":308},{\"cat\":33,\"src\":6,\"x\":7,\"y\":127},{\"cat\":19,\"src\":9,\"x\":25,\"y\":440},{\"cat\":33,\"src\":13,\"x\":80,\"y\":257},{\"cat\":19,\"src\":11,\"x\":54,\"y\":184},{\"cat\":25,\"src\":19,\"x\":56,\"y\":375},{\"cat\":33,\"src\":10,\"x\":64,\"y\":480},{\"cat\":25,\"src\":12,\"x\":57,\"y\":8},{\"cat\":19,\"src\":14,\"x\":45,\"y\":64}]","moves":"[{\"cat\":\"25\",\"src\":\"10\",\"x\":156,\"y\":276},{\"cat\":\"25\",\"src\":\"10\",\"x\":0,\"y\":0},{\"cat\":\"19\",\"src\":\"14\",\"x\":0,\"y\":0},{\"cat\":\"33\",\"src\":\"13\",\"x\":0,\"y\":0},{\"cat\":\"19\",\"src\":\"9\",\"x\":0,\"y\":0},{\"cat\":\"25\",\"src\":\"19\",\"x\":476,\"y\":476},{\"cat\":\"25\",\"src\":\"19\",\"x\":0,\"y\":0},{\"cat\":\"33\",\"src\":\"10\",\"x\":0,\"y\":0},{\"cat\":\"25\",\"src\":\"12\",\"x\":44,\"y\":177},{\"cat\":\"19\",\"src\":\"11\",\"x\":54,\"y\":184},{\"cat\":\"25\",\"src\":\"12\",\"x\":0,\"y\":0},{\"cat\":\"33\",\"src\":\"6\",\"x\":0,\"y\":0},{\"cat\":\"19\",\"src\":\"11\",\"x\":0,\"y\":0}]","final_locations":"[{\"cat\":25,\"src\":10,\"loc\":1},{\"cat\":19,\"src\":14,\"loc\":0},{\"cat\":33,\"src\":13,\"loc\":2},{\"cat\":19,\"src\":9,\"loc\":4},{\"cat\":25,\"src\":19,\"loc\":5},{\"cat\":33,\"src\":10,\"loc\":3},{\"cat\":25,\"src\":12,\"loc\":8},{\"cat\":33,\"src\":6,\"loc\":6},{\"cat\":19,\"src\":11,\"loc\":7}]","rt":58494,"sort_correct":9,"finalLocations":[[19,14,0,1],[25,10,1,0],[33,13,2,2],[33,10,3,5],[19,9,4,3],[25,19,5,4],[33,6,6,7],[19,11,7,8],[25,12,8,6]],"trial_type":"free-sort","trial_index":188,"time_elapsed":2424176,"internal_node_id":"0.0-5.0-13.0","session":3,"startTime":"2020-1-8 8:35:34","attn_word":["LION"],"stimulus":"sort_trial"},{"rt":8180,"stimulus":"sort_feedback","key_press":32,"trial_type":"html-keyboard-response","trial_index":189,"time_elapsed":2432360,"internal_node_id":"0.0-5.0-14.0","session":3,"startTime":"2020-1-8 8:35:34","attn_word":["LION"]},{"animation_sequence":"[{\"cat\":21,\"src\":1,\"loc\":1},{\"cat\":21,\"src\":7,\"loc\":4},{\"cat\":21,\"src\":3,\"loc\":6},{\"cat\":14,\"src\":12,\"loc\":2},{\"cat\":14,\"src\":19,\"loc\":8},{\"cat\":14,\"src\":3,\"loc\":5},{\"cat\":0,\"src\":19,\"loc\":7},{\"cat\":0,\"src\":7,\"loc\":0},{\"cat\":0,\"src\":17,\"loc\":3}]","condition":4,"rt":20031,"time_sequence":[1110,1102,1112,1112,1116,1116,1115,1119,1116,10013],"trial_type":"animation","trial_index":190,"time_elapsed":2452393,"internal_node_id":"0.0-5.0-15.0","session":3,"startTime":"2020-1-8 8:35:34","attn_word":["LION"],"stimulus":"setup4"},{"rt":855,"stimulus":"flanker_instructions","key_press":37,"trial_type":"html-keyboard-response","trial_index":191,"time_elapsed":2453253,"internal_node_id":"0.0-5.0-16.0","session":3,"startTime":"2020-1-8 8:35:34","attn_word":["LION"]},{"rt":851,"stimulus":"flanker_test","key_press":37,"stim_type":"incongruent","direction":"left","trial_type":"image-keyboard-response","trial_index":192,"time_elapsed":2455120,"internal_node_id":"0.0-5.0-17.0-0.0","session":3,"startTime":"2020-1-8 8:35:34","attn_word":["LION"],"correct":true},{"rt":655,"stimulus":"flanker_test","key_press":37,"stim_type":"congruent","direction":"left","trial_type":"image-keyboard-response","trial_index":193,"time_elapsed":2456317,"internal_node_id":"0.0-5.0-17.0-0.1","session":3,"startTime":"2020-1-8 8:35:34","attn_word":["LION"],"correct":true},{"rt":389,"stimulus":"flanker_test","key_press":39,"stim_type":"incongruent","direction":"right","trial_type":"image-keyboard-response","trial_index":194,"time_elapsed":2457789,"internal_node_id":"0.0-5.0-17.0-0.2","session":3,"startTime":"2020-1-8 8:35:34","attn_word":["LION"],"correct":true},{"rt":394,"stimulus":"flanker_test","key_press":39,"stim_type":"congruent","direction":"right","trial_type":"image-keyboard-response","trial_index":195,"time_elapsed":2459068,"internal_node_id":"0.0-5.0-17.0-0.3","session":3,"startTime":"2020-1-8 8:35:34","attn_word":["LION"],"correct":true},{"init_locations":"[{\"cat\":21,\"src\":1,\"x\":35,\"y\":17},{\"cat\":21,\"src\":7,\"x\":51,\"y\":89},{\"cat\":21,\"src\":3,\"x\":47,\"y\":239},{\"cat\":14,\"src\":12,\"x\":31,\"y\":432},{\"cat\":14,\"src\":19,\"x\":62,\"y\":502},{\"cat\":14,\"src\":3,\"x\":77,\"y\":145},{\"cat\":0,\"src\":19,\"x\":23,\"y\":379},{\"cat\":0,\"src\":7,\"x\":28,\"y\":303},{\"cat\":0,\"src\":17,\"x\":2,\"y\":184}]","moves":"[{\"cat\":\"21\",\"src\":\"1\",\"x\":0,\"y\":0},{\"cat\":\"0\",\"src\":\"7\",\"x\":0,\"y\":0},{\"cat\":\"14\",\"src\":\"12\",\"x\":0,\"y\":0},{\"cat\":\"14\",\"src\":\"3\",\"x\":0,\"y\":0},{\"cat\":\"21\",\"src\":\"7\",\"x\":0,\"y\":0},{\"cat\":\"0\",\"src\":\"17\",\"x\":0,\"y\":0},{\"cat\":\"21\",\"src\":\"3\",\"x\":0,\"y\":0},{\"cat\":\"0\",\"src\":\"19\",\"x\":0,\"y\":0},{\"cat\":\"14\",\"src\":\"19\",\"x\":0,\"y\":0}]","final_locations":"[{\"cat\":21,\"src\":1,\"loc\":1},{\"cat\":0,\"src\":7,\"loc\":0},{\"cat\":14,\"src\":12,\"loc\":2},{\"cat\":14,\"src\":3,\"loc\":5},{\"cat\":21,\"src\":7,\"loc\":4},{\"cat\":0,\"src\":17,\"loc\":3},{\"cat\":21,\"src\":3,\"loc\":6},{\"cat\":0,\"src\":19,\"loc\":7},{\"cat\":14,\"src\":19,\"loc\":8}]","rt":40612,"sort_correct":9,"finalLocations":[[0,7,0,1],[21,1,1,0],[14,12,2,2],[0,17,3,5],[21,7,4,4],[14,3,5,3],[21,3,6,6],[0,19,7,7],[14,19,8,8]],"trial_type":"free-sort","trial_index":196,"time_elapsed":2500455,"internal_node_id":"0.0-5.0-18.0","session":3,"startTime":"2020-1-8 8:35:34","attn_word":["LION"],"stimulus":"sort_trial"},{"rt":6544,"stimulus":"sort_feedback","key_press":32,"trial_type":"html-keyboard-response","trial_index":197,"time_elapsed":2507002,"internal_node_id":"0.0-5.0-19.0","session":3,"startTime":"2020-1-8 8:35:34","attn_word":["LION"]},{"animation_sequence":"[{\"cat\":10,\"src\":0,\"loc\":6},{\"cat\":10,\"src\":8,\"loc\":7},{\"cat\":10,\"src\":13,\"loc\":8},{\"cat\":2,\"src\":3,\"loc\":5},{\"cat\":2,\"src\":2,\"loc\":3},{\"cat\":2,\"src\":13,\"loc\":4},{\"cat\":8,\"src\":16,\"loc\":0},{\"cat\":8,\"src\":2,\"loc\":2},{\"cat\":8,\"src\":19,\"loc\":1}]","condition":1,"rt":20012,"time_sequence":[1105,1121,1103,1104,1109,1115,1132,1113,1107,10003],"trial_type":"animation","trial_index":198,"time_elapsed":2527015,"internal_node_id":"0.0-5.0-20.0","session":3,"startTime":"2020-1-8 8:35:34","attn_word":["LION"],"stimulus":"setup1"},{"rt":3443,"stimulus":"flanker_instructions","key_press":39,"trial_type":"html-keyboard-response","trial_index":199,"time_elapsed":2530463,"internal_node_id":"0.0-5.0-21.0","session":3,"startTime":"2020-1-8 8:35:34","attn_word":["LION"]},{"rt":642,"stimulus":"flanker_test","key_press":37,"stim_type":"incongruent","direction":"left","trial_type":"image-keyboard-response","trial_index":200,"time_elapsed":2532116,"internal_node_id":"0.0-5.0-22.0-0.0","session":3,"startTime":"2020-1-8 8:35:34","attn_word":["LION"],"correct":true},{"rt":508,"stimulus":"flanker_test","key_press":39,"stim_type":"incongruent","direction":"right","trial_type":"image-keyboard-response","trial_index":201,"time_elapsed":2533572,"internal_node_id":"0.0-5.0-22.0-0.1","session":3,"startTime":"2020-1-8 8:35:34","attn_word":["LION"],"correct":true},{"rt":538,"stimulus":"flanker_test","key_press":37,"stim_type":"congruent","direction":"left","trial_type":"image-keyboard-response","trial_index":202,"time_elapsed":2535102,"internal_node_id":"0.0-5.0-22.0-0.2","session":3,"startTime":"2020-1-8 8:35:34","attn_word":["LION"],"correct":true},{"rt":428,"stimulus":"flanker_test","key_press":39,"stim_type":"congruent","direction":"right","trial_type":"image-keyboard-response","trial_index":203,"time_elapsed":2536414,"internal_node_id":"0.0-5.0-22.0-0.3","session":3,"startTime":"2020-1-8 8:35:34","attn_word":["LION"],"correct":true},{"init_locations":"[{\"cat\":10,\"src\":0,\"x\":30,\"y\":7},{\"cat\":10,\"src\":8,\"x\":54,\"y\":203},{\"cat\":10,\"src\":13,\"x\":34,\"y\":501},{\"cat\":2,\"src\":3,\"x\":27,\"y\":381},{\"cat\":2,\"src\":2,\"x\":82,\"y\":438},{\"cat\":2,\"src\":13,\"x\":47,\"y\":130},{\"cat\":8,\"src\":16,\"x\":33,\"y\":303},{\"cat\":8,\"src\":2,\"x\":82,\"y\":69},{\"cat\":8,\"src\":19,\"x\":38,\"y\":262}]","moves":"[{\"cat\":\"8\",\"src\":\"19\",\"x\":0,\"y\":0},{\"cat\":\"8\",\"src\":\"2\",\"x\":0,\"y\":0},{\"cat\":\"2\",\"src\":\"3\",\"x\":0,\"y\":0},{\"cat\":\"2\",\"src\":\"13\",\"x\":0,\"y\":0},{\"cat\":\"2\",\"src\":\"2\",\"x\":191,\"y\":471},{\"cat\":\"2\",\"src\":\"2\",\"x\":0,\"y\":0},{\"cat\":\"10\",\"src\":\"0\",\"x\":0,\"y\":0},{\"cat\":\"10\",\"src\":\"13\",\"x\":0,\"y\":0},{\"cat\":\"10\",\"src\":\"8\",\"x\":54,\"y\":203},{\"cat\":\"10\",\"src\":\"8\",\"x\":0,\"y\":0},{\"cat\":\"8\",\"src\":\"16\",\"x\":0,\"y\":0}]","final_locations":"[{\"cat\":8,\"src\":19,\"loc\":1},{\"cat\":8,\"src\":2,\"loc\":2},{\"cat\":2,\"src\":3,\"loc\":5},{\"cat\":2,\"src\":13,\"loc\":4},{\"cat\":2,\"src\":2,\"loc\":3},{\"cat\":10,\"src\":0,\"loc\":6},{\"cat\":10,\"src\":13,\"loc\":8},{\"cat\":10,\"src\":8,\"loc\":7},{\"cat\":8,\"src\":16,\"loc\":0}]","rt":52804,"sort_correct":9,"finalLocations":[[8,16,0,8],[8,19,1,0],[8,2,2,1],[2,2,3,4],[2,13,4,3],[2,3,5,2],[10,0,6,5],[10,8,7,7],[10,13,8,6]],"trial_type":"free-sort","trial_index":204,"time_elapsed":2590179,"internal_node_id":"0.0-5.0-23.0","session":3,"startTime":"2020-1-8 8:35:34","attn_word":["LION"],"stimulus":"sort_trial"},{"rt":6162,"stimulus":"sort_feedback","key_press":32,"trial_type":"html-keyboard-response","trial_index":205,"time_elapsed":2596343,"internal_node_id":"0.0-5.0-24.0","session":3,"startTime":"2020-1-8 8:35:34","attn_word":["LION"]},{"animation_sequence":"[{\"cat\":11,\"src\":19,\"loc\":6},{\"cat\":10,\"src\":10,\"loc\":8},{\"cat\":21,\"src\":4,\"loc\":7},{\"cat\":11,\"src\":11,\"loc\":3},{\"cat\":10,\"src\":4,\"loc\":5},{\"cat\":21,\"src\":2,\"loc\":4},{\"cat\":21,\"src\":17,\"loc\":1},{\"cat\":10,\"src\":7,\"loc\":2},{\"cat\":11,\"src\":1,\"loc\":0}]","condition":2,"rt":20018,"time_sequence":[1110,1103,1144,1104,1115,1118,1102,1104,1111,10006],"trial_type":"animation","trial_index":206,"time_elapsed":2616363,"internal_node_id":"0.0-5.0-25.0","session":3,"startTime":"2020-1-8 8:35:34","attn_word":["LION"],"stimulus":"setup2"},{"rt":2075,"stimulus":"flanker_instructions","key_press":37,"trial_type":"html-keyboard-response","trial_index":207,"time_elapsed":2618443,"internal_node_id":"0.0-5.0-26.0","session":3,"startTime":"2020-1-8 8:35:34","attn_word":["LION"]},{"rt":741,"stimulus":"flanker_test","key_press":37,"stim_type":"incongruent","direction":"left","trial_type":"image-keyboard-response","trial_index":208,"time_elapsed":2620201,"internal_node_id":"0.0-5.0-27.0-0.0","session":3,"startTime":"2020-1-8 8:35:34","attn_word":["LION"],"correct":true},{"rt":673,"stimulus":"flanker_test","key_press":37,"stim_type":"congruent","direction":"left","trial_type":"image-keyboard-response","trial_index":209,"time_elapsed":2621269,"internal_node_id":"0.0-5.0-27.0-0.1","session":3,"startTime":"2020-1-8 8:35:34","attn_word":["LION"],"correct":true},{"rt":347,"stimulus":"flanker_test","key_press":39,"stim_type":"congruent","direction":"right","trial_type":"image-keyboard-response","trial_index":210,"time_elapsed":2622391,"internal_node_id":"0.0-5.0-27.0-0.2","session":3,"startTime":"2020-1-8 8:35:34","attn_word":["LION"],"correct":true},{"rt":381,"stimulus":"flanker_test","key_press":39,"stim_type":"incongruent","direction":"right","trial_type":"image-keyboard-response","trial_index":211,"time_elapsed":2623286,"internal_node_id":"0.0-5.0-27.0-0.3","session":3,"startTime":"2020-1-8 8:35:34","attn_word":["LION"],"correct":true},{"init_locations":"[{\"cat\":11,\"src\":19,\"x\":79,\"y\":181},{\"cat\":10,\"src\":10,\"x\":3,\"y\":266},{\"cat\":21,\"src\":4,\"x\":22,\"y\":121},{\"cat\":11,\"src\":11,\"x\":48,\"y\":26},{\"cat\":10,\"src\":4,\"x\":25,\"y\":501},{\"cat\":21,\"src\":2,\"x\":83,\"y\":420},{\"cat\":21,\"src\":17,\"x\":35,\"y\":84},{\"cat\":10,\"src\":7,\"x\":3,\"y\":321},{\"cat\":11,\"src\":1,\"x\":44,\"y\":389}]","moves":"[{\"cat\":\"21\",\"src\":\"17\",\"x\":0,\"y\":0},{\"cat\":\"11\",\"src\":\"1\",\"x\":0,\"y\":0},{\"cat\":\"10\",\"src\":\"7\",\"x\":0,\"y\":0},{\"cat\":\"10\",\"src\":\"4\",\"x\":61,\"y\":464},{\"cat\":\"10\",\"src\":\"4\",\"x\":26,\"y\":500},{\"cat\":\"10\",\"src\":\"4\",\"x\":0,\"y\":0},{\"cat\":\"21\",\"src\":\"2\",\"x\":0,\"y\":0},{\"cat\":\"11\",\"src\":\"11\",\"x\":0,\"y\":0},{\"cat\":\"21\",\"src\":\"4\",\"x\":0,\"y\":0},{\"cat\":\"11\",\"src\":\"19\",\"x\":0,\"y\":0},{\"cat\":\"10\",\"src\":\"10\",\"x\":0,\"y\":0}]","final_locations":"[{\"cat\":21,\"src\":17,\"loc\":1},{\"cat\":11,\"src\":1,\"loc\":0},{\"cat\":10,\"src\":7,\"loc\":2},{\"cat\":10,\"src\":4,\"loc\":5},{\"cat\":21,\"src\":2,\"loc\":4},{\"cat\":11,\"src\":11,\"loc\":3},{\"cat\":21,\"src\":4,\"loc\":7},{\"cat\":11,\"src\"