{"_id":{"$oid":"5e147e1edd98d4000462bf04"},"data":[{"rt":1511,"stimulus":"welcome","key_press":70,"trial_type":"html-keyboard-response","trial_index":0,"time_elapsed":1522,"internal_node_id":"0.0-0.0","session":2,"startTime":"2020-1-7 7:19:46","attn_word":["ZEBRA"]},{"rt":2732,"stimulus":"consent","button_pressed":"0","trial_type":"html-button-response","trial_index":1,"time_elapsed":4257,"internal_node_id":"0.0-1.0","session":2,"startTime":"2020-1-7 7:19:46","attn_word":["ZEBRA"]},{"view_history":"[{\"page_index\":0,\"viewing_time\":2725},{\"page_index\":1,\"viewing_time\":1536},{\"page_index\":2,\"viewing_time\":8232},{\"page_index\":3,\"viewing_time\":1624},{\"page_index\":4,\"viewing_time\":912},{\"page_index\":5,\"viewing_time\":6320}]","rt":21350,"trial_type":"instructions","trial_index":2,"time_elapsed":25609,"internal_node_id":"0.0-2.0","session":2,"startTime":"2020-1-7 7:19:46","attn_word":["ZEBRA"],"stimulus":"instructions"},{"rt":1421,"stimulus":"finalInstructions","button_pressed":"0","trial_type":"html-button-response","trial_index":3,"time_elapsed":27033,"internal_node_id":"0.0-3.0-0.0","session":2,"startTime":"2020-1-7 7:19:46","attn_word":["ZEBRA"]},{"animation_sequence":"[{\"cat\":18,\"src\":15,\"loc\":3},{\"cat\":22,\"src\":7,\"loc\":2},{\"cat\":14,\"src\":15,\"loc\":7},{\"cat\":22,\"src\":2,\"loc\":6},{\"cat\":14,\"src\":16,\"loc\":5},{\"cat\":18,\"src\":5,\"loc\":1},{\"cat\":18,\"src\":19,\"loc\":8},{\"cat\":14,\"src\":13,\"loc\":0},{\"cat\":22,\"src\":5,\"loc\":4}]","condition":5,"rt":19930,"time_sequence":[1106,1103,1101,1101,1102,1103,1104,1103,1105,10001],"trial_type":"animation","trial_index":4,"time_elapsed":46967,"internal_node_id":"0.0-3.0-1.0","session":2,"startTime":"2020-1-7 7:19:46","attn_word":["ZEBRA"],"stimulus":"setup5"},{"rt":1909,"stimulus":"flanker_instructions","key_press":68,"trial_type":"html-keyboard-response","trial_index":5,"time_elapsed":48882,"internal_node_id":"0.0-3.0-2.0","session":2,"startTime":"2020-1-7 7:19:46","attn_word":["ZEBRA"]},{"rt":null,"stimulus":"flanker_test","key_press":null,"stim_type":"incongruent","direction":"left","trial_type":"image-keyboard-response","trial_index":6,"time_elapsed":50788,"internal_node_id":"0.0-3.0-3.0-0.0","session":2,"startTime":"2020-1-7 7:19:46","attn_word":["ZEBRA"],"correct":false},{"rt":null,"stimulus":"flanker_test","key_press":null,"stim_type":"incongruent","direction":"right","trial_type":"image-keyboard-response","trial_index":7,"time_elapsed":52238,"internal_node_id":"0.0-3.0-3.0-0.1","session":2,"startTime":"2020-1-7 7:19:46","attn_word":["ZEBRA"],"correct":false},{"rt":null,"stimulus":"flanker_test","key_press":null,"stim_type":"congruent","direction":"left","trial_type":"image-keyboard-response","trial_index":8,"time_elapsed":54091,"internal_node_id":"0.0-3.0-3.0-0.2","session":2,"startTime":"2020-1-7 7:19:46","attn_word":["ZEBRA"],"correct":false},{"rt":null,"stimulus":"flanker_test","key_press":null,"stim_type":"congruent","direction":"right","trial_type":"image-keyboard-response","trial_index":9,"time_elapsed":55750,"internal_node_id":"0.0-3.0-3.0-0.3","session":2,"startTime":"2020-1-7 7:19:46","attn_word":["ZEBRA"],"correct":false},{"init_locations":"[{\"cat\":18,\"src\":15,\"x\":27,\"y\":20},{\"cat\":22,\"src\":7,\"x\":68,\"y\":188},{\"cat\":14,\"src\":15,\"x\":6,\"y\":305},{\"cat\":22,\"src\":2,\"x\":43,\"y\":130},{\"cat\":14,\"src\":16,\"x\":68,\"y\":268},{\"cat\":18,\"src\":5,\"x\":57,\"y\":502},{\"cat\":18,\"src\":19,\"x\":70,\"y\":371},{\"cat\":14,\"src\":13,\"x\":46,\"y\":65},{\"cat\":22,\"src\":5,\"x\":16,\"y\":445}]","moves":"[{\"cat\":\"18\",\"src\":\"5\",\"x\":0,\"y\":0},{\"cat\":\"22\",\"src\":\"7\",\"x\":0,\"y\":0},{\"cat\":\"22\",\"src\":\"2\",\"x\":0,\"y\":0},{\"cat\":\"18\",\"src\":\"19\",\"x\":502,\"y\":342},{\"cat\":\"18\",\"src\":\"19\",\"x\":0,\"y\":0},{\"cat\":\"14\",\"src\":\"15\",\"x\":0,\"y\":0},{\"cat\":\"14\",\"src\":\"16\",\"x\":0,\"y\":0},{\"cat\":\"18\",\"src\":\"15\",\"x\":0,\"y\":0},{\"cat\":\"14\",\"src\":\"13\",\"x\":0,\"y\":0},{\"cat\":\"22\",\"src\":\"5\",\"x\":0,\"y\":0}]","final_locations":"[{\"cat\":18,\"src\":5,\"loc\":1},{\"cat\":22,\"src\":7,\"loc\":2},{\"cat\":22,\"src\":2,\"loc\":6},{\"cat\":18,\"src\":19,\"loc\":8},{\"cat\":14,\"src\":15,\"loc\":7},{\"cat\":14,\"src\":16,\"loc\":5},{\"cat\":18,\"src\":15,\"loc\":3},{\"cat\":14,\"src\":13,\"loc\":0},{\"cat\":22,\"src\":5,\"loc\":4}]","rt":29979,"sort_correct":9,"finalLocations":[[14,13,0,7],[18,5,1,0],[22,7,2,1],[18,15,3,6],[22,5,4,8],[14,16,5,5],[22,2,6,2],[14,15,7,4],[18,19,8,3]],"trial_type":"free-sort","trial_index":10,"time_elapsed":86729,"internal_node_id":"0.0-3.0-4.0","session":2,"startTime":"2020-1-7 7:19:46","attn_word":["ZEBRA"],"stimulus":"sort_trial"},{"rt":2391,"stimulus":"sort_feedback","key_press":82,"trial_type":"html-keyboard-response","trial_index":11,"time_elapsed":89131,"internal_node_id":"0.0-3.0-5.0","session":2,"startTime":"2020-1-7 7:19:46","attn_word":["ZEBRA"]},{"animation_sequence":"[{\"cat\":30,\"src\":19,\"loc\":5},{\"cat\":30,\"src\":2,\"loc\":7},{\"cat\":30,\"src\":18,\"loc\":2},{\"cat\":14,\"src\":14,\"loc\":3},{\"cat\":14,\"src\":15,\"loc\":0},{\"cat\":14,\"src\":19,\"loc\":8},{\"cat\":3,\"src\":7,\"loc\":6},{\"cat\":3,\"src\":4,\"loc\":1},{\"cat\":3,\"src\":10,\"loc\":4}]","condition":4,"rt":19934,"time_sequence":[1107,1102,1102,1103,1101,1106,1104,1105,1101,10003],"trial_type":"animation","trial_index":12,"time_elapsed":109070,"internal_node_id":"0.0-3.0-6.0","session":2,"startTime":"2020-1-7 7:19:46","attn_word":["ZEBRA"],"stimulus":"setup4"},{"rt":1553,"stimulus":"flanker_instructions","key_press":75,"trial_type":"html-keyboard-response","trial_index":13,"time_elapsed":110624,"internal_node_id":"0.0-3.0-7.0","session":2,"startTime":"2020-1-7 7:19:46","attn_word":["ZEBRA"]},{"rt":null,"stimulus":"flanker_test","key_press":null,"stim_type":"congruent","direction":"right","trial_type":"image-keyboard-response","trial_index":14,"time_elapsed":112529,"internal_node_id":"0.0-3.0-8.0-0.0","session":2,"startTime":"2020-1-7 7:19:46","attn_word":["ZEBRA"],"correct":false},{"rt":null,"stimulus":"flanker_test","key_press":null,"stim_type":"incongruent","direction":"left","trial_type":"image-keyboard-response","trial_index":15,"time_elapsed":114602,"internal_node_id":"0.0-3.0-8.0-0.1","session":2,"startTime":"2020-1-7 7:19:46","attn_word":["ZEBRA"],"correct":false},{"rt":null,"stimulus":"flanker_test","key_press":null,"stim_type":"congruent","direction":"left","trial_type":"image-keyboard-response","trial_index":16,"time_elapsed":116580,"internal_node_id":"0.0-3.0-8.0-0.2","session":2,"startTime":"2020-1-7 7:19:46","attn_word":["ZEBRA"],"correct":false},{"rt":null,"stimulus":"flanker_test","key_press":null,"stim_type":"incongruent","direction":"right","trial_type":"image-keyboard-response","trial_index":17,"time_elapsed":118288,"internal_node_id":"0.0-3.0-8.0-0.3","session":2,"startTime":"2020-1-7 7:19:46","attn_word":["ZEBRA"],"correct":false},{"init_locations":"[{\"cat\":30,\"src\":19,\"x\":80,\"y\":502},{\"cat\":30,\"src\":2,\"x\":11,\"y\":315},{\"cat\":30,\"src\":18,\"x\":54,\"y\":361},{\"cat\":14,\"src\":14,\"x\":83,\"y\":441},{\"cat\":14,\"src\":15,\"x\":65,\"y\":240},{\"cat\":14,\"src\":19,\"x\":46,\"y\":9},{\"cat\":3,\"src\":7,\"x\":12,\"y\":180},{\"cat\":3,\"src\":4,\"x\":12,\"y\":144},{\"cat\":3,\"src\":10,\"x\":73,\"y\":71}]","moves":"[{\"cat\":\"3\",\"src\":\"4\",\"x\":0,\"y\":0},{\"cat\":\"14\",\"src\":\"15\",\"x\":0,\"y\":0},{\"cat\":\"30\",\"src\":\"18\",\"x\":0,\"y\":0},{\"cat\":\"3\",\"src\":\"7\",\"x\":0,\"y\":0},{\"cat\":\"30\",\"src\":\"2\",\"x\":0,\"y\":0},{\"cat\":\"14\",\"src\":\"19\",\"x\":0,\"y\":0},{\"cat\":\"30\",\"src\":\"19\",\"x\":0,\"y\":0},{\"cat\":\"14\",\"src\":\"14\",\"x\":0,\"y\":0},{\"cat\":\"3\",\"src\":\"10\",\"x\":0,\"y\":0}]","final_locations":"[{\"cat\":3,\"src\":4,\"loc\":1},{\"cat\":14,\"src\":15,\"loc\":0},{\"cat\":30,\"src\":18,\"loc\":2},{\"cat\":3,\"src\":7,\"loc\":6},{\"cat\":30,\"src\":2,\"loc\":7},{\"cat\":14,\"src\":19,\"loc\":8},{\"cat\":30,\"src\":19,\"loc\":5},{\"cat\":14,\"src\":14,\"loc\":3},{\"cat\":3,\"src\":10,\"loc\":4}]","rt":15912,"sort_correct":9,"finalLocations":[[14,15,0,1],[3,4,1,0],[30,18,2,2],[14,14,3,7],[3,10,4,8],[30,19,5,6],[3,7,6,3],[30,2,7,4],[14,19,8,5]],"trial_type":"free-sort","trial_index":18,"time_elapsed":134888,"internal_node_id":"0.0-3.0-9.0","session":2,"startTime":"2020-1-7 7:19:46","attn_word":["ZEBRA"],"stimulus":"sort_trial"},{"rt":1405,"stimulus":"sort_feedback","key_press":75,"trial_type":"html-keyboard-response","trial_index":19,"time_elapsed":136295,"internal_node_id":"0.0-3.0-10.0","session":2,"startTime":"2020-1-7 7:19:46","attn_word":["ZEBRA"]},{"animation_sequence":"[{\"cat\":3,\"src\":15,\"loc\":2},{\"cat\":3,\"src\":4,\"loc\":0},{\"cat\":3,\"src\":7,\"loc\":1},{\"cat\":19,\"src\":12,\"loc\":5},{\"cat\":19,\"src\":19,\"loc\":3},{\"cat\":19,\"src\":13,\"loc\":4},{\"cat\":5,\"src\":5,\"loc\":8},{\"cat\":5,\"src\":6,\"loc\":7},{\"cat\":5,\"src\":19,\"loc\":6}]","condition":1,"rt":19916,"time_sequence":[1103,1102,1101,1101,1101,1102,1101,1101,1103,10000],"trial_type":"animation","trial_index":20,"time_elapsed":156212,"internal_node_id":"0.0-3.0-11.0","session":2,"startTime":"2020-1-7 7:19:46","attn_word":["ZEBRA"],"stimulus":"setup1"},{"rt":619,"stimulus":"flanker_instructions","key_press":75,"trial_type":"html-keyboard-response","trial_index":21,"time_elapsed":156832,"internal_node_id":"0.0-3.0-12.0","session":2,"startTime":"2020-1-7 7:19:46","attn_word":["ZEBRA"]},{"rt":null,"stimulus":"flanker_test","key_press":null,"stim_type":"congruent","direction":"left","trial_type":"image-keyboard-response","trial_index":22,"time_elapsed":158735,"internal_node_id":"0.0-3.0-13.0-0.0","session":2,"startTime":"2020-1-7 7:19:46","attn_word":["ZEBRA"],"correct":false},{"rt":null,"stimulus":"flanker_test","key_press":null,"stim_type":"incongruent","direction":"right","trial_type":"image-keyboard-response","trial_index":23,"time_elapsed":160123,"internal_node_id":"0.0-3.0-13.0-0.1","session":2,"startTime":"2020-1-7 7:19:46","attn_word":["ZEBRA"],"correct":false},{"rt":null,"stimulus":"flanker_test","key_press":null,"stim_type":"incongruent","direction":"left","trial_type":"image-keyboard-response","trial_index":24,"time_elapsed":162074,"internal_node_id":"0.0-3.0-13.0-0.2","session":2,"startTime":"2020-1-7 7:19:46","attn_word":["ZEBRA"],"correct":false},{"rt":null,"stimulus":"flanker_test","key_press":null,"stim_type":"congruent","direction":"right","trial_type":"image-keyboard-response","trial_index":25,"time_elapsed":164108,"internal_node_id":"0.0-3.0-13.0-0.3","session":2,"startTime":"2020-1-7 7:19:46","attn_word":["ZEBRA"],"correct":false},{"init_locations":"[{\"cat\":3,\"src\":15,\"x\":69,\"y\":420},{\"cat\":3,\"src\":4,\"x\":7,\"y\":121},{\"cat\":3,\"src\":7,\"x\":56,\"y\":320},{\"cat\":19,\"src\":12,\"x\":60,\"y\":11},{\"cat\":19,\"src\":19,\"x\":81,\"y\":199},{\"cat\":19,\"src\":13,\"x\":82,\"y\":245},{\"cat\":5,\"src\":5,\"x\":69,\"y\":368},{\"cat\":5,\"src\":6,\"x\":59,\"y\":64},{\"cat\":5,\"src\":19,\"x\":75,\"y\":494}]","moves":"[{\"cat\":\"3\",\"src\":\"7\",\"x\":0,\"y\":0},{\"cat\":\"3\",\"src\":\"4\",\"x\":0,\"y\":0},{\"cat\":\"3\",\"src\":\"15\",\"x\":0,\"y\":0},{\"cat\":\"5\",\"src\":\"6\",\"x\":0,\"y\":0},{\"cat\":\"5\",\"src\":\"5\",\"x\":0,\"y\":0},{\"cat\":\"19\",\"src\":\"12\",\"x\":0,\"y\":0},{\"cat\":\"19\",\"src\":\"19\",\"x\":0,\"y\":0},{\"cat\":\"19\",\"src\":\"13\",\"x\":0,\"y\":0},{\"cat\":\"5\",\"src\":\"19\",\"x\":0,\"y\":0}]","final_locations":"[{\"cat\":3,\"src\":7,\"loc\":1},{\"cat\":3,\"src\":4,\"loc\":0},{\"cat\":3,\"src\":15,\"loc\":2},{\"cat\":5,\"src\":6,\"loc\":7},{\"cat\":5,\"src\":5,\"loc\":8},{\"cat\":19,\"src\":12,\"loc\":5},{\"cat\":19,\"src\":19,\"loc\":3},{\"cat\":19,\"src\":13,\"loc\":4},{\"cat\":5,\"src\":19,\"loc\":6}]","rt":18392,"sort_correct":9,"finalLocations":[[3,4,0,1],[3,7,1,0],[3,15,2,2],[19,19,3,6],[19,13,4,7],[19,12,5,5],[5,19,6,8],[5,6,7,3],[5,5,8,4]],"trial_type":"free-sort","trial_index":26,"time_elapsed":183055,"internal_node_id":"0.0-3.0-14.0","session":2,"startTime":"2020-1-7 7:19:46","attn_word":["ZEBRA"],"stimulus":"sort_trial"},{"rt":2093,"stimulus":"sort_feedback","key_press":74,"trial_type":"html-keyboard-response","trial_index":27,"time_elapsed":185151,"internal_node_id":"0.0-3.0-15.0","session":2,"startTime":"2020-1-7 7:19:46","attn_word":["ZEBRA"]},{"animation_sequence":"[{\"cat\":6,\"src\":3,\"loc\":7},{\"cat\":12,\"src\":9,\"loc\":6},{\"cat\":17,\"src\":17,\"loc\":8},{\"cat\":12,\"src\":15,\"loc\":4},{\"cat\":17,\"src\":9,\"loc\":3},{\"cat\":6,\"src\":2,\"loc\":5},{\"cat\":17,\"src\":10,\"loc\":2},{\"cat\":12,\"src\":13,\"loc\":0},{\"cat\":6,\"src\":9,\"loc\":1}]","condition":2,"rt":19920,"time_sequence":[1102,1102,1102,1102,1103,1104,1101,1102,1102,10000],"trial_type":"animation","trial_index":28,"time_elapsed":205072,"internal_node_id":"0.0-3.0-16.0","session":2,"startTime":"2020-1-7 7:19:46","attn_word":["ZEBRA"],"stimulus":"setup2"},{"rt":463,"stimulus":"flanker_instructions","key_press":75,"trial_type":"html-keyboard-response","trial_index":29,"time_elapsed":205536,"internal_node_id":"0.0-3.0-17.0","session":2,"startTime":"2020-1-7 7:19:46","attn_word":["ZEBRA"]},{"rt":null,"stimulus":"flanker_test","key_press":null,"stim_type":"incongruent","direction":"left","trial_type":"image-keyboard-response","trial_index":30,"time_elapsed":207439,"internal_node_id":"0.0-3.0-18.0-0.0","session":2,"startTime":"2020-1-7 7:19:46","attn_word":["ZEBRA"],"correct":false},{"rt":null,"stimulus":"flanker_test","key_press":null,"stim_type":"congruent","direction":"right","trial_type":"image-keyboard-response","trial_index":31,"time_elapsed":208915,"internal_node_id":"0.0-3.0-18.0-0.1","session":2,"startTime":"2020-1-7 7:19:46","attn_word":["ZEBRA"],"correct":false},{"rt":null,"stimulus":"flanker_test","key_press":null,"stim_type":"congruent","direction":"left","trial_type":"image-keyboard-response","trial_index":32,"time_elapsed":210335,"internal_node_id":"0.0-3.0-18.0-0.2","session":2,"startTime":"2020-1-7 7:19:46","attn_word":["ZEBRA"],"correct":false},{"rt":null,"stimulus":"flanker_test","key_press":null,"stim_type":"incongruent","direction":"right","trial_type":"image-keyboard-response","trial_index":33,"time_elapsed":212114,"internal_node_id":"0.0-3.0-18.0-0.3","session":2,"startTime":"2020-1-7 7:19:46","attn_word":["ZEBRA"],"correct":false},{"init_locations":"[{\"cat\":6,\"src\":3,\"x\":60,\"y\":85},{\"cat\":12,\"src\":9,\"x\":43,\"y\":129},{\"cat\":17,\"src\":17,\"x\":41,\"y\":484},{\"cat\":12,\"src\":15,\"x\":24,\"y\":183},{\"cat\":17,\"src\":9,\"x\":76,\"y\":257},{\"cat\":6,\"src\":2,\"x\":5,\"y\":315},{\"cat\":17,\"src\":10,\"x\":76,\"y\":23},{\"cat\":12,\"src\":13,\"x\":83,\"y\":432},{\"cat\":6,\"src\":9,\"x\":46,\"y\":360}]","moves":"[{\"cat\":\"17\",\"src\":\"10\",\"x\":0,\"y\":0},{\"cat\":\"12\",\"src\":\"9\",\"x\":0,\"y\":0},{\"cat\":\"17\",\"src\":\"17\",\"x\":0,\"y\":0},{\"cat\":\"6\",\"src\":\"3\",\"x\":0,\"y\":0},{\"cat\":\"6\",\"src\":\"2\",\"x\":0,\"y\":0},{\"cat\":\"17\",\"src\":\"9\",\"x\":0,\"y\":0},{\"cat\":\"12\",\"src\":\"15\",\"x\":0,\"y\":0},{\"cat\":\"12\",\"src\":\"13\",\"x\":0,\"y\":0},{\"cat\":\"6\",\"src\":\"9\",\"x\":0,\"y\":0}]","final_locations":"[{\"cat\":17,\"src\":10,\"loc\":2},{\"cat\":12,\"src\":9,\"loc\":6},{\"cat\":17,\"src\":17,\"loc\":8},{\"cat\":6,\"src\":3,\"loc\":7},{\"cat\":6,\"src\":2,\"loc\":5},{\"cat\":17,\"src\":9,\"loc\":3},{\"cat\":12,\"src\":15,\"loc\":0},{\"cat\":12,\"src\":13,\"loc\":4},{\"cat\":6,\"src\":9,\"loc\":1}]","rt":20551,"sort_correct":7,"finalLocations":[[12,15,0,6],[6,9,1,8],[17,10,2,0],[17,9,3,5],[12,13,4,7],[6,2,5,4],[12,9,6,1],[6,3,7,3],[17,17,8,2]],"trial_type":"free-sort","trial_index":34,"time_elapsed":233767,"internal_node_id":"0.0-3.0-19.0","session":2,"startTime":"2020-1-7 7:19:46","attn_word":["ZEBRA"],"stimulus":"sort_trial"},{"rt":1170,"stimulus":"sort_feedback","key_press":75,"trial_type":"html-keyboard-response","trial_index":35,"time_elapsed":234938,"internal_node_id":"0.0-3.0-20.0","session":2,"startTime":"2020-1-7 7:19:46","attn_word":["ZEBRA"]},{"animation_sequence":"[{\"cat\":14,\"src\":2,\"loc\":8},{\"cat\":31,\"src\":18,\"loc\":0},{\"cat\":10,\"src\":2,\"loc\":4},{\"cat\":14,\"src\":7,\"loc\":6},{\"cat\":10,\"src\":1,\"loc\":3},{\"cat\":31,\"src\":2,\"loc\":1},{\"cat\":10,\"src\":16,\"loc\":5},{\"cat\":14,\"src\":14,\"loc\":7},{\"cat\":31,\"src\":5,\"loc\":2}]","condition":3,"rt":19918,"time_sequence":[1103,1101,1102,1101,1102,1101,1102,1103,1101,10002],"trial_type":"animation","trial_index":36,"time_elapsed":254857,"internal_node_id":"0.0-3.0-21.0","session":2,"startTime":"2020-1-7 7:19:46","attn_word":["ZEBRA"],"stimulus":"setup3"},{"rt":699,"stimulus":"flanker_instructions","key_press":68,"trial_type":"html-keyboard-response","trial_index":37,"time_elapsed":255558,"internal_node_id":"0.0-3.0-22.0","session":2,"startTime":"2020-1-7 7:19:46","attn_word":["ZEBRA"]},{"rt":null,"stimulus":"flanker_test","key_press":null,"stim_type":"congruent","direction":"right","trial_type":"image-keyboard-response","trial_index":38,"time_elapsed":257462,"internal_node_id":"0.0-3.0-23.0-0.0","session":2,"startTime":"2020-1-7 7:19:46","attn_word":["ZEBRA"],"correct":false},{"rt":null,"stimulus":"flanker_test","key_press":null,"stim_type":"incongruent","direction":"left","trial_type":"image-keyboard-response","trial_index":39,"time_elapsed":259141,"internal_node_id":"0.0-3.0-23.0-0.1","session":2,"startTime":"2020-1-7 7:19:46","attn_word":["ZEBRA"],"correct":false},{"rt":null,"stimulus":"flanker_test","key_press":null,"stim_type":"incongruent","direction":"right","trial_type":"image-keyboard-response","trial_index":40,"time_elapsed":260905,"internal_node_id":"0.0-3.0-23.0-0.2","session":2,"startTime":"2020-1-7 7:19:46","attn_word":["ZEBRA"],"correct":false},{"rt":null,"stimulus":"flanker_test","key_press":null,"stim_type":"congruent","direction":"left","trial_type":"image-keyboard-response","trial_index":41,"time_elapsed":262117,"internal_node_id":"0.0-3.0-23.0-0.3","session":2,"startTime":"2020-1-7 7:19:46","attn_word":["ZEBRA"],"correct":false},{"init_locations":"[{\"cat\":14,\"src\":2,\"x\":11,\"y\":431},{\"cat\":31,\"src\":18,\"x\":80,\"y\":133},{\"cat\":10,\"src\":2,\"x\":50,\"y\":314},{\"cat\":14,\"src\":7,\"x\":7,\"y\":250},{\"cat\":10,\"src\":1,\"x\":28,\"y\":490},{\"cat\":31,\"src\":2,\"x\":12,\"y\":14},{\"cat\":10,\"src\":16,\"x\":21,\"y\":187},{\"cat\":14,\"src\":14,\"x\":45,\"y\":388},{\"cat\":31,\"src\":5,\"x\":46,\"y\":84}]","moves":"[{\"cat\":\"31\",\"src\":\"2\",\"x\":0,\"y\":0},{\"cat\":\"31\",\"src\":\"18\",\"x\":0,\"y\":0},{\"cat\":\"14\",\"src\":\"7\",\"x\":0,\"y\":0},{\"cat\":\"14\",\"src\":\"2\",\"x\":0,\"y\":0},{\"cat\":\"10\",\"src\":\"16\",\"x\":0,\"y\":0},{\"cat\":\"10\",\"src\":\"2\",\"x\":0,\"y\":0},{\"cat\":\"10\",\"src\":\"1\",\"x\":729,\"y\":218},{\"cat\":\"10\",\"src\":\"1\",\"x\":0,\"y\":0},{\"cat\":\"14\",\"src\":\"14\",\"x\":341,\"y\":384},{\"cat\":\"31\",\"src\":\"5\",\"x\":0,\"y\":0},{\"cat\":\"14\",\"src\":\"14\",\"x\":0,\"y\":0}]","final_locations":"[{\"cat\":31,\"src\":2,\"loc\":1},{\"cat\":31,\"src\":18,\"loc\":0},{\"cat\":14,\"src\":7,\"loc\":6},{\"cat\":14,\"src\":2,\"loc\":8},{\"cat\":10,\"src\":16,\"loc\":5},{\"cat\":10,\"src\":2,\"loc\":4},{\"cat\":10,\"src\":1,\"loc\":3},{\"cat\":31,\"src\":5,\"loc\":2},{\"cat\":14,\"src\":14,\"loc\":7}]","rt":31794,"sort_correct":9,"finalLocations":[[31,18,0,1],[31,2,1,0],[31,5,2,7],[10,1,3,6],[10,2,4,5],[10,16,5,4],[14,7,6,2],[14,14,7,8],[14,2,8,3]],"trial_type":"free-sort","trial_index":42,"time_elapsed":295056,"internal_node_id":"0.0-3.0-24.0","session":2,"startTime":"2020-1-7 7:19:46","attn_word":["ZEBRA"],"stimulus":"sort_trial"},{"rt":1710,"stimulus":"sort_feedback","key_press":74,"trial_type":"html-keyboard-response","trial_index":43,"time_elapsed":296768,"internal_node_id":"0.0-3.0-25.0","session":2,"startTime":"2020-1-7 7:19:46","attn_word":["ZEBRA"]},{"animation_sequence":"[{\"cat\":9,\"src\":11,\"loc\":5},{\"cat\":0,\"src\":2,\"loc\":2},{\"cat\":20,\"src\":15,\"loc\":8},{\"cat\":0,\"src\":8,\"loc\":3},{\"cat\":20,\"src\":11,\"loc\":1},{\"cat\":9,\"src\":16,\"loc\":6},{\"cat\":9,\"src\":13,\"loc\":0},{\"cat\":0,\"src\":18,\"loc\":7},{\"cat\":20,\"src\":19,\"loc\":4}]","condition":5,"rt":19916,"time_sequence":[1103,1101,1101,1102,1101,1102,1101,1102,1102,10001],"trial_type":"animation","trial_index":44,"time_elapsed":316687,"internal_node_id":"0.0-3.0-26.0","session":2,"startTime":"2020-1-7 7:19:46","attn_word":["ZEBRA"],"stimulus":"setup5"},{"rt":458,"stimulus":"flanker_instructions","key_press":68,"trial_type":"html-keyboard-response","trial_index":45,"time_elapsed":317146,"internal_node_id":"0.0-3.0-27.0","session":2,"startTime":"2020-1-7 7:19:46","attn_word":["ZEBRA"]},{"rt":null,"stimulus":"flanker_test","key_press":null,"stim_type":"congruent","direction":"right","trial_type":"image-keyboard-response","trial_index":46,"time_elapsed":319049,"internal_node_id":"0.0-3.0-28.0-0.0","session":2,"startTime":"2020-1-7 7:19:46","attn_word":["ZEBRA"],"correct":false},{"rt":null,"stimulus":"flanker_test","key_press":null,"stim_type":"incongruent","direction":"left","trial_type":"image-keyboard-response","trial_index":47,"time_elapsed":321044,"internal_node_id":"0.0-3.0-28.0-0.1","session":2,"startTime":"2020-1-7 7:19:46","attn_word":["ZEBRA"],"correct":false},{"rt":null,"stimulus":"flanker_test","key_press":null,"stim_type":"incongruent","direction":"right","trial_type":"image-keyboard-response","trial_index":48,"time_elapsed":322529,"internal_node_id":"0.0-3.0-28.0-0.2","session":2,"startTime":"2020-1-7 7:19:46","attn_word":["ZEBRA"],"correct":false},{"rt":null,"stimulus":"flanker_test","key_press":null,"stim_type":"congruent","direction":"left","trial_type":"image-keyboard-response","trial_index":49,"time_elapsed":324380,"internal_node_id":"0.0-3.0-28.0-0.3","session":2,"startTime":"2020-1-7 7:19:46","attn_word":["ZEBRA"],"correct":false},{"init_locations":"[{\"cat\":9,\"src\":11,\"x\":82,\"y\":359},{\"cat\":0,\"src\":2,\"x\":27,\"y\":191},{\"cat\":20,\"src\":15,\"x\":20,\"y\":83},{\"cat\":0,\"src\":8,\"x\":51,\"y\":501},{\"cat\":20,\"src\":11,\"x\":67,\"y\":301},{\"cat\":9,\"src\":16,\"x\":11,\"y\":421},{\"cat\":9,\"src\":13,\"x\":38,\"y\":250},{\"cat\":0,\"src\":18,\"x\":48,\"y\":6},{\"cat\":20,\"src\":19,\"x\":0,\"y\":135}]","moves":"[{\"cat\":\"9\",\"src\":\"13\",\"x\":0,\"y\":0},{\"cat\":\"20\",\"src\":\"11\",\"x\":400,\"y\":83},{\"cat\":\"0\",\"src\":\"2\",\"x\":0,\"y\":0},{\"cat\":\"20\",\"src\":\"11\",\"x\":0,\"y\":0},{\"cat\":\"9\",\"src\":\"16\",\"x\":0,\"y\":0},{\"cat\":\"20\",\"src\":\"15\",\"x\":0,\"y\":0},{\"cat\":\"9\",\"src\":\"11\",\"x\":0,\"y\":0},{\"cat\":\"0\",\"src\":\"18\",\"x\":0,\"y\":0},{\"cat\":\"20\",\"src\":\"19\",\"x\":0,\"y\":0},{\"cat\":\"0\",\"src\":\"8\",\"x\":0,\"y\":0}]","final_locations":"[{\"cat\":9,\"src\":13,\"loc\":0},{\"cat\":0,\"src\":2,\"loc\":2},{\"cat\":20,\"src\":11,\"loc\":1},{\"cat\":9,\"src\":16,\"loc\":6},{\"cat\":20,\"src\":15,\"loc\":8},{\"cat\":9,\"src\":11,\"loc\":5},{\"cat\":0,\"src\":18,\"loc\":7},{\"cat\":20,\"src\":19,\"loc\":4},{\"cat\":0,\"src\":8,\"loc\":3}]","rt":27821,"sort_correct":9,"finalLocations":[[9,13,0,0],[20,11,1,2],[0,2,2,1],[0,8,3,8],[20,19,4,7],[9,11,5,5],[9,16,6,3],[0,18,7,6],[20,15,8,4]],"trial_type":"free-sort","trial_index":50,"time_elapsed":353000,"internal_node_id":"0.0-3.0-29.0","session":2,"startTime":"2020-1-7 7:19:46","attn_word":["ZEBRA"],"stimulus":"sort_trial"},{"rt":739,"stimulus":"sort_feedback","key_press":69,"trial_type":"html-keyboard-response","trial_index":51,"time_elapsed":353741,"internal_node_id":"0.0-3.0-30.0","session":2,"startTime":"2020-1-7 7:19:46","attn_word":["ZEBRA"]},{"animation_sequence":"[{\"cat\":29,\"src\":0,\"loc\":5},{\"cat\":29,\"src\":11,\"loc\":6},{\"cat\":29,\"src\":17,\"loc\":2},{\"cat\":2,\"src\":2,\"loc\":0},{\"cat\":2,\"src\":8,\"loc\":4},{\"cat\":2,\"src\":9,\"loc\":8},{\"cat\":11,\"src\":11,\"loc\":3},{\"cat\":11,\"src\":7,\"loc\":1},{\"cat\":11,\"src\":2,\"loc\":7}]","condition":4,"rt":19921,"time_sequence":[1104,1101,1102,1102,1102,1102,1102,1102,1102,10002],"trial_type":"animation","trial_index":52,"time_elapsed":373665,"internal_node_id":"0.0-3.0-31.0","session":2,"startTime":"2020-1-7 7:19:46","attn_word":["ZEBRA"],"stimulus":"setup4"},{"rt":1323,"stimulus":"flanker_instructions","key_press":83,"trial_type":"html-keyboard-response","trial_index":53,"time_elapsed":374992,"internal_node_id":"0.0-3.0-32.0","session":2,"startTime":"2020-1-7 7:19:46","attn_word":["ZEBRA"]},{"rt":null,"stimulus":"flanker_test","key_press":null,"stim_type":"incongruent","direction":"left","trial_type":"image-keyboard-response","trial_index":54,"time_elapsed":376898,"internal_node_id":"0.0-3.0-33.0-0.0","session":2,"startTime":"2020-1-7 7:19:46","attn_word":["ZEBRA"],"correct":false},{"rt":null,"stimulus":"flanker_test","key_press":null,"stim_type":"incongruent","direction":"right","trial_type":"image-keyboard-response","trial_index":55,"time_elapsed":378203,"internal_node_id":"0.0-3.0-33.0-0.1","session":2,"startTime":"2020-1-7 7:19:46","attn_word":["ZEBRA"],"correct":false},{"rt":null,"stimulus":"flanker_test","key_press":null,"stim_type":"congruent","direction":"right","trial_type":"image-keyboard-response","trial_index":56,"time_elapsed":379915,"internal_node_id":"0.0-3.0-33.0-0.2","session":2,"startTime":"2020-1-7 7:19:46","attn_word":["ZEBRA"],"correct":false},{"rt":null,"stimulus":"flanker_test","key_press":null,"stim_type":"congruent","direction":"left","trial_type":"image-keyboard-response","trial_index":57,"time_elapsed":381722,"internal_node_id":"0.0-3.0-33.0-0.3","session":2,"startTime":"2020-1-7 7:19:46","attn_word":["ZEBRA"],"correct":false},{"init_locations":"[{\"cat\":29,\"src\":0,\"x\":41,\"y\":128},{\"cat\":29,\"src\":11,\"x\":52,\"y\":365},{\"cat\":29,\"src\":17,\"x\":28,\"y\":9},{\"cat\":2,\"src\":2,\"x\":1,\"y\":419},{\"cat\":2,\"src\":8,\"x\":65,\"y\":488},{\"cat\":2,\"src\":9,\"x\":11,\"y\":191},{\"cat\":11,\"src\":11,\"x\":38,\"y\":265},{\"cat\":11,\"src\":7,\"x\":81,\"y\":300},{\"cat\":11,\"src\":2,\"x\":49,\"y\":66}]","moves":"[{\"cat\":\"11\",\"src\":\"7\",\"x\":0,\"y\":0},{\"cat\":\"2\",\"src\":\"2\",\"x\":0,\"y\":0},{\"cat\":\"29\",\"src\":\"17\",\"x\":0,\"y\":0},{\"cat\":\"29\",\"src\":\"11\",\"x\":0,\"y\":0},{\"cat\":\"11\",\"src\":\"2\",\"x\":0,\"y\":0},{\"cat\":\"2\",\"src\":\"9\",\"x\":0,\"y\":0},{\"cat\":\"29\",\"src\":\"0\",\"x\":0,\"y\":0},{\"cat\":\"11\",\"src\":\"11\",\"x\":0,\"y\":0},{\"cat\":\"2\",\"src\":\"8\",\"x\":0,\"y\":0}]","final_locations":"[{\"cat\":11,\"src\":7,\"loc\":1},{\"cat\":2,\"src\":2,\"loc\":0},{\"cat\":29,\"src\":17,\"loc\":2},{\"cat\":29,\"src\":11,\"loc\":6},{\"cat\":11,\"src\":2,\"loc\":7},{\"cat\":2,\"src\":9,\"loc\":8},{\"cat\":29,\"src\":0,\"loc\":5},{\"cat\":11,\"src\":11,\"loc\":4},{\"cat\":2,\"src\":8,\"loc\":3}]","rt":20422,"sort_correct":7,"finalLocations":[[2,2,0,1],[11,7,1,0],[29,17,2,2],[2,8,3,8],[11,11,4,7],[29,0,5,6],[29,11,6,3],[11,2,7,4],[2,9,8,5]],"trial_type":"free-sort","trial_index":58,"time_elapsed":403008,"internal_node_id":"0.0-3.0-34.0","session":2,"startTime":"2020-1-7 7:19:46","attn_word":["ZEBRA"],"stimulus":"sort_trial"},{"rt":3371,"stimulus":"sort_feedback","key_press":68,"trial_type":"html-keyboard-response","trial_index":59,"time_elapsed":406381,"internal_node_id":"0.0-3.0-35.0","session":2,"startTime":"2020-1-7 7:19:46","attn_word":["ZEBRA"]},{"animation_sequence":"[{\"cat\":3,\"src\":17,\"loc\":3},{\"cat\":26,\"src\":11,\"loc\":4},{\"cat\":11,\"src\":17,\"loc\":5},{\"cat\":3,\"src\":16,\"loc\":6},{\"cat\":26,\"src\":4,\"loc\":8},{\"cat\":11,\"src\":9,\"loc\":7},{\"cat\":11,\"src\":0,\"loc\":0},{\"cat\":26,\"src\":16,\"loc\":2},{\"cat\":3,\"src\":10,\"loc\":1}]","condition":2,"rt":19923,"time_sequence":[1103,1103,1102,1104,1102,1102,1102,1101,1103,10001],"trial_type":"animation","trial_index":60,"time_elapsed":426304,"internal_node_id":"0.0-3.0-36.0","session":2,"startTime":"2020-1-7 7:19:46","attn_word":["ZEBRA"],"stimulus":"setup2"},{"rt":1131,"stimulus":"flanker_instructions","key_press":68,"trial_type":"html-keyboard-response","trial_index":61,"time_elapsed":427437,"internal_node_id":"0.0-3.0-37.0","session":2,"startTime":"2020-1-7 7:19:46","attn_word":["ZEBRA"]},{"rt":null,"stimulus":"flanker_test","key_press":null,"stim_type":"congruent","direction":"right","trial_type":"image-keyboard-response","trial_index":62,"time_elapsed":429340,"internal_node_id":"0.0-3.0-38.0-0.0","session":2,"startTime":"2020-1-7 7:19:46","attn_word":["ZEBRA"],"correct":false},{"rt":null,"stimulus":"flanker_test","key_press":null,"stim_type":"incongruent","direction":"left","trial_type":"image-keyboard-response","trial_index":63,"time_elapsed":430988,"internal_node_id":"0.0-3.0-38.0-0.1","session":2,"startTime":"2020-1-7 7:19:46","attn_word":["ZEBRA"],"correct":false},{"rt":null,"stimulus":"flanker_test","key_press":null,"stim_type":"congruent","direction":"left","trial_type":"image-keyboard-response","trial_index":64,"time_elapsed":432788,"internal_node_id":"0.0-3.0-38.0-0.2","session":2,"startTime":"2020-1-7 7:19:46","attn_word":["ZEBRA"],"correct":false},{"rt":null,"stimulus":"flanker_test","key_press":null,"stim_type":"incongruent","direction":"right","trial_type":"image-keyboard-response","trial_index":65,"time_elapsed":434663,"internal_node_id":"0.0-3.0-38.0-0.3","session":2,"startTime":"2020-1-7 7:19:46","attn_word":["ZEBRA"],"correct":false},{"init_locations":"[{\"cat\":3,\"src\":17,\"x\":47,\"y\":68},{\"cat\":26,\"src\":11,\"x\":60,\"y\":310},{\"cat\":11,\"src\":17,\"x\":43,\"y\":498},{\"cat\":3,\"src\":16,\"x\":1,\"y\":204},{\"cat\":26,\"src\":4,\"x\":57,\"y\":368},{\"cat\":11,\"src\":9,\"x\":48,\"y\":131},{\"cat\":11,\"src\":0,\"x\":61,\"y\":23},{\"cat\":26,\"src\":16,\"x\":7,\"y\":252},{\"cat\":3,\"src\":10,\"x\":74,\"y\":419}]","moves":"[{\"cat\":\"11\",\"src\":\"0\",\"x\":0,\"y\":0},{\"cat\":\"26\",\"src\":\"16\",\"x\":0,\"y\":0},{\"cat\":\"3\",\"src\":\"16\",\"x\":0,\"y\":0},{\"cat\":\"11\",\"src\":\"9\",\"x\":0,\"y\":0},{\"cat\":\"26\",\"src\":\"4\",\"x\":0,\"y\":0},{\"cat\":\"11\",\"src\":\"17\",\"x\":0,\"y\":0},{\"cat\":\"3\",\"src\":\"17\",\"x\":0,\"y\":0},{\"cat\":\"26\",\"src\":\"11\",\"x\":0,\"y\":0},{\"cat\":\"3\",\"src\":\"10\",\"x\":0,\"y\":0}]","final_locations":"[{\"cat\":11,\"src\":0,\"loc\":0},{\"cat\":26,\"src\":16,\"loc\":2},{\"cat\":3,\"src\":16,\"loc\":6},{\"cat\":11,\"src\":9,\"loc\":7},{\"cat\":26,\"src\":4,\"loc\":8},{\"cat\":11,\"src\":17,\"loc\":5},{\"cat\":3,\"src\":17,\"loc\":3},{\"cat\":26,\"src\":11,\"loc\":1},{\"cat\":3,\"src\":10,\"loc\":4}]","rt":23190,"sort_correct":7,"finalLocations":[[11,0,0,0],[26,11,1,7],[26,16,2,1],[3,17,3,6],[3,10,4,8],[11,17,5,5],[3,16,6,2],[11,9,7,3],[26,4,8,4]],"trial_type":"free-sort","trial_index":66,"time_elapsed":458224,"internal_node_id":"0.0-3.0-39.0","session":2,"startTime":"2020-1-7 7:19:46","attn_word":["ZEBRA"],"stimulus":"sort_trial"},{"rt":471,"stimulus":"sort_feedback","key_press":83,"trial_type":"html-keyboard-response","trial_index":67,"time_elapsed":458696,"internal_node_id":"0.0-3.0-40.0","session":2,"startTime":"2020-1-7 7:19:46","attn_word":["ZEBRA"]},{"animation_sequence":"[{\"cat\":14,\"src\":8,\"loc\":1},{\"cat\":26,\"src\":14,\"loc\":8},{\"cat\":22,\"src\":19,\"loc\":3},{\"cat\":14,\"src\":10,\"loc\":2},{\"cat\":22,\"src\":8,\"loc\":4},{\"cat\":26,\"src\":13,\"loc\":7},{\"cat\":14,\"src\":0,\"loc\":0},{\"cat\":26,\"src\":0,\"loc\":6},{\"cat\":22,\"src\":15,\"loc\":5}]","condition":3,"rt":19919,"time_sequence":[1103,1101,1102,1102,1102,1103,1102,1101,1101,10001],"trial_type":"animation","trial_index":68,"time_elapsed":478617,"internal_node_id":"0.0-3.0-41.0","session":2,"startTime":"2020-1-7 7:19:46","attn_word":["ZEBRA"],"stimulus":"setup3"},{"rt":409,"stimulus":"flanker_instructions","key_press":68,"trial_type":"html-keyboard-response","trial_index":69,"time_elapsed":479028,"internal_node_id":"0.0-3.0-42.0","session":2,"startTime":"2020-1-7 7:19:46","attn_word":["ZEBRA"]},{"rt":null,"stimulus":"flanker_test","key_press":null,"stim_type":"incongruent","direction":"right","trial_type":"image-keyboard-response","trial_index":70,"time_elapsed":481887,"internal_node_id":"0.0-3.0-43.0-0.0","session":2,"startTime":"2020-1-7 7:19:46","attn_word":["ZEBRA"],"correct":false},{"rt":null,"stimulus":"flanker_test","key_press":null,"stim_type":"congruent","direction":"right","trial_type":"image-keyboard-response","trial_index":71,"time_elapsed":483887,"internal_node_id":"0.0-3.0-43.0-0.1","session":2,"startTime":"2020-1-7 7:19:46","attn_word":["ZEBRA"],"correct":false},{"rt":null,"stimulus":"flanker_test","key_press":null,"stim_type":"incongruent","direction":"left","trial_type":"image-keyboard-response","trial_index":72,"time_elapsed":485602,"internal_node_id":"0.0-3.0-43.0-0.2","session":2,"startTime":"2020-1-7 7:19:46","attn_word":["ZEBRA"],"correct":false},{"rt":null,"stimulus":"flanker_test","key_press":null,"stim_type":"congruent","direction":"left","trial_type":"image-keyboard-response","trial_index":73,"time_elapsed":487546,"internal_node_id":"0.0-3.0-43.0-0.3","session":2,"startTime":"2020-1-7 7:19:46","attn_word":["ZEBRA"],"correct":false},{"init_locations":"[{\"cat\":14,\"src\":8,\"x\":9,\"y\":184},{\"cat\":26,\"src\":14,\"x\":46,\"y\":76},{\"cat\":22,\"src\":19,\"x\":30,\"y\":144},{\"cat\":14,\"src\":10,\"x\":67,\"y\":421},{\"cat\":22,\"src\":8,\"x\":12,\"y\":318},{\"cat\":26,\"src\":13,\"x\":69,\"y\":23},{\"cat\":14,\"src\":0,\"x\":61,\"y\":495},{\"cat\":26,\"src\":0,\"x\":77,\"y\":266},{\"cat\":22,\"src\":15,\"x\":3,\"y\":361}]","moves":"[{\"cat\":\"14\",\"src\":\"8\",\"x\":0,\"y\":0},{\"cat\":\"14\",\"src\":\"0\",\"x\":0,\"y\":0},{\"cat\":\"14\",\"src\":\"10\",\"x\":0,\"y\":0},{\"cat\":\"26\",\"src\":\"13\",\"x\":0,\"y\":0},{\"cat\":\"26\",\"src\":\"14\",\"x\":0,\"y\":0},{\"cat\":\"22\",\"src\":\"19\",\"x\":0,\"y\":0},{\"cat\":\"22\",\"src\":\"8\",\"x\":0,\"y\":0},{\"cat\":\"26\",\"src\":\"0\",\"x\":0,\"y\":0},{\"cat\":\"22\",\"src\":\"15\",\"x\":0,\"y\":0}]","final_locations":"[{\"cat\":14,\"src\":8,\"loc\":1},{\"cat\":14,\"src\":0,\"loc\":0},{\"cat\":14,\"src\":10,\"loc\":2},{\"cat\":26,\"src\":13,\"loc\":7},{\"cat\":26,\"src\":14,\"loc\":8},{\"cat\":22,\"src\":19,\"loc\":3},{\"cat\":22,\"src\":8,\"loc\":4},{\"cat\":26,\"src\":0,\"loc\":6},{\"cat\":22,\"src\":15,\"loc\":5}]","rt":31193,"sort_correct":9,"finalLocations":[[14,0,0,1],[14,8,1,0],[14,10,2,2],[22,19,3,5],[22,8,4,6],[22,15,5,8],[26,0,6,7],[26,13,7,3],[26,14,8,4]],"trial_type":"free-sort","trial_index":74,"time_elapsed":519566,"internal_node_id":"0.0-3.0-44.0","session":2,"startTime":"2020-1-7 7:19:46","attn_word":["ZEBRA"],"stimulus":"sort_trial"},{"rt":5742,"stimulus":"sort_feedback","key_press":68,"trial_type":"html-keyboard-response","trial_index":75,"time_elapsed":525312,"internal_node_id":"0.0-3.0-45.0","session":2,"startTime":"2020-1-7 7:19:46","attn_word":["ZEBRA"]},{"animation_sequence":"[{\"cat\":29,\"src\":12,\"loc\":5},{\"cat\":29,\"src\":4,\"loc\":4},{\"cat\":29,\"src\":9,\"loc\":3},{\"cat\":19,\"src\":7,\"loc\":1},{\"cat\":19,\"src\":12,\"loc\":2},{\"cat\":19,\"src\":6,\"loc\":0},{\"cat\":21,\"src\":0,\"loc\":8},{\"cat\":21,\"src\":10,\"loc\":7},{\"cat\":21,\"src\":11,\"loc\":6}]","condition":1,"rt":19915,"time_sequence":[1102,1101,1101,1102,1102,1101,1102,1102,1101,10001],"trial_type":"animation","trial_index":76,"time_elapsed":545228,"internal_node_id":"0.0-3.0-46.0","session":2,"startTime":"2020-1-7 7:19:46","attn_word":["ZEBRA"],"stimulus":"setup1"},{"rt":1073,"stimulus":"flanker_instructions","key_press":72,"trial_type":"html-keyboard-response","trial_index":77,"time_elapsed":546302,"internal_node_id":"0.0-3.0-47.0","session":2,"startTime":"2020-1-7 7:19:46","attn_word":["ZEBRA"]},{"rt":null,"stimulus":"flanker_test","key_press":null,"stim_type":"congruent","direction":"left","trial_type":"image-keyboard-response","trial_index":78,"time_elapsed":548207,"internal_node_id":"0.0-3.0-48.0-0.0","session":2,"startTime":"2020-1-7 7:19:46","attn_word":["ZEBRA"],"correct":false},{"rt":null,"stimulus":"flanker_test","key_press":null,"stim_type":"congruent","direction":"right","trial_type":"image-keyboard-response","trial_index":79,"time_elapsed":549564,"internal_node_id":"0.0-3.0-48.0-0.1","session":2,"startTime":"2020-1-7 7:19:46","attn_word":["ZEBRA"],"correct":false},{"rt":null,"stimulus":"flanker_test","key_press":null,"stim_type":"incongruent","direction":"right","trial_type":"image-keyboard-response","trial_index":80,"time_elapsed":551327,"internal_node_id":"0.0-3.0-48.0-0.2","session":2,"startTime":"2020-1-7 7:19:46","attn_word":["ZEBRA"],"correct":false},{"rt":null,"stimulus":"flanker_test","key_press":null,"stim_type":"incongruent","direction":"left","trial_type":"image-keyboard-response","trial_index":81,"time_elapsed":553049,"internal_node_id":"0.0-3.0-48.0-0.3","session":2,"startTime":"2020-1-7 7:19:46","attn_word":["ZEBRA"],"correct":false},{"init_locations":"[{\"cat\":29,\"src\":12,\"x\":66,\"y\":249},{\"cat\":29,\"src\":4,\"x\":69,\"y\":499},{\"cat\":29,\"src\":9,\"x\":71,\"y\":76},{\"cat\":19,\"src\":7,\"x\":9,\"y\":124},{\"cat\":19,\"src\":12,\"x\":69,\"y\":27},{\"cat\":19,\"src\":6,\"x\":80,\"y\":188},{\"cat\":21,\"src\":0,\"x\":29,\"y\":429},{\"cat\":21,\"src\":10,\"x\":30,\"y\":329},{\"cat\":21,\"src\":11,\"x\":75,\"y\":364}]","moves":"[{\"cat\":\"19\",\"src\":\"12\",\"x\":0,\"y\":0},{\"cat\":\"19\",\"src\":\"6\",\"x\":0,\"y\":0},{\"cat\":\"19\",\"src\":\"7\",\"x\":0,\"y\":0},{\"cat\":\"29\",\"src\":\"12\",\"x\":0,\"y\":0},{\"cat\":\"29\",\"src\":\"9\",\"x\":0,\"y\":0},{\"cat\":\"29\",\"src\":\"4\",\"x\":0,\"y\":0},{\"cat\":\"21\",\"src\":\"10\",\"x\":0,\"y\":0},{\"cat\":\"21\",\"src\":\"11\",\"x\":0,\"y\":0},{\"cat\":\"21\",\"src\":\"0\",\"x\":0,\"y\":0}]","final_locations":"[{\"cat\":19,\"src\":12,\"loc\":2},{\"cat\":19,\"src\":6,\"loc\":0},{\"cat\":19,\"src\":7,\"loc\":1},{\"cat\":29,\"src\":12,\"loc\":5},{\"cat\":29,\"src\":9,\"loc\":3},{\"cat\":29,\"src\":4,\"loc\":4},{\"cat\":21,\"src\":10,\"loc\":6},{\"cat\":21,\"src\":11,\"loc\":7},{\"cat\":21,\"src\":0,\"loc\":8}]","rt":19950,"sort_correct":7,"finalLocations":[[19,6,0,1],[19,7,1,2],[19,12,2,0],[29,9,3,4],[29,4,4,5],[29,12,5,3],[21,10,6,6],[21,11,7,7],[21,0,8,8]],"trial_type":"free-sort","trial_index":82,"time_elapsed":573360,"internal_node_id":"0.0-3.0-49.0","session":2,"startTime":"2020-1-7 7:19:46","attn_word":["ZEBRA"],"stimulus":"sort_trial"},{"rt":11795,"stimulus":"sort_feedback","key_press":68,"trial_type":"html-keyboard-response","trial_index":83,"time_elapsed":585157,"internal_node_id":"0.0-3.0-50.0","session":2,"startTime":"2020-1-7 7:19:46","attn_word":["ZEBRA"]},{"animation_sequence":"[{\"cat\":5,\"src\":6,\"loc\":6},{\"cat\":5,\"src\":14,\"loc\":0},{\"cat\":5,\"src\":5,\"loc\":4},{\"cat\":13,\"src\":18,\"loc\":2},{\"cat\":13,\"src\":12,\"loc\":5},{\"cat\":13,\"src\":3,\"loc\":8},{\"cat\":12,\"src\":19,\"loc\":1},{\"cat\":12,\"src\":0,\"loc\":3},{\"cat\":12,\"src\":7,\"loc\":7}]","condition":4,"rt":20242,"time_sequence":[1103,1102,1101,1425,1102,1102,1101,1101,1102,10003],"trial_type":"animation","trial_index":84,"time_elapsed":605400,"internal_node_id":"0.0-3.0-51.0","session":2,"startTime":"2020-1-7 7:19:46","attn_word":["ZEBRA"],"stimulus":"setup4"},{"rt":425,"stimulus":"flanker_instructions","key_press":68,"trial_type":"html-keyboard-response","trial_index":85,"time_elapsed":605827,"internal_node_id":"0.0-3.0-52.0","session":2,"startTime":"2020-1-7 7:19:46","attn_word":["ZEBRA"]},{"rt":null,"stimulus":"flanker_test","key_press":null,"stim_type":"congruent","direction":"left","trial_type":"image-keyboard-response","trial_index":86,"time_elapsed":607731,"internal_node_id":"0.0-3.0-53.0-0.0","session":2,"startTime":"2020-1-7 7:19:46","attn_word":["ZEBRA"],"correct":false},{"rt":null,"stimulus":"flanker_test","key_press":null,"stim_type":"incongruent","direction":"left","trial_type":"image-keyboard-response","trial_index":87,"time_elapsed":609442,"internal_node_id":"0.0-3.0-53.0-0.1","session":2,"startTime":"2020-1-7 7:19:46","attn_word":["ZEBRA"],"correct":false},{"rt":null,"stimulus":"flanker_test","key_press":null,"stim_type":"incongruent","direction":"right","trial_type":"image-keyboard-response","trial_index":88,"time_elapsed":611315,"internal_node_id":"0.0-3.0-53.0-0.2","session":2,"startTime":"2020-1-7 7:19:46","attn_word":["ZEBRA"],"correct":false},{"rt":null,"stimulus":"flanker_test","key_press":null,"stim_type":"congruent","direction":"right","trial_type":"image-keyboard-response","trial_index":89,"time_elapsed":613221,"internal_node_id":"0.0-3.0-53.0-0.3","session":2,"startTime":"2020-1-7 7:19:46","attn_word":["ZEBRA"],"correct":false},{"init_locations":"[{\"cat\":5,\"src\":6,\"x\":50,\"y\":444},{\"cat\":5,\"src\":14,\"x\":64,\"y\":19},{\"cat\":5,\"src\":5,\"x\":75,\"y\":197},{\"cat\":13,\"src\":18,\"x\":47,\"y\":317},{\"cat\":13,\"src\":12,\"x\":67,\"y\":244},{\"cat\":13,\"src\":3,\"x\":7,\"y\":147},{\"cat\":12,\"src\":19,\"x\":64,\"y\":483},{\"cat\":12,\"src\":0,\"x\":58,\"y\":67},{\"cat\":12,\"src\":7,\"x\":78,\"y\":364}]","moves":"[{\"cat\":\"5\",\"src\":\"14\",\"x\":0,\"y\":0},{\"cat\":\"12\",\"src\":\"19\",\"x\":0,\"y\":0},{\"cat\":\"13\",\"src\":\"18\",\"x\":383,\"y\":172},{\"cat\":\"13\",\"src\":\"18\",\"x\":0,\"y\":0},{\"cat\":\"5\",\"src\":\"6\",\"x\":0,\"y\":0},{\"cat\":\"13\",\"src\":\"3\",\"x\":0,\"y\":0},{\"cat\":\"13\",\"src\":\"12\",\"x\":0,\"y\":0},{\"cat\":\"5\",\"src\":\"5\",\"x\":0,\"y\":0},{\"cat\":\"12\",\"src\":\"0\",\"x\":0,\"y\":0},{\"cat\":\"12\",\"src\":\"7\",\"x\":0,\"y\":0}]","final_locations":"[{\"cat\":5,\"src\":14,\"loc\":0},{\"cat\":12,\"src\":19,\"loc\":1},{\"cat\":13,\"src\":18,\"loc\":2},{\"cat\":5,\"src\":6,\"loc\":6},{\"cat\":13,\"src\":3,\"loc\":8},{\"cat\":13,\"src\":12,\"loc\":5},{\"cat\":5,\"src\":5,\"loc\":7},{\"cat\":12,\"src\":0,\"loc\":4},{\"cat\":12,\"src\":7,\"loc\":3}]","rt":18935,"sort_correct":6,"finalLocations":[[5,14,0,0],[12,19,1,1],[13,18,2,2],[12,7,3,8],[12,0,4,7],[13,12,5,5],[5,6,6,3],[5,5,7,6],[13,3,8,4]],"trial_type":"free-sort","trial_index":90,"time_elapsed":633215,"internal_node_id":"0.0-3.0-54.0","session":2,"startTime":"2020-1-7 7:19:46","attn_word":["ZEBRA"],"stimulus":"sort_trial"},{"rt":1868,"stimulus":"sort_feedback","key_press":72,"trial_type":"html-keyboard-response","trial_index":91,"time_elapsed":635085,"internal_node_id":"0.0-3.0-55.0","session":2,"startTime":"2020-1-7 7:19:46","attn_word":["ZEBRA"]},{"animation_sequence":"[{\"cat\":25,\"src\":9,\"loc\":3},{\"cat\":12,\"src\":18,\"loc\":5},{\"cat\":11,\"src\":8,\"loc\":4},{\"cat\":25,\"src\":1,\"loc\":7},{\"cat\":11,\"src\":10,\"loc\":8},{\"cat\":12,\"src\":11,\"loc\":6},{\"cat\":25,\"src\":2,\"loc\":1},{\"cat\":11,\"src\":3,\"loc\":0},{\"cat\":12,\"src\":6,\"loc\":2}]","condition":2,"rt":19919,"time_sequence":[1104,1102,1101,1103,1101,1101,1102,1102,1102,10001],"trial_type":"animation","trial_index":92,"time_elapsed":655005,"internal_node_id":"0.0-3.0-56.0","session":2,"startTime":"2020-1-7 7:19:46","attn_word":["ZEBRA"],"stimulus":"setup2"},{"rt":505,"stimulus":"flanker_instructions","key_press":72,"trial_type":"html-keyboard-response","trial_index":93,"time_elapsed":655512,"internal_node_id":"0.0-3.0-57.0","session":2,"startTime":"2020-1-7 7:19:46","attn_word":["ZEBRA"]},{"rt":null,"stimulus":"flanker_test","key_press":null,"stim_type":"incongruent","direction":"left","trial_type":"image-keyboard-response","trial_index":94,"time_elapsed":657415,"internal_node_id":"0.0-3.0-58.0-0.0","session":2,"startTime":"2020-1-7 7:19:46","attn_word":["ZEBRA"],"correct":false},{"rt":null,"stimulus":"flanker_test","key_press":null,"stim_type":"congruent","direction":"left","trial_type":"image-keyboard-response","trial_index":95,"time_elapsed":659517,"internal_node_id":"0.0-3.0-58.0-0.1","session":2,"startTime":"2020-1-7 7:19:46","attn_word":["ZEBRA"],"correct":false},{"rt":null,"stimulus":"flanker_test","key_press":null,"stim_type":"incongruent","direction":"right","trial_type":"image-keyboard-response","trial_index":96,"time_elapsed":661503,"internal_node_id":"0.0-3.0-58.0-0.2","session":2,"startTime":"2020-1-7 7:19:46","attn_word":["ZEBRA"],"correct":false},{"rt":null,"stimulus":"flanker_test","key_press":null,"stim_type":"congruent","direction":"right","trial_type":"image-keyboard-response","trial_index":97,"time_elapsed":662764,"internal_node_id":"0.0-3.0-58.0-0.3","session":2,"startTime":"2020-1-7 7:19:46","attn_word":["ZEBRA"],"correct":false},{"init_locations":"[{\"cat\":25,\"src\":9,\"x\":45,\"y\":121},{\"cat\":12,\"src\":18,\"x\":32,\"y\":78},{\"cat\":11,\"src\":8,\"x\":81,\"y\":434},{\"cat\":25,\"src\":1,\"x\":29,\"y\":322},{\"cat\":11,\"src\":10,\"x\":14,\"y\":265},{\"cat\":12,\"src\":11,\"x\":68,\"y\":185},{\"cat\":25,\"src\":2,\"x\":77,\"y\":498},{\"cat\":11,\"src\":3,\"x\":81,\"y\":364},{\"cat\":12,\"src\":6,\"x\":5,\"y\":26}]","moves":"[{\"cat\":\"25\",\"src\":\"2\",\"x\":0,\"y\":0},{\"cat\":\"12\",\"src\":\"11\",\"x\":0,\"y\":0},{\"cat\":\"25\",\"src\":\"1\",\"x\":0,\"y\":0},{\"cat\":\"11\",\"src\":\"10\",\"x\":0,\"y\":0},{\"cat\":\"12\",\"src\":\"18\",\"x\":0,\"y\":0},{\"cat\":\"11\",\"src\":\"8\",\"x\":0,\"y\":0},{\"cat\":\"25\",\"src\":\"9\",\"x\":0,\"y\":0},{\"cat\":\"11\",\"src\":\"3\",\"x\":413,\"y\":169},{\"cat\":\"12\",\"src\":\"6\",\"x\":0,\"y\":0},{\"cat\":\"11\",\"src\":\"3\",\"x\":359,\"y\":167},{\"cat\":\"11\",\"src\":\"3\",\"x\":0,\"y\":0}]","final_locations":"[{\"cat\":25,\"src\":2,\"loc\":1},{\"cat\":12,\"src\":11,\"loc\":6},{\"cat\":25,\"src\":1,\"loc\":7},{\"cat\":11,\"src\":10,\"loc\":8},{\"cat\":12,\"src\":18,\"loc\":5},{\"cat\":11,\"src\":8,\"loc\":4},{\"cat\":25,\"src\":9,\"loc\":3},{\"cat\":12,\"src\":6,\"loc\":0},{\"cat\":11,\"src\":3,\"loc\":2}]","rt":19410,"sort_correct":7,"finalLocations":[[12,6,0,7],[25,2,1,0],[11,3,2,8],[25,9,3,6],[11,8,4,5],[12,18,5,4],[12,11,6,1],[25,1,7,2],[11,10,8,3]],"trial_type":"free-sort","trial_index":98,"time_elapsed":682623,"internal_node_id":"0.0-3.0-59.0","session":2,"startTime":"2020-1-7 7:19:46","attn_word":["ZEBRA"],"stimulus":"sort_trial"},{"rt":1137,"stimulus":"sort_feedback","key_press":84,"trial_type":"html-keyboard-response","trial_index":99,"time_elapsed":683762,"internal_node_id":"0.0-3.0-60.0","session":2,"startTime":"2020-1-7 7:19:46","attn_word":["ZEBRA"]},{"animation_sequence":"[{\"cat\":10,\"src\":8,\"loc\":2},{\"cat\":18,\"src\":17,\"loc\":8},{\"cat\":30,\"src\":11,\"loc\":5},{\"cat\":18,\"src\":10,\"loc\":6},{\"cat\":30,\"src\":19,\"loc\":3},{\"cat\":10,\"src\":17,\"loc\":1},{\"cat\":30,\"src\":17,\"loc\":4},{\"cat\":10,\"src\":10,\"loc\":0},{\"cat\":18,\"src\":7,\"loc\":7}]","condition":3,"rt":19917,"time_sequence":[1102,1102,1101,1102,1102,1102,1101,1102,1102,10001],"trial_type":"animation","trial_index":100,"time_elapsed":703680,"internal_node_id":"0.0-3.0-61.0","session":2,"startTime":"2020-1-7 7:19:46","attn_word":["ZEBRA"],"stimulus":"setup3"},{"rt":524,"stimulus":"flanker_instructions","key_press":70,"trial_type":"html-keyboard-response","trial_index":101,"time_elapsed":704207,"internal_node_id":"0.0-3.0-62.0","session":2,"startTime":"2020-1-7 7:19:46","attn_word":["ZEBRA"]},{"rt":null,"stimulus":"flanker_test","key_press":null,"stim_type":"incongruent","direction":"right","trial_type":"image-keyboard-response","trial_index":102,"time_elapsed":706111,"internal_node_id":"0.0-3.0-63.0-0.0","session":2,"startTime":"2020-1-7 7:19:46","attn_word":["ZEBRA"],"correct":false},{"rt":null,"stimulus":"flanker_test","key_press":null,"stim_type":"congruent","direction":"left","trial_type":"image-keyboard-response","trial_index":103,"time_elapsed":708086,"internal_node_id":"0.0-3.0-63.0-0.1","session":2,"startTime":"2020-1-7 7:19:46","attn_word":["ZEBRA"],"correct":false},{"rt":null,"stimulus":"flanker_test","key_press":null,"stim_type":"congruent","direction":"right","trial_type":"image-keyboard-response","trial_index":104,"time_elapsed":709985,"internal_node_id":"0.0-3.0-63.0-0.2","session":2,"startTime":"2020-1-7 7:19:46","attn_word":["ZEBRA"],"correct":false},{"rt":null,"stimulus":"flanker_test","key_press":null,"stim_type":"incongruent","direction":"left","trial_type":"image-keyboard-response","trial_index":105,"time_elapsed":711370,"internal_node_id":"0.0-3.0-63.0-0.3","session":2,"startTime":"2020-1-7 7:19:46","attn_word":["ZEBRA"],"correct":false},{"init_locations":"[{\"cat\":10,\"src\":8,\"x\":3,\"y\":506},{\"cat\":18,\"src\":17,\"x\":26,\"y\":146},{\"cat\":30,\"src\":11,\"x\":37,\"y\":196},{\"cat\":18,\"src\":10,\"x\":72,\"y\":419},{\"cat\":30,\"src\":19,\"x\":19,\"y\":359},{\"cat\":10,\"src\":17,\"x\":17,\"y\":264},{\"cat\":30,\"src\":17,\"x\":26,\"y\":311},{\"cat\":10,\"src\":10,\"x\":72,\"y\":88},{\"cat\":18,\"src\":7,\"x\":8,\"y\":7}]","moves":"[{\"cat\":\"10\",\"src\":\"17\",\"x\":0,\"y\":0},{\"cat\":\"30\",\"src\":\"19\",\"x\":0,\"y\":0},{\"cat\":\"30\",\"src\":\"11\",\"x\":689,\"y\":156},{\"cat\":\"30\",\"src\":\"11\",\"x\":0,\"y\":0},{\"cat\":\"10\",\"src\":\"8\",\"x\":0,\"y\":0},{\"cat\":\"18\",\"src\":\"10\",\"x\":0,\"y\":0},{\"cat\":\"18\",\"src\":\"17\",\"x\":0,\"y\":0},{\"cat\":\"30\",\"src\":\"17\",\"x\":0,\"y\":0},{\"cat\":\"10\",\"src\":\"10\",\"x\":0,\"y\":0},{\"cat\":\"18\",\"src\":\"7\",\"x\":0,\"y\":0}]","final_locations":"[{\"cat\":10,\"src\":17,\"loc\":1},{\"cat\":30,\"src\":19,\"loc\":3},{\"cat\":30,\"src\":11,\"loc\":5},{\"cat\":10,\"src\":8,\"loc\":2},{\"cat\":18,\"src\":10,\"loc\":6},{\"cat\":18,\"src\":17,\"loc\":8},{\"cat\":30,\"src\":17,\"loc\":7},{\"cat\":10,\"src\":10,\"loc\":0},{\"cat\":18,\"src\":7,\"loc\":4}]","rt":40179,"sort_correct":7,"finalLocations":[[10,10,0,7],[10,17,1,0],[10,8,2,3],[30,19,3,1],[18,7,4,8],[30,11,5,2],[18,10,6,4],[30,17,7,6],[18,17,8,5]],"trial_type":"free-sort","trial_index":106,"time_elapsed":752374,"internal_node_id":"0.0-3.0-64.0","session":2,"startTime":"2020-1-7 7:19:46","attn_word":["ZEBRA"],"stimulus":"sort_trial"},{"rt":1297,"stimulus":"sort_feedback","key_press":82,"trial_type":"html-keyboard-response","trial_index":107,"time_elapsed":753674,"internal_node_id":"0.0-3.0-65.0","session":2,"startTime":"2020-1-7 7:19:46","attn_word":["ZEBRA"]},{"animation_sequence":"[{\"cat\":24,\"src\":9,\"loc\":7},{\"cat\":11,\"src\":15,\"loc\":1},{\"cat\":6,\"src\":1,\"loc\":5},{\"cat\":11,\"src\":5,\"loc\":3},{\"cat\":6,\"src\":9,\"loc\":8},{\"cat\":24,\"src\":8,\"loc\":2},{\"cat\":11,\"src\":6,\"loc\":6},{\"cat\":24,\"src\":14,\"loc\":4},{\"cat\":6,\"src\":8,\"loc\":0}]","condition":5,"rt":19920,"time_sequence":[1105,1101,1102,1101,1101,1101,1102,1103,1102,10001],"trial_type":"animation","trial_index":108,"time_elapsed":773595,"internal_node_id":"0.0-3.0-66.0","session":2,"startTime":"2020-1-7 7:19:46","attn_word":["ZEBRA"],"stimulus":"setup5"},{"rt":608,"stimulus":"flanker_instructions","key_press":70,"trial_type":"html-keyboard-response","trial_index":109,"time_elapsed":774205,"internal_node_id":"0.0-3.0-67.0","session":2,"startTime":"2020-1-7 7:19:46","attn_word":["ZEBRA"]},{"rt":null,"stimulus":"flanker_test","key_press":null,"stim_type":"incongruent","direction":"right","trial_type":"image-keyboard-response","trial_index":110,"time_elapsed":776109,"internal_node_id":"0.0-3.0-68.0-0.0","session":2,"startTime":"2020-1-7 7:19:46","attn_word":["ZEBRA"],"correct":false},{"rt":null,"stimulus":"flanker_test","key_press":null,"stim_type":"congruent","direction":"right","trial_type":"image-keyboard-response","trial_index":111,"time_elapsed":777748,"internal_node_id":"0.0-3.0-68.0-0.1","session":2,"startTime":"2020-1-7 7:19:46","attn_word":["ZEBRA"],"correct":false},{"rt":null,"stimulus":"flanker_test","key_press":null,"stim_type":"congruent","direction":"left","trial_type":"image-keyboard-response","trial_index":112,"time_elapsed":779075,"internal_node_id":"0.0-3.0-68.0-0.2","session":2,"startTime":"2020-1-7 7:19:46","attn_word":["ZEBRA"],"correct":false},{"rt":null,"stimulus":"flanker_test","key_press":null,"stim_type":"incongruent","direction":"left","trial_type":"image-keyboard-response","trial_index":113,"time_elapsed":780660,"internal_node_id":"0.0-3.0-68.0-0.3","session":2,"startTime":"2020-1-7 7:19:46","attn_word":["ZEBRA"],"correct":false},{"init_locations":"[{\"cat\":24,\"src\":9,\"x\":0,\"y\":419},{\"cat\":11,\"src\":15,\"x\":78,\"y\":386},{\"cat\":6,\"src\":1,\"x\":5,\"y\":85},{\"cat\":11,\"src\":5,\"x\":23,\"y\":201},{\"cat\":6,\"src\":9,\"x\":52,\"y\":5},{\"cat\":24,\"src\":8,\"x\":2,\"y\":268},{\"cat\":11,\"src\":6,\"x\":16,\"y\":320},{\"cat\":24,\"src\":14,\"x\":28,\"y\":133},{\"cat\":6,\"src\":8,\"x\":39,\"y\":508}]","moves":"[{\"cat\":\"6\",\"src\":\"9\",\"x\":0,\"y\":0},{\"cat\":\"11\",\"src\":\"5\",\"x\":0,\"y\":0},{\"cat\":\"6\",\"src\":\"1\",\"x\":0,\"y\":0},{\"cat\":\"11\",\"src\":\"15\",\"x\":0,\"y\":0},{\"cat\":\"24\",\"src\":\"8\",\"x\":364,\"y\":211},{\"cat\":\"24\",\"src\":\"9\",\"x\":0,\"y\":0},{\"cat\":\"24\",\"src\":\"8\",\"x\":0,\"y\":0},{\"cat\":\"11\",\"src\":\"6\",\"x\":0,\"y\":0},{\"cat\":\"6\",\"src\":\"8\",\"x\":0,\"y\":0},{\"cat\":\"24\",\"src\":\"14\",\"x\":0,\"y\":0}]","final_locations":"[{\"cat\":6,\"src\":9,\"loc\":8},{\"cat\":11,\"src\":5,\"loc\":3},{\"cat\":6,\"src\":1,\"loc\":5},{\"cat\":11,\"src\":15,\"loc\":1},{\"cat\":24,\"src\":9,\"loc\":7},{\"cat\":24,\"src\":8,\"loc\":2},{\"cat\":11,\"src\":6,\"loc\":6},{\"cat\":6,\"src\":8,\"loc\":0},{\"cat\":24,\"src\":14,\"loc\":4}]","rt":34859,"sort_correct":9,"finalLocations":[[6,8,0,7],[11,15,1,3],[24,8,2,5],[11,5,3,1],[24,14,4,8],[6,1,5,2],[11,6,6,6],[24,9,7,4],[6,9,8,0]],"trial_type":"free-sort","trial_index":114,"time_elapsed":815878,"internal_node_id":"0.0-3.0-69.0","session":2,"startTime":"2020-1-7 7:19:46","attn_word":["ZEBRA"],"stimulus":"sort_trial"},{"rt":462,"stimulus":"sort_feedback","key_press":69,"trial_type":"html-keyboard-response","trial_index":115,"time_elapsed":816342,"internal_node_id":"0.0-3.0-70.0","session":2,"startTime":"2020-1-7 7:19:46","attn_word":["ZEBRA"]},{"animation_sequence":"[{\"cat\":9,\"src\":9,\"loc\":3},{\"cat\":9,\"src\":15,\"loc\":4},{\"cat\":9,\"src\":5,\"loc\":5},{\"cat\":30,\"src\":18,\"loc\":8},{\"cat\":30,\"src\":9,\"loc\":6},{\"cat\":30,\"src\":13,\"loc\":7},{\"cat\":29,\"src\":13,\"loc\":2},{\"cat\":29,\"src\":9,\"loc\":0},{\"cat\":29,\"src\":3,\"loc\":1}]","condition":1,"rt":19918,"time_sequence":[1102,1102,1101,1102,1101,1102,1102,1101,1104,10001],"trial_type":"animation","trial_index":116,"time_elapsed":836261,"internal_node_id":"0.0-3.0-71.0","session":2,"startTime":"2020-1-7 7:19:46","attn_word":["ZEBRA"],"stimulus":"setup1"},{"rt":557,"stimulus":"flanker_instructions","key_press":70,"trial_type":"html-keyboard-response","trial_index":117,"time_elapsed":836823,"internal_node_id":"0.0-3.0-72.0","session":2,"startTime":"2020-1-7 7:19:46","attn_word":["ZEBRA"]},{"rt":null,"stimulus":"flanker_test","key_press":null,"stim_type":"incongruent","direction":"left","trial_type":"image-keyboard-response","trial_index":118,"time_elapsed":838727,"internal_node_id":"0.0-3.0-73.0-0.0","session":2,"startTime":"2020-1-7 7:19:46","attn_word":["ZEBRA"],"correct":false},{"rt":null,"stimulus":"flanker_test","key_press":null,"stim_type":"congruent","direction":"right","trial_type":"image-keyboard-response","trial_index":119,"time_elapsed":840286,"internal_node_id":"0.0-3.0-73.0-0.1","session":2,"startTime":"2020-1-7 7:19:46","attn_word":["ZEBRA"],"correct":false},{"rt":null,"stimulus":"flanker_test","key_press":null,"stim_type":"incongruent","direction":"right","trial_type":"image-keyboard-response","trial_index":120,"time_elapsed":841679,"internal_node_id":"0.0-3.0-73.0-0.2","session":2,"startTime":"2020-1-7 7:19:46","attn_word":["ZEBRA"],"correct":false},{"rt":null,"stimulus":"flanker_test","key_press":null,"stim_type":"congruent","direction":"left","trial_type":"image-keyboard-response","trial_index":121,"time_elapsed":843297,"internal_node_id":"0.0-3.0-73.0-0.3","session":2,"startTime":"2020-1-7 7:19:46","attn_word":["ZEBRA"],"correct":false},{"init_locations":"[{\"cat\":9,\"src\":9,\"x\":3,\"y\":300},{\"cat\":9,\"src\":15,\"x\":49,\"y\":242},{\"cat\":9,\"src\":5,\"x\":58,\"y\":383},{\"cat\":30,\"src\":18,\"x\":3,\"y\":181},{\"cat\":30,\"src\":9,\"x\":6,\"y\":146},{\"cat\":30,\"src\":13,\"x\":6,\"y\":24},{\"cat\":29,\"src\":13,\"x\":41,\"y\":424},{\"cat\":29,\"src\":9,\"x\":19,\"y\":507},{\"cat\":29,\"src\":3,\"x\":21,\"y\":86}]","moves":"[{\"cat\":\"9\",\"src\":\"5\",\"x\":0,\"y\":0},{\"cat\":\"9\",\"src\":\"15\",\"x\":0,\"y\":0},{\"cat\":\"9\",\"src\":\"9\",\"x\":0,\"y\":0},{\"cat\":\"30\",\"src\":\"9\",\"x\":0,\"y\":0},{\"cat\":\"30\",\"src\":\"18\",\"x\":0,\"y\":0},{\"cat\":\"30\",\"src\":\"13\",\"x\":0,\"y\":0},{\"cat\":\"29\",\"src\":\"13\",\"x\":0,\"y\":0},{\"cat\":\"29\",\"src\":\"9\",\"x\":0,\"y\":0},{\"cat\":\"29\",\"src\":\"3\",\"x\":0,\"y\":0}]","final_locations":"[{\"cat\":9,\"src\":5,\"loc\":5},{\"cat\":9,\"src\":15,\"loc\":4},{\"cat\":9,\"src\":9,\"loc\":3},{\"cat\":30,\"src\":9,\"loc\":6},{\"cat\":30,\"src\":18,\"loc\":8},{\"cat\":30,\"src\":13,\"loc\":7},{\"cat\":29,\"src\":13,\"loc\":0},{\"cat\":29,\"src\":9,\"loc\":2},{\"cat\":29,\"src\":3,\"loc\":1}]","rt":30179,"sort_correct":7,"finalLocations":[[29,13,0,6],[29,3,1,8],[29,9,2,7],[9,9,3,2],[9,15,4,1],[9,5,5,0],[30,9,6,3],[30,13,7,5],[30,18,8,4]],"trial_type":"free-sort","trial_index":122,"time_elapsed":874654,"internal_node_id":"0.0-3.0-74.0","session":2,"startTime":"2020-1-7 7:19:46","attn_word":["ZEBRA"],"stimulus":"sort_trial"},{"rt":1145,"stimulus":"sort_feedback","key_press":69,"trial_type":"html-keyboard-response","trial_index":123,"time_elapsed":875801,"internal_node_id":"0.0-3.0-75.0","session":2,"startTime":"2020-1-7 7:19:46","attn_word":["ZEBRA"]},{"animation_sequence":"[{\"cat\":7,\"src\":11,\"loc\":4},{\"cat\":7,\"src\":9,\"loc\":2},{\"cat\":7,\"src\":14,\"loc\":7},{\"cat\":20,\"src\":11,\"loc\":1},{\"cat\":20,\"src\":0,\"loc\":3},{\"cat\":20,\"src\":6,\"loc\":8},{\"cat\":12,\"src\":10,\"loc\":0},{\"cat\":12,\"src\":5,\"loc\":6},{\"cat\":12,\"src\":2,\"loc\":5}]","condition":4,"rt":19928,"time_sequence":[1102,1101,1101,1103,1103,1103,1105,1102,1105,10003],"trial_type":"animation","trial_index":124,"time_elapsed":895730,"internal_node_id":"0.0-3.0-76.0","session":2,"startTime":"2020-1-7 7:19:46","attn_word":["ZEBRA"],"stimulus":"setup4"},{"rt":1405,"stimulus":"flanker_instructions","key_press":82,"trial_type":"html-keyboard-response","trial_index":125,"time_elapsed":897138,"internal_node_id":"0.0-3.0-77.0","session":2,"startTime":"2020-1-7 7:19:46","attn_word":["ZEBRA"]},{"rt":null,"stimulus":"flanker_test","key_press":null,"stim_type":"incongruent","direction":"left","trial_type":"image-keyboard-response","trial_index":126,"time_elapsed":899046,"internal_node_id":"0.0-3.0-78.0-0.0","session":2,"startTime":"2020-1-7 7:19:46","attn_word":["ZEBRA"],"correct":false},{"rt":null,"stimulus":"flanker_test","key_press":null,"stim_type":"congruent","direction":"right","trial_type":"image-keyboard-response","trial_index":127,"time_elapsed":900438,"internal_node_id":"0.0-3.0-78.0-0.1","session":2,"startTime":"2020-1-7 7:19:46","attn_word":["ZEBRA"],"correct":false},{"rt":null,"stimulus":"flanker_test","key_press":null,"stim_type":"incongruent","direction":"right","trial_type":"image-keyboard-response","trial_index":128,"time_elapsed":901749,"internal_node_id":"0.0-3.0-78.0-0.2","session":2,"startTime":"2020-1-7 7:19:46","attn_word":["ZEBRA"],"correct":false},{"rt":null,"stimulus":"flanker_test","key_press":null,"stim_type":"congruent","direction":"left","trial_type":"image-keyboard-response","trial_index":129,"time_elapsed":903125,"internal_node_id":"0.0-3.0-78.0-0.3","session":2,"startTime":"2020-1-7 7:19:46","attn_word":["ZEBRA"],"correct":false},{"init_locations":"[{\"cat\":7,\"src\":11,\"x\":17,\"y\":261},{\"cat\":7,\"src\":9,\"x\":78,\"y\":439},{\"cat\":7,\"src\":14,\"x\":5,\"y\":188},{\"cat\":20,\"src\":11,\"x\":0,\"y\":386},{\"cat\":20,\"src\":0,\"x\":65,\"y\":130},{\"cat\":20,\"src\":6,\"x\":6,\"y\":488},{\"cat\":12,\"src\":10,\"x\":70,\"y\":324},{\"cat\":12,\"src\":5,\"x\":9,\"y\":17},{\"cat\":12,\"src\":2,\"x\":21,\"y\":76}]","moves":"[{\"cat\":\"7\",\"src\":\"14\",\"x\":0,\"y\":0},{\"cat\":\"20\",\"src\":\"6\",\"x\":0,\"y\":0},{\"cat\":\"12\",\"src\":\"5\",\"x\":0,\"y\":0},{\"cat\":\"20\",\"src\":\"11\",\"x\":0,\"y\":0},{\"cat\":\"7\",\"src\":\"11\",\"x\":0,\"y\":0},{\"cat\":\"12\",\"src\":\"2\",\"x\":0,\"y\":0},{\"cat\":\"20\",\"src\":\"0\",\"x\":0,\"y\":0},{\"cat\":\"12\",\"src\":\"10\",\"x\":0,\"y\":0},{\"cat\":\"7\",\"src\":\"9\",\"x\":0,\"y\":0}]","final_locations":"[{\"cat\":7,\"src\":14,\"loc\":7},{\"cat\":20,\"src\":6,\"loc\":8},{\"cat\":12,\"src\":5,\"loc\":6},{\"cat\":20,\"src\":11,\"loc\":1},{\"cat\":7,\"src\":11,\"loc\":4},{\"cat\":12,\"src\":2,\"loc\":5},{\"cat\":20,\"src\":0,\"loc\":3},{\"cat\":12,\"src\":10,\"loc\":0},{\"cat\":7,\"src\":9,\"loc\":2}]","rt":25143,"sort_correct":9,"finalLocations":[[12,10,0,7],[20,11,1,3],[7,9,2,8],[20,0,3,6],[7,11,4,4],[12,2,5,5],[12,5,6,2],[7,14,7,0],[20,6,8,1]],"trial_type":"free-sort","trial_index":130,"time_elapsed":928973,"internal_node_id":"0.0-3.0-79.0","session":2,"startTime":"2020-1-7 7:19:46","attn_word":["ZEBRA"],"stimulus":"sort_trial"},{"rt":1200,"stimulus":"sort_feedback","key_press":81,"trial_type":"html-keyboard-response","trial_index":131,"time_elapsed":930174,"internal_node_id":"0.0-3.0-80.0","session":2,"startTime":"2020-1-7 7:19:46","attn_word":["ZEBRA"]},{"animation_sequence":"[{\"cat\":8,\"src\":19,\"loc\":6},{\"cat\":4,\"src\":3,\"loc\":1},{\"cat\":23,\"src\":16,\"loc\":3},{\"cat\":23,\"src\":0,\"loc\":4},{\"cat\":4,\"src\":4,\"loc\":0},{\"cat\":8,\"src\":7,\"loc\":7},{\"cat\":4,\"src\":11,\"loc\":2},{\"cat\":8,\"src\":6,\"loc\":8},{\"cat\":23,\"src\":9,\"loc\":5}]","condition":3,"rt":19943,"time_sequence":[1106,1103,1103,1103,1104,1102,1106,1104,1108,10004],"trial_type":"animation","trial_index":132,"time_elapsed":950120,"internal_node_id":"0.0-3.0-81.0","session":2,"startTime":"2020-1-7 7:19:46","attn_word":["ZEBRA"],"stimulus":"setup3"},{"rt":744,"stimulus":"flanker_instructions","key_press":87,"trial_type":"html-keyboard-response","trial_index":133,"time_elapsed":950867,"internal_node_id":"0.0-3.0-82.0","session":2,"startTime":"2020-1-7 7:19:46","attn_word":["ZEBRA"]},{"rt":null,"stimulus":"flanker_test","key_press":null,"stim_type":"congruent","direction":"right","trial_type":"image-keyboard-response","trial_index":134,"time_elapsed":952775,"internal_node_id":"0.0-3.0-83.0-0.0","session":2,"startTime":"2020-1-7 7:19:46","attn_word":["ZEBRA"],"correct":false},{"rt":null,"stimulus":"flanker_test","key_press":null,"stim_type":"congruent","direction":"left","trial_type":"image-keyboard-response","trial_index":135,"time_elapsed":954070,"internal_node_id":"0.0-3.0-83.0-0.1","session":2,"startTime":"2020-1-7 7:19:46","attn_word":["ZEBRA"],"correct":false},{"rt":null,"stimulus":"flanker_test","key_press":null,"stim_type":"incongruent","direction":"left","trial_type":"image-keyboard-response","trial_index":136,"time_elapsed":955843,"internal_node_id":"0.0-3.0-83.0-0.2","session":2,"startTime":"2020-1-7 7:19:46","attn_word":["ZEBRA"],"correct":false},{"rt":null,"stimulus":"flanker_test","key_press":null,"stim_type":"incongruent","direction":"right","trial_type":"image-keyboard-response","trial_index":137,"time_elapsed":957862,"internal_node_id":"0.0-3.0-83.0-0.3","session":2,"startTime":"2020-1-7 7:19:46","attn_word":["ZEBRA"],"correct":false},{"init_locations":"[{\"cat\":8,\"src\":19,\"x\":48,\"y\":387},{\"cat\":4,\"src\":3,\"x\":58,\"y\":437},{\"cat\":23,\"src\":16,\"x\":76,\"y\":137},{\"cat\":23,\"src\":0,\"x\":37,\"y\":16},{\"cat\":4,\"src\":4,\"x\":27,\"y\":267},{\"cat\":8,\"src\":7,\"x\":20,\"y\":302},{\"cat\":4,\"src\":11,\"x\":10,\"y\":499},{\"cat\":8,\"src\":6,\"x\":16,\"y\":195},{\"cat\":23,\"src\":9,\"x\":59,\"y\":82}]","moves":"[{\"cat\":\"4\",\"src\":\"3\",\"x\":0,\"y\":0},{\"cat\":\"8\",\"src\":\"7\",\"x\":0,\"y\":0},{\"cat\":\"8\",\"src\":\"19\",\"x\":0,\"y\":0},{\"cat\":\"8\",\"src\":\"6\",\"x\":0,\"y\":0},{\"cat\":\"4\",\"src\":\"4\",\"x\":0,\"y\":0},{\"cat\":\"4\",\"src\":\"11\",\"x\":359,\"y\":208},{\"cat\":\"4\",\"src\":\"11\",\"x\":0,\"y\":0},{\"cat\":\"23\",\"src\":\"9\",\"x\":0,\"y\":0},{\"cat\":\"23\",\"src\":\"0\",\"x\":0,\"y\":0},{\"cat\":\"23\",\"src\":\"16\",\"x\":0,\"y\":0}]","final_locations":"[{\"cat\":4,\"src\":3,\"loc\":1},{\"cat\":8,\"src\":7,\"loc\":7},{\"cat\":8,\"src\":19,\"loc\":6},{\"cat\":8,\"src\":6,\"loc\":8},{\"cat\":4,\"src\":4,\"loc\":0},{\"cat\":4,\"src\":11,\"loc\":2},{\"cat\":23,\"src\":9,\"loc\":5},{\"cat\":23,\"src\":0,\"loc\":3},{\"cat\":23,\"src\":16,\"loc\":4}]","rt":22743,"sort_correct":7,"finalLocations":[[4,4,0,4],[4,3,1,0],[4,11,2,5],[23,0,3,7],[23,16,4,8],[23,9,5,6],[8,19,6,2],[8,7,7,1],[8,6,8,3]],"trial_type":"free-sort","trial_index":138,"time_elapsed":981333,"internal_node_id":"0.0-3.0-84.0","session":2,"startTime":"2020-1-7 7:19:46","attn_word":["ZEBRA"],"stimulus":"sort_trial"},{"rt":697,"stimulus":"sort_feedback","key_press":87,"trial_type":"html-keyboard-response","trial_index":139,"time_elapsed":982032,"internal_node_id":"0.0-3.0-85.0","session":2,"startTime":"2020-1-7 7:19:46","attn_word":["ZEBRA"]},{"animation_sequence":"[{\"cat\":27,\"src\":6,\"loc\":8},{\"cat\":24,\"src\":3,\"loc\":2},{\"cat\":11,\"src\":19,\"loc\":4},{\"cat\":11,\"src\":2,\"loc\":7},{\"cat\":24,\"src\":18,\"loc\":3},{\"cat\":27,\"src\":19,\"loc\":0},{\"cat\":24,\"src\":6,\"loc\":6},{\"cat\":27,\"src\":13,\"loc\":5},{\"cat\":11,\"src\":17,\"loc\":1}]","condition":5,"rt":19955,"time_sequence":[1114,1106,1103,1104,1108,1103,1103,1107,1104,10003],"trial_type":"animation","trial_index":140,"time_elapsed":1001989,"internal_node_id":"0.0-3.0-86.0","session":2,"startTime":"2020-1-7 7:19:46","attn_word":["ZEBRA"],"stimulus":"setup5"},{"rt":1055,"stimulus":"flanker_instructions","key_press":68,"trial_type":"html-keyboard-response","trial_index":141,"time_elapsed":1003048,"internal_node_id":"0.0-3.0-87.0","session":2,"startTime":"2020-1-7 7:19:46","attn_word":["ZEBRA"]},{"rt":null,"stimulus":"flanker_test","key_press":null,"stim_type":"congruent","direction":"right","trial_type":"image-keyboard-response","trial_index":142,"time_elapsed":1004956,"internal_node_id":"0.0-3.0-88.0-0.0","session":2,"startTime":"2020-1-7 7:19:46","attn_word":["ZEBRA"],"correct":false},{"rt":null,"stimulus":"flanker_test","key_press":null,"stim_type":"congruent","direction":"left","trial_type":"image-keyboard-response","trial_index":143,"time_elapsed":1006435,"internal_node_id":"0.0-3.0-88.0-0.1","session":2,"startTime":"2020-1-7 7:19:46","attn_word":["ZEBRA"],"correct":false},{"rt":null,"stimulus":"flanker_test","key_press":null,"stim_type":"incongruent","direction":"left","trial_type":"image-keyboard-response","trial_index":144,"time_elapsed":1008462,"internal_node_id":"0.0-3.0-88.0-0.2","session":2,"startTime":"2020-1-7 7:19:46","attn_word":["ZEBRA"],"correct":false},{"rt":null,"stimulus":"flanker_test","key_press":null,"stim_type":"incongruent","direction":"right","trial_type":"image-keyboard-response","trial_index":145,"time_elapsed":1009855,"internal_node_id":"0.0-3.0-88.0-0.3","session":2,"startTime":"2020-1-7 7:19:46","attn_word":["ZEBRA"],"correct":false},{"init_locations":"[{\"cat\":27,\"src\":6,\"x\":64,\"y\":8},{\"cat\":24,\"src\":3,\"x\":5,\"y\":447},{\"cat\":11,\"src\":19,\"x\":42,\"y\":370},{\"cat\":11,\"src\":2,\"x\":57,\"y\":201},{\"cat\":24,\"src\":18,\"x\":52,\"y\":258},{\"cat\":27,\"src\":19,\"x\":32,\"y\":483},{\"cat\":24,\"src\":6,\"x\":59,\"y\":306},{\"cat\":27,\"src\":13,\"x\":21,\"y\":77},{\"cat\":11,\"src\":17,\"x\":13,\"y\":125}]","moves":"[{\"cat\":\"27\",\"src\":\"19\",\"x\":0,\"y\":0},{\"cat\":\"24\",\"src\":\"3\",\"x\":0,\"y\":0},{\"cat\":\"24\",\"src\":\"6\",\"x\":0,\"y\":0},{\"cat\":\"11\",\"src\":\"2\",\"x\":0,\"y\":0},{\"cat\":\"27\",\"src\":\"6\",\"x\":0,\"y\":0},{\"cat\":\"24\",\"src\":\"18\",\"x\":0,\"y\":0},{\"cat\":\"11\",\"src\":\"19\",\"x\":0,\"y\":0},{\"cat\":\"27\",\"src\":\"13\",\"x\":0,\"y\":0},{\"cat\":\"11\",\"src\":\"17\",\"x\":0,\"y\":0}]","final_locations":"[{\"cat\":27,\"src\":19,\"loc\":0},{\"cat\":24,\"src\":3,\"loc\":2},{\"cat\":24,\"src\":6,\"loc\":6},{\"cat\":11,\"src\":2,\"loc\":7},{\"cat\":27,\"src\":6,\"loc\":8},{\"cat\":24,\"src\":18,\"loc\":3},{\"cat\":11,\"src\":19,\"loc\":4},{\"cat\":27,\"src\":13,\"loc\":5},{\"cat\":11,\"src\":17,\"loc\":1}]","rt":18833,"sort_correct":9,"finalLocations":[[27,19,0,0],[11,17,1,8],[24,3,2,1],[24,18,3,5],[11,19,4,6],[27,13,5,7],[24,6,6,2],[11,2,7,3],[27,6,8,4]],"trial_type":"free-sort","trial_index":146,"time_elapsed":1029285,"internal_node_id":"0.0-3.0-89.0","session":2,"startTime":"2020-1-7 7:19:46","attn_word":["ZEBRA"],"stimulus":"sort_trial"},{"rt":1090,"stimulus":"sort_feedback","key_press":87,"trial_type":"html-keyboard-response","trial_index":147,"time_elapsed":1030378,"internal_node_id":"0.0-3.0-90.0","session":2,"startTime":"2020-1-7 7:19:46","attn_word":["ZEBRA"]},{"animation_sequence":"[{\"cat\":10,\"src\":4,\"loc\":2},{\"cat\":10,\"src\":18,\"loc\":0},{\"cat\":10,\"src\":17,\"loc\":1},{\"cat\":14,\"src\":2,\"loc\":6},{\"cat\":14,\"src\":17,\"loc\":7},{\"cat\":14,\"src\":9,\"loc\":8},{\"cat\":20,\"src\":1,\"loc\":4},{\"cat\":20,\"src\":4,\"loc\":5},{\"cat\":20,\"src\":9,\"loc\":3}]","condition":1,"rt":21596,"time_sequence":[1525,1993,1452,1104,1103,1105,1103,1104,1104,10003],"trial_type":"animation","trial_index":148,"time_elapsed":1051975,"internal_node_id":"0.0-3.0-91.0","session":2,"startTime":"2020-1-7 7:19:46","attn_word":["ZEBRA"],"stimulus":"setup1"},{"rt":671,"stimulus":"flanker_instructions","key_press":87,"trial_type":"html-keyboard-response","trial_index":149,"time_elapsed":1052651,"internal_node_id":"0.0-3.0-92.0","session":2,"startTime":"2020-1-7 7:19:46","attn_word":["ZEBRA"]},{"rt":null,"stimulus":"flanker_test","key_press":null,"stim_type":"incongruent","direction":"right","trial_type":"image-keyboard-response","trial_index":150,"time_elapsed":1054556,"internal_node_id":"0.0-3.0-93.0-0.0","session":2,"startTime":"2020-1-7 7:19:46","attn_word":["ZEBRA"],"correct":false},{"rt":null,"stimulus":"flanker_test","key_press":null,"stim_type":"congruent","direction":"right","trial_type":"image-keyboard-response","trial_index":151,"time_elapsed":1055975,"internal_node_id":"0.0-3.0-93.0-0.1","session":2,"startTime":"2020-1-7 7:19:46","attn_word":["ZEBRA"],"correct":false},{"rt":null,"stimulus":"flanker_test","key_press":null,"stim_type":"incongruent","direction":"left","trial_type":"image-keyboard-response","trial_index":152,"time_elapsed":1057495,"internal_node_id":"0.0-3.0-93.0-0.2","session":2,"startTime":"2020-1-7 7:19:46","attn_word":["ZEBRA"],"correct":false},{"rt":null,"stimulus":"flanker_test","key_press":null,"stim_type":"congruent","direction":"left","trial_type":"image-keyboard-response","trial_index":153,"time_elapsed":1058773,"internal_node_id":"0.0-3.0-93.0-0.3","session":2,"startTime":"2020-1-7 7:19:46","attn_word":["ZEBRA"],"correct":false},{"init_locations":"[{\"cat\":10,\"src\":4,\"x\":62,\"y\":29},{\"cat\":10,\"src\":18,\"x\":22,\"y\":143},{\"cat\":10,\"src\":17,\"x\":76,\"y\":243},{\"cat\":14,\"src\":2,\"x\":82,\"y\":362},{\"cat\":14,\"src\":17,\"x\":55,\"y\":186},{\"cat\":14,\"src\":9,\"x\":78,\"y\":435},{\"cat\":20,\"src\":1,\"x\":48,\"y\":506},{\"cat\":20,\"src\":4,\"x\":25,\"y\":75},{\"cat\":20,\"src\":9,\"x\":13,\"y\":318}]","moves":"[{\"cat\":\"10\",\"src\":\"4\",\"x\":0,\"y\":0},{\"cat\":\"10\",\"src\":\"18\",\"x\":0,\"y\":0},{\"cat\":\"10\",\"src\":\"17\",\"x\":0,\"y\":0},{\"cat\":\"14\",\"src\":\"2\",\"x\":0,\"y\":0},{\"cat\":\"14\",\"src\":\"17\",\"x\":0,\"y\":0},{\"cat\":\"14\",\"src\":\"9\",\"x\":0,\"y\":0},{\"cat\":\"20\",\"src\":\"9\",\"x\":0,\"y\":0},{\"cat\":\"20\",\"src\":\"1\",\"x\":0,\"y\":0},{\"cat\":\"20\",\"src\":\"4\",\"x\":0,\"y\":0}]","final_locations":"[{\"cat\":10,\"src\":4,\"loc\":2},{\"cat\":10,\"src\":18,\"loc\":0},{\"cat\":10,\"src\":17,\"loc\":1},{\"cat\":14,\"src\":2,\"loc\":6},{\"cat\":14,\"src\":17,\"loc\":7},{\"cat\":14,\"src\":9,\"loc\":8},{\"cat\":20,\"src\":9,\"loc\":3},{\"cat\":20,\"src\":1,\"loc\":5},{\"cat\":20,\"src\":4,\"loc\":4}]","rt":21964,"sort_correct":7,"finalLocations":[[10,18,0,1],[10,17,1,2],[10,4,2,0],[20,9,3,6],[20,4,4,8],[20,1,5,7],[14,2,6,3],[14,17,7,4],[14,9,8,5]],"trial_type":"free-sort","trial_index":154,"time_elapsed":1081437,"internal_node_id":"0.0-3.0-94.0","session":2,"startTime":"2020-1-7 7:19:46","attn_word":["ZEBRA"],"stimulus":"sort_trial"},{"rt":888,"stimulus":"sort_feedback","key_press":87,"trial_type":"html-keyboard-response","trial_index":155,"time_elapsed":1082328,"internal_node_id":"0.0-3.0-95.0","session":2,"startTime":"2020-1-7 7:19:46","attn_word":["ZEBRA"]},{"animation_sequence":"[{\"cat\":21,\"src\":13,\"loc\":4},{\"cat\":2,\"src\":2,\"loc\":3},{\"cat\":9,\"src\":6,\"loc\":5},{\"cat\":2,\"src\":3,\"loc\":6},{\"cat\":21,\"src\":19,\"loc\":8},{\"cat\":9,\"src\":19,\"loc\":7},{\"cat\":9,\"src\":16,\"loc\":2},{\"cat\":2,\"src\":1,\"loc\":0},{\"cat\":21,\"src\":1,\"loc\":1}]","condition":2,"rt":19949,"time_sequence":[1111,1105,1104,1104,1105,1105,1105,1105,1104,10001],"trial_type":"animation","trial_index":156,"time_elapsed":1102279,"internal_node_id":"0.0-3.0-96.0","session":2,"startTime":"2020-1-7 7:19:46","attn_word":["ZEBRA"],"stimulus":"setup2"},{"rt":591,"stimulus":"flanker_instructions","key_press":83,"trial_type":"html-keyboard-response","trial_index":157,"time_elapsed":1102873,"internal_node_id":"0.0-3.0-97.0","session":2,"startTime":"2020-1-7 7:19:46","attn_word":["ZEBRA"]},{"rt":null,"stimulus":"flanker_test","key_press":null,"stim_type":"incongruent","direction":"left","trial_type":"image-keyboard-response","trial_index":158,"time_elapsed":1104779,"internal_node_id":"0.0-3.0-98.0-0.0","session":2,"startTime":"2020-1-7 7:19:46","attn_word":["ZEBRA"],"correct":false},{"rt":null,"stimulus":"flanker_test","key_press":null,"stim_type":"incongruent","direction":"right","trial_type":"image-keyboard-response","trial_index":159,"time_elapsed":1106530,"internal_node_id":"0.0-3.0-98.0-0.1","session":2,"startTime":"2020-1-7 7:19:46","attn_word":["ZEBRA"],"correct":false},{"rt":null,"stimulus":"flanker_test","key_press":null,"stim_type":"congruent","direction":"right","trial_type":"image-keyboard-response","trial_index":160,"time_elapsed":1108561,"internal_node_id":"0.0-3.0-98.0-0.2","session":2,"startTime":"2020-1-7 7:19:46","attn_word":["ZEBRA"],"correct":false},{"rt":null,"stimulus":"flanker_test","key_press":null,"stim_type":"congruent","direction":"left","trial_type":"image-keyboard-response","trial_index":161,"time_elapsed":1109891,"internal_node_id":"0.0-3.0-98.0-0.3","session":2,"startTime":"2020-1-7 7:19:46","attn_word":["ZEBRA"],"correct":false},{"init_locations":"[{\"cat\":21,\"src\":13,\"x\":79,\"y\":309},{\"cat\":2,\"src\":2,\"x\":13,\"y\":199},{\"cat\":9,\"src\":6,\"x\":66,\"y\":1},{\"cat\":2,\"src\":3,\"x\":6,\"y\":502},{\"cat\":21,\"src\":19,\"x\":32,\"y\":380},{\"cat\":9,\"src\":19,\"x\":70,\"y\":86},{\"cat\":9,\"src\":16,\"x\":36,\"y\":441},{\"cat\":2,\"src\":1,\"x\":20,\"y\":252},{\"cat\":21,\"src\":1,\"x\":8,\"y\":139}]","moves":"[{\"cat\":\"9\",\"src\":\"19\",\"x\":0,\"y\":0},{\"cat\":\"2\",\"src\":\"3\",\"x\":0,\"y\":0},{\"cat\":\"21\",\"src\":\"19\",\"x\":0,\"y\":0},{\"cat\":\"9\",\"src\":\"16\",\"x\":0,\"y\":0},{\"cat\":\"2\",\"src\":\"1\",\"x\":0,\"y\":0},{\"cat\":\"9\",\"src\":\"6\",\"x\":0,\"y\":0},{\"cat\":\"21\",\"src\":\"13\",\"x\":0,\"y\":0},{\"cat\":\"2\",\"src\":\"2\",\"x\":0,\"y\":0},{\"cat\":\"21\",\"src\":\"1\",\"x\":0,\"y\":0}]","final_locations":"[{\"cat\":9,\"src\":19,\"loc\":7},{\"cat\":2,\"src\":3,\"loc\":6},{\"cat\":21,\"src\":19,\"loc\":8},{\"cat\":9,\"src\":16,\"loc\":2},{\"cat\":2,\"src\":1,\"loc\":0},{\"cat\":9,\"src\":6,\"loc\":5},{\"cat\":21,\"src\":13,\"loc\":4},{\"cat\":2,\"src\":2,\"loc\":3},{\"cat\":21,\"src\":1,\"loc\":1}]","rt":24825,"sort_correct":9,"finalLocations":[[2,1,0,4],[21,1,1,8],[9,16,2,3],[2,2,3,7],[21,13,4,6],[9,6,5,5],[2,3,6,1],[9,19,7,0],[21,19,8,2]],"trial_type":"free-sort","trial_index":162,"time_elapsed":1135084,"internal_node_id":"0.0-3.0-99.0","session":2,"startTime":"2020-1-7 7:19:46","attn_word":["ZEBRA"],"stimulus":"sort_trial"},{"rt":1068,"stimulus":"sort_feedback","key_press":68,"trial_type":"html-keyboard-response","trial_index":163,"time_elapsed":1136156,"internal_node_id":"0.0-3.0-100.0","session":2,"startTime":"2020-1-7 7:19:46","attn_word":["ZEBRA"]},{"rt":null,"stimulus":"breakStart","key_press":null,"trial_type":"html-keyboard-response","trial_index":164,"time_elapsed":1166161,"internal_node_id":"0.0-4.0-0.0","session":2,"startTime":"2020-1-7 7:19:46","attn_word":["ZEBRA"]},{"rt":1359,"stimulus":"breakEnd","button_pressed":"0","trial_type":"html-button-response","trial_index":165,"time_elapsed":1167524,"internal_node_id":"0.0-4.0-1.0","session":2,"startTime":"2020-1-7 7:19:46","attn_word":["ZEBRA"]},{"animation_sequence":"[{\"cat\":20,\"src\":3,\"loc\":6},{\"cat\":14,\"src\":19,\"loc\":4},{\"cat\":21,\"src\":1,\"loc\":0},{\"cat\":20,\"src\":7,\"loc\":7},{\"cat\":14,\"src\":6,\"loc\":5},{\"cat\":21,\"src\":6,\"loc\":1},{\"cat\":14,\"src\":11,\"loc\":3},{\"cat\":20,\"src\":8,\"loc\":8},{\"cat\":21,\"src\":11,\"loc\":2}]","condition":3,"rt":19935,"time_sequence":[1103,1105,1104,1102,1104,1106,1103,1103,1102,10002],"trial_type":"animation","trial_index":166,"time_elapsed":1187460,"internal_node_id":"0.0-5.0-0.0","session":2,"startTime":"2020-1-7 7:19:46","attn_word":["ZEBRA"],"stimulus":"setup3"},{"rt":681,"stimulus":"flanker_instructions","key_press":68,"trial_type":"html-keyboard-response","trial_index":167,"time_elapsed":1188145,"internal_node_id":"0.0-5.0-1.0","session":2,"startTime":"2020-1-7 7:19:46","attn_word":["ZEBRA"]},{"rt":null,"stimulus":"flanker_test","key_press":null,"stim_type":"incongruent","direction":"right","trial_type":"image-keyboard-response","trial_index":168,"time_elapsed":1190053,"internal_node_id":"0.0-5.0-2.0-0.0","session":2,"startTime":"2020-1-7 7:19:46","attn_word":["ZEBRA"],"correct":false},{"rt":null,"stimulus":"flanker_test","key_press":null,"stim_type":"congruent","direction":"left","trial_type":"image-keyboard-response","trial_index":169,"time_elapsed":1191637,"internal_node_id":"0.0-5.0-2.0-0.1","session":2,"startTime":"2020-1-7 7:19:46","attn_word":["ZEBRA"],"correct":false},{"rt":null,"stimulus":"flanker_test","key_press":null,"stim_type":"congruent","direction":"right","trial_type":"image-keyboard-response","trial_index":170,"time_elapsed":1193383,"internal_node_id":"0.0-5.0-2.0-0.2","session":2,"startTime":"2020-1-7 7:19:46","attn_word":["ZEBRA"],"correct":false},{"rt":null,"stimulus":"flanker_test","key_press":null,"stim_type":"incongruent","direction":"left","trial_type":"image-keyboard-response","trial_index":171,"time_elapsed":1194765,"internal_node_id":"0.0-5.0-2.0-0.3","session":2,"startTime":"2020-1-7 7:19:46","attn_word":["ZEBRA"],"correct":false},{"init_locations":"[{\"cat\":20,\"src\":3,\"x\":68,\"y\":311},{\"cat\":14,\"src\":19,\"x\":79,\"y\":124},{\"cat\":21,\"src\":1,\"x\":56,\"y\":209},{\"cat\":20,\"src\":7,\"x\":38,\"y\":242},{\"cat\":14,\"src\":6,\"x\":13,\"y\":63},{\"cat\":21,\"src\":6,\"x\":65,\"y\":486},{\"cat\":14,\"src\":11,\"x\":77,\"y\":16},{\"cat\":20,\"src\":8,\"x\":49,\"y\":389},{\"cat\":21,\"src\":11,\"x\":52,\"y\":443}]","moves":"[{\"cat\":\"21\",\"src\":\"1\",\"x\":0,\"y\":0},{\"cat\":\"21\",\"src\":\"6\",\"x\":0,\"y\":0},{\"cat\":\"20\",\"src\":\"3\",\"x\":0,\"y\":0},{\"cat\":\"20\",\"src\":\"7\",\"x\":0,\"y\":0},{\"cat\":\"20\",\"src\":\"8\",\"x\":0,\"y\":0},{\"cat\":\"14\",\"src\":\"11\",\"x\":0,\"y\":0},{\"cat\":\"14\",\"src\":\"6\",\"x\":0,\"y\":0},{\"cat\":\"14\",\"src\":\"19\",\"x\":0,\"y\":0},{\"cat\":\"21\",\"src\":\"11\",\"x\":0,\"y\":0}]","final_locations":"[{\"cat\":21,\"src\":1,\"loc\":0},{\"cat\":21,\"src\":6,\"loc\":1},{\"cat\":20,\"src\":3,\"loc\":6},{\"cat\":20,\"src\":7,\"loc\":7},{\"cat\":20,\"src\":8,\"loc\":8},{\"cat\":14,\"src\":11,\"loc\":3},{\"cat\":14,\"src\":6,\"loc\":5},{\"cat\":14,\"src\":19,\"loc\":4},{\"cat\":21,\"src\":11,\"loc\":2}]","rt":18322,"sort_correct":9,"finalLocations":[[21,1,0,0],[21,6,1,1],[21,11,2,8],[14,11,3,5],[14,19,4,7],[14,6,5,6],[20,3,6,2],[20,7,7,3],[20,8,8,4]],"trial_type":"free-sort","trial_index":172,"time_elapsed":1213805,"internal_node_id":"0.0-5.0-3.0","session":2,"startTime":"2020-1-7 7:19:46","attn_word":["ZEBRA"],"stimulus":"sort_trial"},{"rt":353,"stimulus":"sort_feedback","key_press":69,"trial_type":"html-keyboard-response","trial_index":173,"time_elapsed":1214160,"internal_node_id":"0.0-5.0-4.0","session":2,"startTime":"2020-1-7 7:19:46","attn_word":["ZEBRA"]},{"animation_sequence":"[{\"cat\":18,\"src\":6,\"loc\":3},{\"cat\":30,\"src\":9,\"loc\":5},{\"cat\":16,\"src\":1,\"loc\":4},{\"cat\":18,\"src\":9,\"loc\":2},{\"cat\":16,\"src\":11,\"loc\":0},{\"cat\":30,\"src\":19,\"loc\":1},{\"cat\":30,\"src\":8,\"loc\":7},{\"cat\":16,\"src\":17,\"loc\":6},{\"cat\":18,\"src\":19,\"loc\":8}]","condition":2,"rt":19957,"time_sequence":[1106,1103,1105,1102,1105,1105,1105,1102,1103,10021],"trial_type":"animation","trial_index":174,"time_elapsed":1234118,"internal_node_id":"0.0-5.0-5.0","session":2,"startTime":"2020-1-7 7:19:46","attn_word":["ZEBRA"],"stimulus":"setup2"},{"rt":3300,"stimulus":"flanker_instructions","key_press":69,"trial_type":"html-keyboard-response","trial_index":175,"time_elapsed":1237422,"internal_node_id":"0.0-5.0-6.0","session":2,"startTime":"2020-1-7 7:19:46","attn_word":["ZEBRA"]},{"rt":null,"stimulus":"flanker_test","key_press":null,"stim_type":"congruent","direction":"right","trial_type":"image-keyboard-response","trial_index":176,"time_elapsed":1239329,"internal_node_id":"0.0-5.0-7.0-0.0","session":2,"startTime":"2020-1-7 7:19:46","attn_word":["ZEBRA"],"correct":false},{"rt":null,"stimulus":"flanker_test","key_press":null,"stim_type":"congruent","direction":"left","trial_type":"image-keyboard-response","trial_index":177,"time_elapsed":1240886,"internal_node_id":"0.0-5.0-7.0-0.1","session":2,"startTime":"2020-1-7 7:19:46","attn_word":["ZEBRA"],"correct":false},{"rt":null,"stimulus":"flanker_test","key_press":null,"stim_type":"incongruent","direction":"right","trial_type":"image-keyboard-response","trial_index":178,"time_elapsed":1242436,"internal_node_id":"0.0-5.0-7.0-0.2","session":2,"startTime":"2020-1-7 7:19:46","attn_word":["ZEBRA"],"correct":false},{"rt":null,"stimulus":"flanker_test","key_press":null,"stim_type":"incongruent","direction":"left","trial_type":"image-keyboard-response","trial_index":179,"time_elapsed":1244480,"internal_node_id":"0.0-5.0-7.0-0.3","session":2,"startTime":"2020-1-7 7:19:46","attn_word":["ZEBRA"],"correct":false},{"init_locations":"[{\"cat\":18,\"src\":6,\"x\":64,\"y\":29},{\"cat\":30,\"src\":9,\"x\":80,\"y\":364},{\"cat\":16,\"src\":1,\"x\":9,\"y\":245},{\"cat\":18,\"src\":9,\"x\":3,\"y\":180},{\"cat\":16,\"src\":11,\"x\":10,\"y\":125},{\"cat\":30,\"src\":19,\"x\":34,\"y\":60},{\"cat\":30,\"src\":8,\"x\":33,\"y\":323},{\"cat\":16,\"src\":17,\"x\":52,\"y\":499},{\"cat\":18,\"src\":19,\"x\":29,\"y\":424}]","moves":"[{\"cat\":\"30\",\"src\":\"9\",\"x\":0,\"y\":0},{\"cat\":\"18\",\"src\":\"6\",\"x\":0,\"y\":0},{\"cat\":\"16\",\"src\":\"1\",\"x\":0,\"y\":0},{\"cat\":\"18\",\"src\":\"9\",\"x\":0,\"y\":0},{\"cat\":\"30\",\"src\":\"19\",\"x\":0,\"y\":0},{\"cat\":\"16\",\"src\":\"11\",\"x\":0,\"y\":0},{\"cat\":\"30\",\"src\":\"8\",\"x\":0,\"y\":0},{\"cat\":\"18\",\"src\":\"19\",\"x\":0,\"y\":0},{\"cat\":\"16\",\"src\":\"17\",\"x\":0,\"y\":0}]","final_locations":"[{\"cat\":30,\"src\":9,\"loc\":5},{\"cat\":18,\"src\":6,\"loc\":3},{\"cat\":16,\"src\":1,\"loc\":4},{\"cat\":18,\"src\":9,\"loc\":2},{\"cat\":30,\"src\":19,\"loc\":1},{\"cat\":16,\"src\":11,\"loc\":0},{\"cat\":30,\"src\":8,\"loc\":7},{\"cat\":18,\"src\":19,\"loc\":6},{\"cat\":16,\"src\":17,\"loc\":8}]","rt":26920,"sort_correct":7,"finalLocations":[[16,11,0,5],[30,19,1,4],[18,9,2,3],[18,6,3,1],[16,1,4,2],[30,9,5,0],[18,19,6,7],[30,8,7,6],[16,17,8,8]],"trial_type":"free-sort","trial_index":180,"time_elapsed":1272059,"internal_node_id":"0.0-5.0-8.0","session":2,"startTime":"2020-1-7 7:19:46","attn_word":["ZEBRA"],"stimulus":"sort_trial"},{"rt":2467,"stimulus":"sort_feedback","key_press":69,"trial_type":"html-keyboard-response","trial_index":181,"time_elapsed":1274528,"internal_node_id":"0.0-5.0-9.0","session":2,"startTime":"2020-1-7 7:19:46","attn_word":["ZEBRA"]},{"animation_sequence":"[{\"cat\":8,\"src\":8,\"loc\":2},{\"cat\":12,\"src\":15,\"loc\":3},{\"cat\":2,\"src\":2,\"loc\":8},{\"cat\":12,\"src\":13,\"loc\":7},{\"cat\":2,\"src\":0,\"loc\":0},{\"cat\":8,\"src\":15,\"loc\":5},{\"cat\":12,\"src\":11,\"loc\":1},{\"cat\":2,\"src\":12,\"loc\":4},{\"cat\":8,\"src\":11,\"loc\":6}]","condition":5,"rt":19951,"time_sequence":[1106,1104,1103,1107,1106,1105,1106,1104,1105,10004],"trial_type":"animation","trial_index":182,"time_elapsed":1294481,"internal_node_id":"0.0-5.0-10.0","session":2,"startTime":"2020-1-7 7:19:46","attn_word":["ZEBRA"],"stimulus":"setup5"},{"rt":172,"stimulus":"flanker_instructions","key_press":68,"trial_type":"html-keyboard-response","trial_index":183,"time_elapsed":1294658,"internal_node_id":"0.0-5.0-11.0","session":2,"startTime":"2020-1-7 7:19:46","attn_word":["ZEBRA"]},{"rt":null,"stimulus":"flanker_test","key_press":null,"stim_type":"incongruent","direction":"left","trial_type":"image-keyboard-response","trial_index":184,"time_elapsed":1296565,"internal_node_id":"0.0-5.0-12.0-0.0","session":2,"startTime":"2020-1-7 7:19:46","attn_word":["ZEBRA"],"correct":false},{"rt":null,"stimulus":"flanker_test","key_press":null,"stim_type":"incongruent","direction":"right","trial_type":"image-keyboard-response","trial_index":185,"time_elapsed":1298560,"internal_node_id":"0.0-5.0-12.0-0.1","session":2,"startTime":"2020-1-7 7:19:46","attn_word":["ZEBRA"],"correct":false},{"rt":null,"stimulus":"flanker_test","key_press":null,"stim_type":"congruent","direction":"right","trial_type":"image-keyboard-response","trial_index":186,"time_elapsed":1300478,"internal_node_id":"0.0-5.0-12.0-0.2","session":2,"startTime":"2020-1-7 7:19:46","attn_word":["ZEBRA"],"correct":false},{"rt":null,"stimulus":"flanker_test","key_press":null,"stim_type":"congruent","direction":"left","trial_type":"image-keyboard-response","trial_index":187,"time_elapsed":1302536,"internal_node_id":"0.0-5.0-12.0-0.3","session":2,"startTime":"2020-1-7 7:19:46","attn_word":["ZEBRA"],"correct":false},{"init_locations":"[{\"cat\":8,\"src\":8,\"x\":66,\"y\":124},{\"cat\":12,\"src\":15,\"x\":18,\"y\":320},{\"cat\":2,\"src\":2,\"x\":56,\"y\":80},{\"cat\":12,\"src\":13,\"x\":54,\"y\":179},{\"cat\":2,\"src\":0,\"x\":68,\"y\":372},{\"cat\":8,\"src\":15,\"x\":36,\"y\":9},{\"cat\":12,\"src\":11,\"x\":30,\"y\":443},{\"cat\":2,\"src\":12,\"x\":70,\"y\":494},{\"cat\":8,\"src\":11,\"x\":51,\"y\":244}]","moves":"[{\"cat\":\"2\",\"src\":\"0\",\"x\":0,\"y\":0},{\"cat\":\"8\",\"src\":\"8\",\"x\":0,\"y\":0},{\"cat\":\"12\",\"src\":\"13\",\"x\":0,\"y\":0},{\"cat\":\"2\",\"src\":\"2\",\"x\":0,\"y\":0},{\"cat\":\"8\",\"src\":\"15\",\"x\":0,\"y\":0},{\"cat\":\"12\",\"src\":\"15\",\"x\":0,\"y\":0},{\"cat\":\"8\",\"src\":\"11\",\"x\":0,\"y\":0},{\"cat\":\"12\",\"src\":\"11\",\"x\":0,\"y\":0},{\"cat\":\"2\",\"src\":\"12\",\"x\":0,\"y\":0}]","final_locations":"[{\"cat\":2,\"src\":0,\"loc\":0},{\"cat\":8,\"src\":8,\"loc\":2},{\"cat\":12,\"src\":13,\"loc\":7},{\"cat\":2,\"src\":2,\"loc\":6},{\"cat\":8,\"src\":15,\"loc\":5},{\"cat\":12,\"src\":15,\"loc\":3},{\"cat\":8,\"src\":11,\"loc\":4},{\"cat\":12,\"src\":11,\"loc\":1},{\"cat\":2,\"src\":12,\"loc\":8}]","rt":22758,"sort_correct":6,"finalLocations":[[2,0,0,0],[12,11,1,7],[8,8,2,1],[12,15,3,5],[8,11,4,6],[8,15,5,4],[2,2,6,3],[12,13,7,2],[2,12,8,8]],"trial_type":"free-sort","trial_index":188,"time_elapsed":1325860,"internal_node_id":"0.0-5.0-13.0","session":2,"startTime":"2020-1-7 7:19:46","attn_word":["ZEBRA"],"stimulus":"sort_trial"},{"rt":1333,"stimulus":"sort_feedback","key_press":69,"trial_type":"html-keyboard-response","trial_index":189,"time_elapsed":1327195,"internal_node_id":"0.0-5.0-14.0","session":2,"startTime":"2020-1-7 7:19:46","attn_word":["ZEBRA"]},{"animation_sequence":"[{\"cat\":27,\"src\":7,\"loc\":4},{\"cat\":27,\"src\":15,\"loc\":7},{\"cat\":27,\"src\":3,\"loc\":1},{\"cat\":32,\"src\":14,\"loc\":3},{\"cat\":32,\"src\":19,\"loc\":2},{\"cat\":32,\"src\":3,\"loc\":6},{\"cat\":23,\"src\":11,\"loc\":0},{\"cat\":23,\"src\":2,\"loc\":8},{\"cat\":23,\"src\":15,\"loc\":5}]","condition":4,"rt":19957,"time_sequence":[1105,1106,1119,1103,1103,1102,1106,1106,1105,10001],"trial_type":"animation","trial_index":190,"time_elapsed":1347154,"internal_node_id":"0.0-5.0-15.0","session":2,"startTime":"2020-1-7 7:19:46","attn_word":["ZEBRA"],"stimulus":"setup4"},{"rt":414,"stimulus":"flanker_instructions","key_press":70,"trial_type":"html-keyboard-response","trial_index":191,"time_elapsed":1347574,"internal_node_id":"0.0-5.0-16.0","session":2,"startTime":"2020-1-7 7:19:46","attn_word":["ZEBRA"]},{"rt":null,"stimulus":"flanker_test","key_press":null,"stim_type":"congruent","direction":"left","trial_type":"image-keyboard-response","trial_index":192,"time_elapsed":1349483,"internal_node_id":"0.0-5.0-17.0-0.0","session":2,"startTime":"2020-1-7 7:19:46","attn_word":["ZEBRA"],"correct":false},{"rt":null,"stimulus":"flanker_test","key_press":null,"stim_type":"congruent","direction":"right","trial_type":"image-keyboard-response","trial_index":193,"time_elapsed":1351245,"internal_node_id":"0.0-5.0-17.0-0.1","session":2,"startTime":"2020-1-7 7:19:46","attn_word":["ZEBRA"],"correct":false},{"rt":null,"stimulus":"flanker_test","key_press":null,"stim_type":"incongruent","direction":"left","trial_type":"image-keyboard-response","trial_index":194,"time_elapsed":1353230,"internal_node_id":"0.0-5.0-17.0-0.2","session":2,"startTime":"2020-1-7 7:19:46","attn_word":["ZEBRA"],"correct":false},{"rt":null,"stimulus":"flanker_test","key_press":null,"stim_type":"incongruent","direction":"right","trial_type":"image-keyboard-response","trial_index":195,"time_elapsed":1354445,"internal_node_id":"0.0-5.0-17.0-0.3","session":2,"startTime":"2020-1-7 7:19:46","attn_word":["ZEBRA"],"correct":false},{"init_locations":"[{\"cat\":27,\"src\":7,\"x\":55,\"y\":68},{\"cat\":27,\"src\":15,\"x\":19,\"y\":259},{\"cat\":27,\"src\":3,\"x\":12,\"y\":436},{\"cat\":32,\"src\":14,\"x\":12,\"y\":494},{\"cat\":32,\"src\":19,\"x\":7,\"y\":20},{\"cat\":32,\"src\":3,\"x\":75,\"y\":300},{\"cat\":23,\"src\":11,\"x\":41,\"y\":129},{\"cat\":23,\"src\":2,\"x\":57,\"y\":192},{\"cat\":23,\"src\":15,\"x\":44,\"y\":363}]","moves":"[{\"cat\":\"23\",\"src\":\"11\",\"x\":0,\"y\":0},{\"cat\":\"32\",\"src\":\"19\",\"x\":0,\"y\":0},{\"cat\":\"27\",\"src\":\"3\",\"x\":0,\"y\":0},{\"cat\":\"27\",\"src\":\"15\",\"x\":0,\"y\":0},{\"cat\":\"32\",\"src\":\"3\",\"x\":0,\"y\":0},{\"cat\":\"32\",\"src\":\"14\",\"x\":0,\"y\":0},{\"cat\":\"27\",\"src\":\"7\",\"x\":0,\"y\":0},{\"cat\":\"23\",\"src\":\"2\",\"x\":0,\"y\":0},{\"cat\":\"23\",\"src\":\"15\",\"x\":0,\"y\":0}]","final_locations":"[{\"cat\":23,\"src\":11,\"loc\":0},{\"cat\":32,\"src\":19,\"loc\":2},{\"cat\":27,\"src\":3,\"loc\":1},{\"cat\":27,\"src\":15,\"loc\":7},{\"cat\":32,\"src\":3,\"loc\":6},{\"cat\":32,\"src\":14,\"loc\":3},{\"cat\":27,\"src\":7,\"loc\":4},{\"cat\":23,\"src\":2,\"loc\":5},{\"cat\":23,\"src\":15,\"loc\":8}]","rt":19806,"sort_correct":7,"finalLocations":[[23,11,0,0],[27,3,1,2],[32,19,2,1],[32,14,3,5],[27,7,4,6],[23,2,5,7],[32,3,6,4],[27,15,7,3],[23,15,8,8]],"trial_type":"free-sort","trial_index":196,"time_elapsed":1374892,"internal_node_id":"0.0-5.0-18.0","session":2,"startTime":"2020-1-7 7:19:46","attn_word":["ZEBRA"],"stimulus":"sort_trial"},{"rt":1082,"stimulus":"sort_feedback","key_press":69,"trial_type":"html-keyboard-response","trial_index":197,"time_elapsed":1375976,"internal_node_id":"0.0-5.0-19.0","session":2,"startTime":"2020-1-7 7:19:46","attn_word":["ZEBRA"]},{"animation_sequence":"[{\"cat\":14,\"src\":14,\"loc\":8},{\"cat\":14,\"src\":18,\"loc\":7},{\"cat\":14,\"src\":3,\"loc\":6},{\"cat\":18,\"src\":4,\"loc\":2},{\"cat\":18,\"src\":12,\"loc\":0},{\"cat\":18,\"src\":11,\"loc\":1},{\"cat\":10,\"src\":3,\"loc\":4},{\"cat\":10,\"src\":5,\"loc\":5},{\"cat\":10,\"src\":17,\"loc\":3}]","condition":1,"rt":19946,"time_sequence":[1107,1107,1105,1103,1104,1104,1104,1104,1104,10004],"trial_type":"animation","trial_index":198,"time_elapsed":1395924,"internal_node_id":"0.0-5.0-20.0","session":2,"startTime":"2020-1-7 7:19:46","attn_word":["ZEBRA"],"stimulus":"setup1"},{"rt":4346,"stimulus":"flanker_instructions","key_press":70,"trial_type":"html-keyboard-response","trial_index":199,"time_elapsed":1400274,"internal_node_id":"0.0-5.0-21.0","session":2,"startTime":"2020-1-7 7:19:46","attn_word":["ZEBRA"]},{"rt":null,"stimulus":"flanker_test","key_press":null,"stim_type":"congruent","direction":"right","trial_type":"image-keyboard-response","trial_index":200,"time_elapsed":1402181,"internal_node_id":"0.0-5.0-22.0-0.0","session":2,"startTime":"2020-1-7 7:19:46","attn_word":["ZEBRA"],"correct":false},{"rt":null,"stimulus":"flanker_test","key_press":null,"stim_type":"incongruent","direction":"right","trial_type":"image-keyboard-response","trial_index":201,"time_elapsed":1404164,"internal_node_id":"0.0-5.0-22.0-0.1","session":2,"startTime":"2020-1-7 7:19:46","attn_word":["ZEBRA"],"correct":false},{"rt":null,"stimulus":"flanker_test","key_press":null,"stim_type":"congruent","direction":"left","trial_type":"image-keyboard-response","trial_index":202,"time_elapsed":1406072,"internal_node_id":"0.0-5.0-22.0-0.2","session":2,"startTime":"2020-1-7 7:19:46","attn_word":["ZEBRA"],"correct":false},{"rt":null,"stimulus":"flanker_test","key_press":null,"stim_type":"incongruent","direction":"left","trial_type":"image-keyboard-response","trial_index":203,"time_elapsed":1407790,"internal_node_id":"0.0-5.0-22.0-0.3","session":2,"startTime":"2020-1-7 7:19:46","attn_word":["ZEBRA"],"correct":false},{"init_locations":"[{\"cat\":14,\"src\":14,\"x\":15,\"y\":373},{\"cat\":14,\"src\":18,\"x\":28,\"y\":17},{\"cat\":14,\"src\":3,\"x\":15,\"y\":489},{\"cat\":18,\"src\":4,\"x\":28,\"y\":192},{\"cat\":18,\"src\":12,\"x\":4,\"y\":140},{\"cat\":18,\"src\":11,\"x\":46,\"y\":425},{\"cat\":10,\"src\":3,\"x\":58,\"y\":85},{\"cat\":10,\"src\":5,\"x\":43,\"y\":240},{\"cat\":10,\"src\":17,\"x\":31,\"y\":317}]","moves":"[{\"cat\":\"18\",\"src\":\"11\",\"x\":0,\"y\":0},{\"cat\":\"18\",\"src\":\"12\",\"x\":0,\"y\":0},{\"cat\":\"18\",\"src\":\"4\",\"x\":0,\"y\":0},{\"cat\":\"14\",\"src\":\"3\",\"x\":0,\"y\":0},{\"cat\":\"14\",\"src\":\"18\",\"x\":0,\"y\":0},{\"cat\":\"14\",\"src\":\"14\",\"x\":0,\"y\":0},{\"cat\":\"10\",\"src\":\"5\",\"x\":0,\"y\":0},{\"cat\":\"10\",\"src\":\"3\",\"x\":0,\"y\":0},{\"cat\":\"10\",\"src\":\"17\",\"x\":0,\"y\":0}]","final_locations":"[{\"cat\":18,\"src\":11,\"loc\":1},{\"cat\":18,\"src\":12,\"loc\":0},{\"cat\":18,\"src\":4,\"loc\":2},{\"cat\":14,\"src\":3,\"loc\":6},{\"cat\":14,\"src\":18,\"loc\":7},{\"cat\":14,\"src\":14,\"loc\":8},{\"cat\":10,\"src\":5,\"loc\":5},{\"cat\":10,\"src\":3,\"loc\":4},{\"cat\":10,\"src\":17,\"loc\":3}]","rt":17274,"sort_correct":9,"finalLocations":[[18,12,0,1],[18,11,1,0],[18,4,2,2],[10,17,3,8],[10,3,4,7],[10,5,5,6],[14,3,6,3],[14,18,7,4],[14,14,8,5]],"trial_type":"free-sort","trial_index":204,"time_elapsed":1425441,"internal_node_id":"0.0-5.0-23.0","session":2,"startTime":"2020-1-7 7:19:46","attn_word":["ZEBRA"],"stimulus":"sort_trial"},{"rt":436,"stimulus":"sort_feedback","key_press":69,"trial_type":"html-keyboard-response","trial_index":205,"time_elapsed":1425879,"internal_node_id":"0.0-5.0-24.0","session":2,"startTime":"2020-1-7 7:19:46","attn_word":["ZEBRA"]},{"animation_sequence":"[{\"cat\":25,\"src\":15,\"loc\":8},{\"cat\":5,\"src\":14,\"loc\":5},{\"cat\":1,\"src\":15,\"loc\":0},{\"cat\":5,\"src\":7,\"loc\":3},{\"cat\":25,\"src\":13,\"loc\":6},{\"cat\":1,\"src\":0,\"loc\":2},{\"cat\":25,\"src\":11,\"loc\":7},{\"cat\":5,\"src\":15,\"loc\":4},{\"cat\":1,\"src\":8,\"loc\":1}]","condition":3,"rt":19953,"time_sequence":[1104,1113,1103,1103,1106,1105,1105,1107,1103,10003],"trial_type":"animation","trial_index":206,"time_elapsed":1445834,"internal_node_id":"0.0-5.0-25.0","session":2,"startTime":"2020-1-7 7:19:46","attn_word":["ZEBRA"],"stimulus":"setup3"},{"rt":1869,"stimulus":"flanker_instructions","key_press":68,"trial_type":"html-keyboard-response","trial_index":207,"time_elapsed":1447709,"internal_node_id":"0.0-5.0-26.0","session":2,"startTime":"2020-1-7 7:19:46","attn_word":["ZEBRA"]},{"rt":null,"stimulus":"flanker_test","key_press":null,"stim_type":"congruent","direction":"right","trial_type":"image-keyboard-response","trial_index":208,"time_elapsed":1449617,"internal_node_id":"0.0-5.0-27.0-0.0","session":2,"startTime":"2020-1-7 7:19:46","attn_word":["ZEBRA"],"correct":false},{"rt":null,"stimulus":"flanker_test","key_press":null,"stim_type":"incongruent","direction":"right","trial_type":"image-keyboard-response","trial_index":209,"time_elapsed":1451240,"internal_node_id":"0.0-5.0-27.0-0.1","session":2,"startTime":"2020-1-7 7:19:46","attn_word":["ZEBRA"],"correct":false},{"rt":null,"stimulus":"flanker_test","key_press":null,"stim_type":"congruent","direction":"left","trial_type":"image-keyboard-response","trial_index":210,"time_elapsed":1453012,"internal_node_id":"0.0-5.0-27.0-0.2","session":2,"startTime":"2020-1-7 7:19:46","attn_word":["ZEBRA"],"correct":false},{"rt":null,"stimulus":"flanker_test","key_press":null,"stim_type":"incongruent","direction":"left","trial_type":"image-keyboard-response","trial_index":211,"time_elapsed":1454655,"internal_node_id":"0.0-5.0-27.0-0.3","session":2,"startTime":"2020-1-7 7:19:46","attn_word":["ZEBRA"],"correct":false},{"init_locations":"[{\"cat\":25,\"src\":15,\"x\":60,\"y\":429},{\"cat\":5,\"src\":14,\"x\":22,\"y\":25},{\"cat\":1,\"src\":15,\"x\":59,\"y\":505},{\"cat\":5,\"src\":7,\"x\":43,\"y\":264},{\"cat\":25,\"src\":13,\"x\":5,\"y\":137},{\"cat\":1,\"src\":0,\"x\":7,\"y\":385},{\"cat\":25,\"src\":11,\"x\":1,\"y\":306},{\"cat\":5,\"src\":15,\"x\":78,\"y\":68},{\"cat\":1,\"src\":8,\"x\":18,\"y\":190}]","moves":"[{\"cat\":\"1\",\"src\":\"15\",\"x\":0,\"y\":0},{\"cat\":\"1\",\"src\":\"0\",\"x\":0,\"y\":0},{\"cat\":\"25\",\"src\":\"13\",\"x\":0,\"y\":0},{\"cat\":\"25\",\"src\":\"11\",\"x\":0,\"y\":0},{\"cat\":\"25\",\"src\":\"15\",\"x\":0,\"y\":0},{\"cat\":\"5\",\"src\":\"14\",\"x\":0,\"y\":0},{\"cat\":\"5\",\"src\":\"15\",\"x\":0,\"y\":0},{\"cat\":\"5\",\"src\":\"7\",\"x\":0,\"y\":0},{\"cat\":\"1\",\"src\":\"8\",\"x\":0,\"y\":0}]","final_locations":"[{\"cat\":1,\"src\":15,\"loc\":0},{\"cat\":1,\"src\":0,\"loc\":2},{\"cat\":25,\"src\":13,\"loc\":6},{\"cat\":25,\"src\":11,\"loc\":7},{\"cat\":25,\"src\":15,\"loc\":8},{\"cat\":5,\"src\":14,\"loc\":5},{\"cat\":5,\"src\":15,\"loc\":4},{\"cat\":5,\"src\":7,\"loc\":3},{\"cat\":1,\"src\":8,\"loc\":1}]","rt":25714,"sort_correct":9,"finalLocations":[[1,15,0,0],[1,8,1,8],[1,0,2,1],[5,7,3,7],[5,15,4,6],[5,14,5,5],[25,13,6,2],[25,11,7,3],[25,15,8,4]],"trial_type":"free-sort","trial_index":212,"time_elapsed":1480856,"internal_node_id":"0.0-5.0-28.0","session":2,"startTime":"2020-1-7 7:19:46","attn_word":["ZEBRA"],"stimulus":"sort_trial"},{"rt":1154,"stimulus":"sort_feedback","key_press":70,"trial_type":"html-keyboard-response","trial_index":213,"time_elapsed":1482012,"internal_node_id":"0.0-5.0-29.0","session":2,"startTime":"2020-1-7 7:19:46","attn_word":["ZEBRA"]},{"animation_sequence":"[{\"cat\":18,\"src\":5,\"loc\":5},{\"cat\":18,\"src\":19,\"loc\":3},{\"cat\":18,\"src\":4,\"loc\":4},{\"cat\":29,\"src\":6,\"loc\":8},{\"cat\":29,\"src\":14,\"loc\":7},{\"cat\":29,\"src\":19,\"loc\":6},{\"cat\":21,\"src\":19,