"ID","session","trial","condition","item_correct","room_correct","time_correct","cat_correct","rt","cat_pattern","room_pattern","time_pattern","cat_pattern_norm","room_pattern_norm","time_pattern_norm","k3","k4","k5"
"1","1",1,"SpaceSemTime",1,1,0,1,19629,0.666666666666667,0.666666666666667,-0.5,1,1,0.25,3,2,2
"1","1",2,"SpaceTime",0.666666666666667,0.777777777777778,0,0.777777777777778,24890,0,0.666666666666667,-0.1,0,1,0.45,1,3,1
"1","1",3,"Control",0.777777777777778,1,0,0.777777777777778,25417,0.444444444444444,0.222222222222222,-0.15,0.666666666666667,0.333333333333333,0.425,2,1,4
"1","1",4,"SpaceSem",1,1,0.222222222222222,1,19453,0.666666666666667,0.666666666666667,-0.05,1,1,0.475,3,2,2
"1","1",5,"TimeSem",1,1,0.111111111111111,1,18696,0.444444444444444,0.222222222222222,0.383333333333333,0.666666666666667,0.333333333333333,0.691666666666667,2,1,4
"1","1",6,"Control",0.666666666666667,0.777777777777778,0.111111111111111,0.666666666666667,23355,0.444444444444444,0.666666666666667,0.1,0.666666666666667,1,0.55,3,4,5
"1","1",7,"TimeSem",0.777777777777778,1,0.333333333333333,0.777777777777778,24077,0.222222222222222,0.555555555555556,0.283333333333333,0.333333333333333,0.833333333333333,0.641666666666667,1,4,5
"1","1",8,"SpaceSemTime",1,1,0,1,25345,0.666666666666667,0.666666666666667,-0.4,1,1,0.3,3,2,2
"1","1",9,"SpaceSem",0.777777777777778,1,0.333333333333333,1,20666,0.555555555555556,0.555555555555556,0.133333333333333,0.833333333333333,0.833333333333333,0.566666666666667,3,2,3
"1","1",10,"SpaceTime",1,1,0.111111111111111,1,16436,0,0.555555555555556,0.616666666666667,0,0.833333333333333,0.808333333333333,1,3,1
"1","1",11,"TimeSem",1,1,0.222222222222222,1,16778,0.222222222222222,0.222222222222222,0.333333333333333,0.333333333333333,0.333333333333333,0.666666666666667,2,1,4
"1","1",12,"SpaceSemTime",1,1,0.333333333333333,1,18446,0.333333333333333,0.333333333333333,-0.366666666666667,0.5,0.5,0.316666666666667,2,1,4
"1","1",13,"Control",0.666666666666667,0.666666666666667,0.222222222222222,0.777777777777778,19466,0.222222222222222,0.444444444444444,0.333333333333333,0.333333333333333,0.666666666666667,0.666666666666667,2,4,5
"1","1",14,"SpaceTime",1,1,0.222222222222222,1,19634,0.222222222222222,0.333333333333333,0.65,0.333333333333333,0.5,0.825,2,1,4
"1","1",15,"SpaceSem",0.666666666666667,0.666666666666667,0.111111111111111,0.666666666666667,40467,0.333333333333333,0.555555555555556,0.833333333333333,0.5,0.833333333333333,0.916666666666667,1,4,5
"1","1",16,"TimeSem",0.777777777777778,0.777777777777778,0.111111111111111,1,22411,0.555555555555556,0.222222222222222,0.7,0.833333333333333,0.333333333333333,0.85,2,1,4
"1","1",17,"Control",1,1,0,1,25493,0.222222222222222,0.333333333333333,0.45,0.333333333333333,0.5,0.725,2,1,4
"1","1",18,"SpaceTime",0.777777777777778,1,0.555555555555556,0.777777777777778,18604,0,0.666666666666667,0.966666666666667,0,1,0.983333333333333,1,3,1
"1","1",19,"SpaceSemTime",1,1,0.111111111111111,1,15961,0.555555555555556,0.555555555555556,0.0333333333333333,0.833333333333333,0.833333333333333,0.516666666666667,3,2,2
"1","1",20,"SpaceSem",0.666666666666667,0.777777777777778,0.222222222222222,0.777777777777778,15447,0.222222222222222,0.222222222222222,0.0666666666666667,0.333333333333333,0.333333333333333,0.533333333333333,2,1,4
"1","1",21,"SpaceTime",1,1,0.111111111111111,1,48651,0,0.666666666666667,0.466666666666667,0,1,0.733333333333333,1,3,1
"1","1",22,"SpaceSemTime",0.777777777777778,1,0,1,17192,0.666666666666667,0.666666666666667,0.466666666666667,1,1,0.733333333333333,3,2,3
"1","1",23,"TimeSem",0.666666666666667,0.666666666666667,0.444444444444444,1,24013,0.555555555555556,0.222222222222222,0.866666666666667,0.833333333333333,0.333333333333333,0.933333333333333,2,1,4
"1","1",24,"SpaceSem",1,1,0,1,23133,0.222222222222222,0.222222222222222,0.25,0.333333333333333,0.333333333333333,0.625,2,1,4
"1","1",25,"Control",0.777777777777778,0.777777777777778,0.111111111111111,0.777777777777778,17965,0,0.222222222222222,0.55,0,0.333333333333333,0.775,2,1,4
"1","1",26,"SpaceSem",1,1,0.111111111111111,1,24117,0.666666666666667,0.666666666666667,0.216666666666667,1,1,0.608333333333333,3,2,3
"1","1",27,"Control",0.666666666666667,0.777777777777778,0,0.666666666666667,28185,0.444444444444444,0.333333333333333,0.716666666666667,0.666666666666667,0.5,0.858333333333333,2,1,4
"1","1",28,"TimeSem",0.777777777777778,0.777777777777778,0,1,19633,0.555555555555556,0.222222222222222,0.65,0.833333333333333,0.333333333333333,0.825,2,1,4
"1","1",29,"SpaceTime",0.777777777777778,0.777777777777778,0.333333333333333,0.777777777777778,20882,0.222222222222222,0.666666666666667,0.85,0.333333333333333,1,0.925,1,4,5
"1","1",30,"SpaceSemTime",0.555555555555556,1,0.111111111111111,1,18152,0.666666666666667,0.666666666666667,0.883333333333333,1,1,0.941666666666667,3,2,3
"1","2",31,"Control",1,1,0.333333333333333,1,29979,0.444444444444444,0.333333333333333,0.366666666666667,0.666666666666667,0.5,0.683333333333333,2,1,4
"1","2",32,"TimeSem",1,1,0.333333333333333,1,15912,0,0.666666666666667,-0.0666666666666667,0,1,0.466666666666667,1,3,1
"1","2",33,"SpaceSemTime",1,1,0.222222222222222,1,18392,0.555555555555556,0.555555555555556,0.666666666666667,0.833333333333333,0.833333333333333,0.833333333333333,3,2,3
"1","2",34,"SpaceTime",0.777777777777778,0.777777777777778,0.444444444444444,1,20551,0.333333333333333,0.333333333333333,0.533333333333333,0.5,0.5,0.766666666666667,2,1,4
"1","2",35,"SpaceSem",1,1,0.111111111111111,1,31794,0.444444444444444,0.222222222222222,0.55,0.666666666666667,0.333333333333333,0.775,2,1,4
"1","2",36,"Control",1,1,0.111111111111111,1,27821,0.222222222222222,0.555555555555556,0.166666666666667,0.333333333333333,0.833333333333333,0.583333333333333,1,4,5
"1","2",37,"TimeSem",0.777777777777778,1,0.222222222222222,0.777777777777778,20422,0,0.666666666666667,-0.05,0,1,0.475,1,3,1
"1","2",38,"SpaceTime",0.777777777777778,0.777777777777778,0.222222222222222,0.777777777777778,23190,0.222222222222222,0.333333333333333,-0.316666666666667,0.333333333333333,0.5,0.341666666666667,2,1,4
"1","2",39,"SpaceSem",1,1,0.333333333333333,1,31193,0.555555555555556,0.555555555555556,0.566666666666667,0.833333333333333,0.833333333333333,0.783333333333333,3,2,3
"1","2",40,"SpaceSemTime",0.777777777777778,1,0,1,19950,0.666666666666667,0.666666666666667,0.433333333333333,1,1,0.716666666666667,3,2,3
"1","2",41,"TimeSem",0.666666666666667,0.777777777777778,0.222222222222222,0.777777777777778,18935,0.222222222222222,0.555555555555556,0.55,0.333333333333333,0.833333333333333,0.775,1,4,5
"1","2",42,"SpaceTime",0.777777777777778,1,0,0.777777777777778,19410,0.444444444444444,0.333333333333333,0.0833333333333333,0.666666666666667,0.5,0.541666666666667,2,1,4
"1","2",43,"SpaceSem",0.777777777777778,0.777777777777778,0.444444444444444,0.777777777777778,40179,0.222222222222222,0.222222222222222,0.5,0.333333333333333,0.333333333333333,0.75,2,1,4
"1","2",44,"Control",1,1,0.333333333333333,1,34859,0.444444444444444,0.222222222222222,0.65,0.666666666666667,0.333333333333333,0.825,2,1,4
"1","2",45,"SpaceSemTime",0.777777777777778,1,0.555555555555556,1,30179,0.666666666666667,0.666666666666667,0.916666666666667,1,1,0.958333333333333,3,2,3
"1","2",46,"TimeSem",1,1,0.111111111111111,1,25143,0,0.555555555555556,-0.0333333333333333,0,0.833333333333333,0.483333333333333,1,3,1
"1","2",47,"SpaceSem",0.777777777777778,1,0.111111111111111,1,22743,0.555555555555556,0.222222222222222,0.216666666666667,0.833333333333333,0.333333333333333,0.608333333333333,2,1,4
"1","2",48,"Control",1,1,0.444444444444444,1,18833,0.222222222222222,0.333333333333333,0.383333333333333,0.333333333333333,0.5,0.691666666666667,2,1,4
"1","2",49,"SpaceSemTime",0.777777777777778,1,0.666666666666667,1,21964,0.666666666666667,0.666666666666667,0.95,1,1,0.975,3,2,3
"1","2",50,"SpaceTime",1,1,0.111111111111111,1,24825,0.222222222222222,0.555555555555556,-0.1,0.333333333333333,0.833333333333333,0.45,1,4,5
"1","2",51,"SpaceSem",1,1,0.222222222222222,1,18322,0.333333333333333,0.333333333333333,0.383333333333333,0.5,0.5,0.691666666666667,2,1,4
"1","2",52,"SpaceTime",0.777777777777778,1,0.333333333333333,0.777777777777778,26920,0,0.666666666666667,0.95,0,1,0.975,1,3,1
"1","2",53,"Control",0.666666666666667,0.777777777777778,0,0.777777777777778,22758,0,0.222222222222222,0.65,0,0.333333333333333,0.825,2,1,4
"1","2",54,"TimeSem",0.777777777777778,0.777777777777778,0.333333333333333,1,19806,0.444444444444444,0.555555555555556,0.25,0.666666666666667,0.833333333333333,0.625,3,4,5
"1","2",55,"SpaceSemTime",1,1,0.111111111111111,1,17274,0.666666666666667,0.666666666666667,0.4,1,1,0.7,3,2,3
"1","2",56,"SpaceSem",1,1,0.111111111111111,1,25714,0.333333333333333,0.333333333333333,0.316666666666667,0.5,0.5,0.658333333333333,2,1,4
"1","2",57,"SpaceSemTime",1,1,0,1,23284,0.555555555555556,0.222222222222222,0.0666666666666667,0.833333333333333,0.333333333333333,0.533333333333333,2,1,4
"1","2",58,"Control",0.777777777777778,0.777777777777778,0.111111111111111,0.777777777777778,23585,0.222222222222222,0.555555555555556,0.0666666666666667,0.333333333333333,0.833333333333333,0.533333333333333,1,4,5
"1","2",59,"TimeSem",0.777777777777778,0.777777777777778,0.111111111111111,1,20153,0.444444444444444,0.555555555555556,0.416666666666667,0.666666666666667,0.833333333333333,0.708333333333333,3,4,3
"1","2",60,"SpaceTime",0.777777777777778,1,0.222222222222222,0.777777777777778,15269,0.222222222222222,0.333333333333333,0.533333333333333,0.333333333333333,0.5,0.766666666666667,2,1,4
"1","3",61,"SpaceSem",0.111111111111111,0.111111111111111,0,0.111111111111111,20271,0.222222222222222,0.222222222222222,-0.1,0.333333333333333,0.333333333333333,0.45,2,1,4
"1","3",62,"TimeSem",0.777777777777778,1,0.333333333333333,0.777777777777778,33030,0,0.666666666666667,0.1,0,1,0.55,1,3,1
"1","3",63,"SpaceTime",1,1,0.111111111111111,1,38001,0.444444444444444,0.333333333333333,0.15,0.666666666666667,0.5,0.575,2,1,4
"1","3",64,"Control",0.777777777777778,0.777777777777778,0.555555555555556,0.777777777777778,29956,0,0.555555555555556,0.333333333333333,0,0.833333333333333,0.666666666666667,1,3,1
"1","3",65,"SpaceSemTime",1,1,0.111111111111111,1,47757,0.222222222222222,0.555555555555556,0.6,0.333333333333333,0.833333333333333,0.8,1,4,5
"1","3",66,"TimeSem",0.777777777777778,0.777777777777778,0.222222222222222,1,22277,0.222222222222222,0.333333333333333,0.35,0.333333333333333,0.5,0.675,2,1,4
"1","3",67,"SpaceTime",1,1,0.111111111111111,1,24046,0.333333333333333,0.333333333333333,0.3,0.5,0.5,0.65,2,1,4
"1","3",68,"SpaceSemTime",1,1,0,1,50422,0.666666666666667,0.666666666666667,-0.433333333333333,1,1,0.283333333333333,3,2,2
"1","3",69,"Control",0.777777777777778,0.777777777777778,0.222222222222222,0.777777777777778,41566,0,0.555555555555556,0.0333333333333333,0,0.833333333333333,0.516666666666667,1,3,1
"1","3",70,"SpaceSem",0.777777777777778,0.777777777777778,0,0.777777777777778,20595,0.333333333333333,0.333333333333333,0.233333333333333,0.5,0.5,0.616666666666667,2,1,4
"1","3",71,"SpaceSemTime",1,1,0,1,18984,0.333333333333333,0.333333333333333,-0.366666666666667,0.5,0.5,0.316666666666667,2,1,4
"1","3",72,"Control",0.777777777777778,0.777777777777778,0.222222222222222,0.777777777777778,31883,0,0.333333333333333,0.516666666666667,0,0.5,0.758333333333333,1,3,1
"1","3",73,"SpaceSem",0.666666666666667,0.777777777777778,0.111111111111111,0.777777777777778,38134,0.555555555555556,0.666666666666667,0.116666666666667,0.833333333333333,1,0.558333333333333,3,2,3
"1","3",74,"TimeSem",1,1,0.333333333333333,1,23565,0.222222222222222,0.555555555555556,0.433333333333333,0.333333333333333,0.833333333333333,0.716666666666667,1,4,5
"1","3",75,"SpaceTime",1,1,0,1,39823,0,0.666666666666667,-0.966666666666667,0,1,0.0166666666666667,1,3,1
"1","3",76,"Control",0.777777777777778,0.777777777777778,0.333333333333333,0.777777777777778,21819,0,0.555555555555556,0.566666666666667,0,0.833333333333333,0.783333333333333,1,3,1
"1","3",77,"SpaceSem",0.777777777777778,0.777777777777778,0.222222222222222,0.777777777777778,20548,0.555555555555556,0.555555555555556,0.383333333333333,0.833333333333333,0.833333333333333,0.691666666666667,3,2,3
"1","3",78,"TimeSem",1,1,0.222222222222222,1,45232,0.333333333333333,0.333333333333333,0.35,0.5,0.5,0.675,2,1,4
"1","3",79,"SpaceSemTime",1,1,0,1,22496,0.666666666666667,0.666666666666667,0.366666666666667,1,1,0.683333333333333,3,2,3
"1","3",80,"SpaceTime",1,1,0.444444444444444,1,19650,0.444444444444444,0.555555555555556,0.866666666666667,0.666666666666667,0.833333333333333,0.933333333333333,3,4,3
"1","3",81,"SpaceSemTime",1,1,0.333333333333333,1,22914,0.333333333333333,0.333333333333333,0.566666666666667,0.5,0.5,0.783333333333333,2,1,4
"1","3",82,"TimeSem",1,1,0.111111111111111,1,18039,0.222222222222222,0.333333333333333,0.383333333333333,0.333333333333333,0.5,0.691666666666667,2,1,4
"1","3",83,"SpaceTime",1,1,0.111111111111111,1,39755,0,0.666666666666667,0.466666666666667,0,1,0.733333333333333,1,3,1
"1","3",84,"SpaceSem",0.777777777777778,0.777777777777778,0,0.777777777777778,21859,0.333333333333333,0.333333333333333,0.266666666666667,0.5,0.5,0.633333333333333,2,1,4
"1","3",85,"Control",0.666666666666667,0.666666666666667,0.111111111111111,0.666666666666667,33003,0.222222222222222,0.222222222222222,0.666666666666667,0.333333333333333,0.333333333333333,0.833333333333333,2,1,4
"1","3",86,"SpaceSemTime",1,1,0,1,98668,0.666666666666667,0.666666666666667,-0.45,1,1,0.275,3,2,2
"1","3",87,"SpaceSem",1,1,0.111111111111111,1,45656,0.444444444444444,0.222222222222222,0.55,0.666666666666667,0.333333333333333,0.775,2,1,4
"1","3",88,"SpaceTime",0.777777777777778,1,0,0.777777777777778,28792,0,0.666666666666667,0.483333333333333,0,1,0.741666666666667,1,3,1
"1","3",89,"TimeSem",0.777777777777778,0.777777777777778,0.111111111111111,1,103672,0.444444444444444,0.333333333333333,0.433333333333333,0.666666666666667,0.5,0.716666666666667,2,1,4
"1","3",90,"Control",1,1,0.111111111111111,1,18174,0.333333333333333,0.333333333333333,0.466666666666667,0.5,0.5,0.733333333333333,2,1,4
"2","1",1,"SpaceSem",0.777777777777778,1,0,1,26951,0.555555555555556,0.222222222222222,0.116666666666667,0.833333333333333,0.333333333333333,0.558333333333333,2,1,4
"2","1",2,"SpaceTime",0.555555555555556,0.666666666666667,0,0.777777777777778,36875,0.555555555555556,0.444444444444444,0.0333333333333333,0.833333333333333,0.666666666666667,0.516666666666667,3,2,3
"2","1",3,"TimeSem",0.222222222222222,0.666666666666667,0.222222222222222,0.444444444444444,29169,0.333333333333333,0.444444444444444,-0.0333333333333333,0.5,0.666666666666667,0.483333333333333,2,4,5
"2","1",4,"Control",1,1,0.111111111111111,1,31193,0,0.666666666666667,0.366666666666667,0,1,0.683333333333333,1,3,1
"2","1",5,"SpaceSemTime",0.222222222222222,0.777777777777778,0.111111111111111,0.777777777777778,34641,0.222222222222222,0.333333333333333,0.483333333333333,0.333333333333333,0.5,0.741666666666667,2,1,4
"2","1",6,"Control",1,1,0.111111111111111,1,30921,0,0.666666666666667,-0.266666666666667,0,1,0.366666666666667,1,3,1
"2","1",7,"SpaceTime",1,1,0.333333333333333,1,50659,0,0.666666666666667,0.9,0,1,0.95,1,3,1
"2","1",8,"TimeSem",1,1,0.111111111111111,1,35938,0.222222222222222,0.555555555555556,-0.1,0.333333333333333,0.833333333333333,0.45,1,4,5
"2","1",9,"SpaceSemTime",0.777777777777778,1,0.222222222222222,1,52032,0.333333333333333,0.333333333333333,0.416666666666667,0.5,0.5,0.708333333333333,2,1,4
"2","1",10,"SpaceSem",0.777777777777778,1,0.111111111111111,1,35145,0.666666666666667,0.666666666666667,-0.233333333333333,1,1,0.383333333333333,3,2,2
"2","1",11,"TimeSem",0.777777777777778,1,0.333333333333333,0.777777777777778,32421,0.222222222222222,0.555555555555556,-0.0833333333333333,0.333333333333333,0.833333333333333,0.458333333333333,1,4,5
"2","1",12,"SpaceSemTime",1,1,0,1,28774,0.666666666666667,0.666666666666667,0.483333333333333,1,1,0.741666666666667,3,2,3
"2","1",13,"Control",0.555555555555556,0.777777777777778,0,0.555555555555556,41590,0.222222222222222,0.666666666666667,0.0333333333333333,0.333333333333333,1,0.516666666666667,1,4,5
"2","1",14,"SpaceSem",0.777777777777778,1,0.222222222222222,1,32699,0.666666666666667,0.666666666666667,-0.166666666666667,1,1,0.416666666666667,3,2,2
"2","1",15,"SpaceTime",0.444444444444444,0.777777777777778,0.222222222222222,0.444444444444444,35827,0.222222222222222,0.666666666666667,-0.316666666666667,0.333333333333333,1,0.341666666666667,1,4,5
"2","1",16,"TimeSem",0.777777777777778,0.777777777777778,0.111111111111111,0.777777777777778,35080,0.222222222222222,0.666666666666667,0.05,0.333333333333333,1,0.525,1,4,5
"2","1",17,"SpaceTime",1,1,0,1,30475,0,0.666666666666667,-0.5,0,1,0.25,1,3,1
"2","1",18,"SpaceSemTime",1,1,0,1,29546,0.666666666666667,0.666666666666667,-0.4,1,1,0.3,3,2,2
"2","1",19,"SpaceSem",0.555555555555556,1,0.111111111111111,1,30587,0.666666666666667,0.666666666666667,-0.0666666666666667,1,1,0.466666666666667,3,2,2
"2","1",20,"Control",0.222222222222222,0.777777777777778,0.333333333333333,0.333333333333333,39358,0.222222222222222,0.444444444444444,0.25,0.333333333333333,0.666666666666667,0.625,2,4,5
"2","1",21,"TimeSem",0.444444444444444,0.777777777777778,0.333333333333333,0.444444444444444,32017,0,0.666666666666667,0.0166666666666667,0,1,0.508333333333333,1,3,1
"2","1",22,"SpaceSem",0.555555555555556,1,0.111111111111111,1,23799,0.555555555555556,0.222222222222222,0.333333333333333,0.833333333333333,0.333333333333333,0.666666666666667,2,1,4
"2","1",23,"Control",1,1,0,1,40492,0.555555555555556,0.444444444444444,-0.183333333333333,0.833333333333333,0.666666666666667,0.408333333333333,3,2,2
"2","1",24,"SpaceSemTime",1,1,0,1,29804,0.555555555555556,0.222222222222222,0.166666666666667,0.833333333333333,0.333333333333333,0.583333333333333,2,1,4
"2","1",25,"SpaceTime",0.777777777777778,1,0,0.777777777777778,37081,0,0.666666666666667,-0.516666666666667,0,1,0.241666666666667,1,3,1
"2","1",26,"TimeSem",0.777777777777778,1,0.111111111111111,0.777777777777778,32372,0,0.666666666666667,0.0833333333333333,0,1,0.541666666666667,1,3,1
"2","1",27,"SpaceSem",0.444444444444444,1,0.222222222222222,1,35307,0.666666666666667,0.666666666666667,0.25,1,1,0.625,3,2,3
"2","1",28,"SpaceSemTime",1,1,0,1,23699,0.666666666666667,0.666666666666667,-0.516666666666667,1,1,0.241666666666667,3,2,2
"2","1",29,"Control",0.555555555555556,0.777777777777778,0.222222222222222,0.555555555555556,36282,0.222222222222222,0.222222222222222,0.0833333333333333,0.333333333333333,0.333333333333333,0.541666666666667,2,1,4
"2","1",30,"SpaceTime",0.444444444444444,1,0,0.444444444444444,32041,0,0.666666666666667,-0.916666666666667,0,1,0.0416666666666667,1,3,1
"2","2",31,"Control",0.555555555555556,1,0.222222222222222,0.555555555555556,32551,0,0.666666666666667,0.2,0,1,0.6,1,3,1
"2","2",32,"SpaceSemTime",0.777777777777778,0.777777777777778,0,0.777777777777778,30227,0.555555555555556,0.666666666666667,-0.883333333333333,0.833333333333333,1,0.0583333333333333,3,2,2
"2","2",33,"SpaceSem",0.666666666666667,0.777777777777778,0.111111111111111,0.777777777777778,40736,0.555555555555556,0.666666666666667,-0.333333333333333,0.833333333333333,1,0.333333333333333,3,2,2
"2","2",34,"SpaceTime",0.555555555555556,0.777777777777778,0,0.555555555555556,44268,0.222222222222222,0.666666666666667,-0.166666666666667,0.333333333333333,1,0.416666666666667,1,4,5
"2","2",35,"TimeSem",0.777777777777778,1,0.222222222222222,0.777777777777778,29595,0,0.666666666666667,0.0666666666666667,0,1,0.533333333333333,1,3,1
"2","2",36,"Control",0.777777777777778,1,0.111111111111111,0.777777777777778,38559,0.444444444444444,0.333333333333333,0.233333333333333,0.666666666666667,0.5,0.616666666666667,2,1,4
"2","2",37,"SpaceSemTime",0.555555555555556,1,0,1,25510,0.666666666666667,0.666666666666667,0.433333333333333,1,1,0.716666666666667,3,2,3
"2","2",38,"TimeSem",1,1,0.222222222222222,1,36038,0,0.666666666666667,0.2,0,1,0.6,1,3,1
"2","2",39,"SpaceSem",0.777777777777778,1,0,1,31450,0.666666666666667,0.666666666666667,-0.166666666666667,1,1,0.416666666666667,3,2,2
"2","2",40,"SpaceTime",0.777777777777778,0.777777777777778,0.111111111111111,1,37946,0.444444444444444,0.555555555555556,-0.133333333333333,0.666666666666667,0.833333333333333,0.433333333333333,3,4,5
"2","2",41,"SpaceSemTime",0.777777777777778,1,0.333333333333333,1,27190,0.666666666666667,0.666666666666667,0.45,1,1,0.725,3,2,3
"2","2",42,"TimeSem",0.444444444444444,0.777777777777778,0,0.555555555555556,37579,0.444444444444444,0.222222222222222,-0.35,0.666666666666667,0.333333333333333,0.325,2,1,4
"2","2",43,"Control",0.777777777777778,1,0,0.777777777777778,28229,0,0.666666666666667,-0.183333333333333,0,1,0.408333333333333,1,3,1
"2","2",44,"SpaceTime",0.555555555555556,1,0.111111111111111,0.555555555555556,33974,0,0.666666666666667,0.433333333333333,0,1,0.716666666666667,1,3,1
"2","2",45,"SpaceSem",0.777777777777778,1,0,1,20979,0.666666666666667,0.666666666666667,0.1,1,1,0.55,3,2,3
"2","2",46,"TimeSem",1,1,0.222222222222222,1,54677,0.444444444444444,0.333333333333333,0.466666666666667,0.666666666666667,0.5,0.733333333333333,2,1,4
"2","2",47,"Control",0.666666666666667,1,0.111111111111111,0.666666666666667,30769,0,0.666666666666667,-0.483333333333333,0,1,0.258333333333333,1,3,1
"2","2",48,"SpaceSemTime",0.777777777777778,1,0.111111111111111,1,22237,0.555555555555556,0.222222222222222,-0.816666666666667,0.833333333333333,0.333333333333333,0.0916666666666667,2,1,4
"2","2",49,"SpaceSem",0.777777777777778,1,0.222222222222222,1,35968,0.555555555555556,0.222222222222222,-0.133333333333333,0.833333333333333,0.333333333333333,0.433333333333333,2,1,4
"2","2",50,"SpaceTime",0.666666666666667,0.777777777777778,0.111111111111111,0.777777777777778,44812,0.333333333333333,0.222222222222222,0.183333333333333,0.5,0.333333333333333,0.591666666666667,2,1,4
"2","2",51,"TimeSem",0.777777777777778,1,0,0.777777777777778,38652,0.222222222222222,0.555555555555556,-0.166666666666667,0.333333333333333,0.833333333333333,0.416666666666667,1,4,5
"2","2",52,"Control",0.111111111111111,0.777777777777778,0,0.222222222222222,38930,0.222222222222222,0.333333333333333,0.0333333333333333,0.333333333333333,0.5,0.516666666666667,2,1,4
"2","2",53,"SpaceSemTime",1,1,0,1,26661,0.666666666666667,0.666666666666667,-0.4,1,1,0.3,3,2,2
"2","2",54,"SpaceTime",1,1,0.111111111111111,1,37691,0,0.222222222222222,-0.25,0,0.333333333333333,0.375,2,1,4
"2","2",55,"SpaceSem",0.777777777777778,1,0.333333333333333,1,27530,0.555555555555556,0.555555555555556,0.166666666666667,0.833333333333333,0.833333333333333,0.583333333333333,3,2,3
"2","2",56,"Control",0.666666666666667,0.777777777777778,0,0.666666666666667,40274,0.444444444444444,0.222222222222222,-0.0833333333333333,0.666666666666667,0.333333333333333,0.458333333333333,2,1,4
"2","2",57,"TimeSem",0.555555555555556,0.777777777777778,0.111111111111111,0.555555555555556,40184,0,0.222222222222222,0.3,0,0.333333333333333,0.65,2,1,4
"2","2",58,"SpaceTime",0.444444444444444,1,0,0.444444444444444,28900,0,0.666666666666667,-0.483333333333333,0,1,0.258333333333333,1,3,1
"2","2",59,"SpaceSem",0.555555555555556,1,0.111111111111111,1,25730,0.666666666666667,0.666666666666667,0.05,1,1,0.525,3,2,2
"2","2",60,"SpaceSemTime",0.666666666666667,1,0,1,28323,0.666666666666667,0.666666666666667,-0.466666666666667,1,1,0.266666666666667,3,2,2
"2","3",61,"SpaceSem",0.111111111111111,0.333333333333333,0,0.333333333333333,26201,0.666666666666667,0.666666666666667,0,1,1,0.5,3,2,2
"2","3",62,"SpaceTime",0.666666666666667,1,0,0.666666666666667,33507,0,0.666666666666667,-0.433333333333333,0,1,0.283333333333333,1,3,1
"2","3",63,"SpaceSemTime",0.777777777777778,1,0.333333333333333,1,34609,0.666666666666667,0.666666666666667,0.483333333333333,1,1,0.741666666666667,3,2,3
"2","3",64,"TimeSem",0.666666666666667,1,0.111111111111111,0.666666666666667,35766,0,0.666666666666667,-0.05,0,1,0.475,1,3,1
"2","3",65,"Control",0.777777777777778,0.777777777777778,0.333333333333333,1,33256,0,0.666666666666667,0.333333333333333,0,1,0.666666666666667,1,3,1
"2","3",66,"SpaceSem",0.777777777777778,1,0,1,33122,0.666666666666667,0.666666666666667,0.216666666666667,1,1,0.608333333333333,3,2,3
"2","3",67,"TimeSem",0.555555555555556,0.777777777777778,0.111111111111111,0.777777777777778,42321,0.222222222222222,0.222222222222222,0.55,0.333333333333333,0.333333333333333,0.775,2,1,4
"2","3",68,"SpaceTime",0.333333333333333,0.777777777777778,0.111111111111111,0.555555555555556,39039,0.333333333333333,0.444444444444444,-0.166666666666667,0.5,0.666666666666667,0.416666666666667,2,4,5
"2","3",69,"Control",0.666666666666667,0.777777777777778,0,0.777777777777778,44365,0.222222222222222,0.333333333333333,-0.15,0.333333333333333,0.5,0.425,2,1,4
"2","3",70,"SpaceSemTime",0.777777777777778,1,0.222222222222222,1,26559,0.222222222222222,0.555555555555556,0.65,0.333333333333333,0.833333333333333,0.825,1,4,5
"2","3",71,"SpaceTime",0.444444444444444,0.777777777777778,0,0.555555555555556,25650,0.444444444444444,0.555555555555556,-0.45,0.666666666666667,0.833333333333333,0.275,3,4,2
"2","3",72,"SpaceSem",1,1,0.111111111111111,1,34887,0.333333333333333,0.333333333333333,0.283333333333333,0.5,0.5,0.641666666666667,2,1,4
"2","3",73,"SpaceSemTime",0.555555555555556,1,0,1,24150,0.222222222222222,0.555555555555556,-0.666666666666667,0.333333333333333,0.833333333333333,0.166666666666667,1,4,5
"2","3",74,"Control",0.777777777777778,0.777777777777778,0.222222222222222,0.777777777777778,28867,0,0.555555555555556,0.183333333333333,0,0.833333333333333,0.591666666666667,1,3,1
"2","3",75,"TimeSem",1,1,0.222222222222222,1,29573,0.444444444444444,0.555555555555556,0.516666666666667,0.666666666666667,0.833333333333333,0.758333333333333,3,4,3
"2","3",76,"SpaceSem",0.444444444444444,1,0.111111111111111,1,38732,0.222222222222222,0.222222222222222,0.216666666666667,0.333333333333333,0.333333333333333,0.608333333333333,2,1,4
"2","3",77,"SpaceSemTime",0.666666666666667,1,0,1,26893,0.666666666666667,0.666666666666667,-0.466666666666667,1,1,0.266666666666667,3,2,2
"2","3",78,"TimeSem",0.555555555555556,1,0.111111111111111,0.555555555555556,33221,0,0.666666666666667,0.0166666666666667,0,1,0.508333333333333,1,3,1
"2","3",79,"Control",0.666666666666667,0.777777777777778,0.111111111111111,0.777777777777778,43054,0,0.222222222222222,-0.05,0,0.333333333333333,0.475,2,1,4
"2","3",80,"SpaceTime",0.555555555555556,0.777777777777778,0,0.666666666666667,31814,0.222222222222222,0.222222222222222,-0.733333333333333,0.333333333333333,0.333333333333333,0.133333333333333,2,1,4
"2","3",81,"SpaceSemTime",0.666666666666667,1,0.111111111111111,1,24236,0.666666666666667,0.666666666666667,-0.833333333333333,1,1,0.0833333333333333,3,2,2
"2","3",82,"SpaceTime",1,1,0,1,30172,0,0.666666666666667,-0.883333333333333,0,1,0.0583333333333333,1,3,1
"2","3",83,"Control",0.555555555555556,0.777777777777778,0.111111111111111,0.555555555555556,43183,0,0.555555555555556,-0.366666666666667,0,0.833333333333333,0.316666666666667,1,3,1
"2","3",84,"SpaceSem",0.777777777777778,1,0.222222222222222,1,25850,0.666666666666667,0.666666666666667,0.266666666666667,1,1,0.633333333333333,3,2,3
"2","3",85,"TimeSem",1,1,0.111111111111111,1,30819,0.222222222222222,0.222222222222222,0.05,0.333333333333333,0.333333333333333,0.525,2,1,4
"2","3",86,"Control",0.555555555555556,0.555555555555556,0,0.666666666666667,31538,0.222222222222222,0.222222222222222,0.0166666666666667,0.333333333333333,0.333333333333333,0.508333333333333,2,1,4
"2","3",87,"SpaceSemTime",0.777777777777778,1,0,1,26315,0.666666666666667,0.666666666666667,0.383333333333333,1,1,0.691666666666667,3,2,3
"2","3",88,"SpaceSem",0.666666666666667,1,0.222222222222222,1,33434,0.666666666666667,0.666666666666667,0.55,1,1,0.775,3,2,3
"2","3",89,"SpaceTime",0.444444444444444,1,0,0.444444444444444,29525,0,0.666666666666667,-0.433333333333333,0,1,0.283333333333333,1,3,1
"2","3",90,"TimeSem",0.555555555555556,1,0.111111111111111,0.555555555555556,32089,0,0.666666666666667,0.316666666666667,0,1,0.658333333333333,1,3,1
"3","1",1,"SpaceSemTime",0.444444444444444,1,0,1,36519,0.666666666666667,0.666666666666667,-0.5,1,1,0.25,3,2,2
"3","1",2,"TimeSem",0.555555555555556,0.666666666666667,0,0.777777777777778,37521,0.333333333333333,0.444444444444444,-0.266666666666667,0.5,0.666666666666667,0.366666666666667,2,4,5
"3","1",3,"Control",0.444444444444444,0.555555555555556,0.222222222222222,0.777777777777778,42721,0.222222222222222,0.222222222222222,0.2,0.333333333333333,0.333333333333333,0.6,2,1,4
"3","1",4,"SpaceTime",0.555555555555556,0.666666666666667,0,0.555555555555556,36510,0.222222222222222,0.444444444444444,0.55,0.333333333333333,0.666666666666667,0.775,2,4,5
"3","1",5,"SpaceSem",1,1,0,1,36087,0.555555555555556,0.222222222222222,0.283333333333333,0.833333333333333,0.333333333333333,0.641666666666667,2,1,4
"3","1",6,"Control",0.555555555555556,0.666666666666667,0.111111111111111,0.666666666666667,39178,0.333333333333333,0.222222222222222,-0.0666666666666667,0.5,0.333333333333333,0.466666666666667,2,1,4
"3","1",7,"SpaceTime",1,1,0,1,46482,0.222222222222222,0.333333333333333,0.35,0.333333333333333,0.5,0.675,2,1,4
"3","1",8,"SpaceSemTime",1,1,0,1,30014,0.222222222222222,0.444444444444444,-0.3,0.333333333333333,0.666666666666667,0.35,2,4,5
"3","1",9,"TimeSem",0.444444444444444,0.666666666666667,0,0.555555555555556,31410,0.333333333333333,0.444444444444444,-0.6,0.5,0.666666666666667,0.2,2,4,5
"3","1",10,"SpaceSem",0.666666666666667,1,0.111111111111111,1,33370,0.666666666666667,0.666666666666667,-0.0166666666666667,1,1,0.491666666666667,3,2,2
"3","1",11,"SpaceSemTime",1,1,0.222222222222222,1,38199,0.222222222222222,0.555555555555556,0.716666666666667,0.333333333333333,0.833333333333333,0.858333333333333,1,4,5
"3","1",12,"SpaceTime",1,1,0.111111111111111,1,34518,0.222222222222222,0.444444444444444,-0.533333333333333,0.333333333333333,0.666666666666667,0.233333333333333,2,4,5
"3","1",13,"Control",1,1,0,1,33858,0.222222222222222,0.333333333333333,0.35,0.333333333333333,0.5,0.675,2,1,4
"3","1",14,"TimeSem",1,1,0.222222222222222,1,32796,0.333333333333333,0.222222222222222,0.283333333333333,0.5,0.333333333333333,0.641666666666667,2,1,4
"3","1",15,"SpaceSem",1,1,0,1,33151,0.222222222222222,0.222222222222222,0.166666666666667,0.333333333333333,0.333333333333333,0.583333333333333,2,1,4
"3","1",16,"TimeSem",1,1,0.444444444444444,1,31476,0.333333333333333,0.222222222222222,0.316666666666667,0.5,0.333333333333333,0.658333333333333,2,1,4
"3","1",17,"SpaceSem",1,1,0,1,48278,0.222222222222222,0.444444444444444,-0.2,0.333333333333333,0.666666666666667,0.4,2,4,5
"3","1",18,"Control",0.222222222222222,0.333333333333333,0.111111111111111,0.333333333333333,44583,0.222222222222222,0.333333333333333,0.383333333333333,0.333333333333333,0.5,0.691666666666667,2,1,4
"3","1",19,"SpaceSemTime",1,1,0,1,29960,0.555555555555556,0.222222222222222,-0.933333333333333,0.833333333333333,0.333333333333333,0.0333333333333333,2,1,4
"3","1",20,"SpaceTime",0.555555555555556,0.555555555555556,0.111111111111111,0.777777777777778,40782,0.222222222222222,0.222222222222222,-0.266666666666667,0.333333333333333,0.333333333333333,0.366666666666667,2,1,4
"3","1",21,"SpaceTime",0.333333333333333,0.444444444444444,0.333333333333333,0.555555555555556,44027,0.222222222222222,0.333333333333333,0.833333333333333,0.333333333333333,0.5,0.916666666666667,2,1,4
"3","1",22,"Control",0.666666666666667,0.777777777777778,0.111111111111111,0.777777777777778,43979,0.444444444444444,0.333333333333333,0.45,0.666666666666667,0.5,0.725,2,1,4
"3","1",23,"TimeSem",0.555555555555556,0.555555555555556,0.333333333333333,0.777777777777778,33996,0.555555555555556,0.555555555555556,0.75,0.833333333333333,0.833333333333333,0.875,3,2,3
"3","1",24,"SpaceSemTime",0.222222222222222,0.777777777777778,0.555555555555556,0.777777777777778,37554,0.333333333333333,0.222222222222222,0.483333333333333,0.5,0.333333333333333,0.741666666666667,2,1,4
"3","1",25,"SpaceSem",0.333333333333333,0.777777777777778,0,0.777777777777778,45878,0.333333333333333,0.222222222222222,-0.45,0.5,0.333333333333333,0.275,2,1,4
"3","1",26,"TimeSem",1,1,0.222222222222222,1,34455,0,0.222222222222222,0.183333333333333,0,0.333333333333333,0.591666666666667,2,1,4
"3","1",27,"Control",0.555555555555556,0.555555555555556,0.111111111111111,0.777777777777778,38521,0,0.222222222222222,0.116666666666667,0,0.333333333333333,0.558333333333333,2,1,4
"3","1",28,"SpaceSemTime",0.555555555555556,1,0,1,28225,0.666666666666667,0.666666666666667,0.483333333333333,1,1,0.741666666666667,3,2,3
"3","1",29,"SpaceTime",0.555555555555556,0.777777777777778,0.111111111111111,0.666666666666667,31689,0.222222222222222,0.222222222222222,0.45,0.333333333333333,0.333333333333333,0.725,2,1,4
"3","1",30,"SpaceSem",0.444444444444444,0.777777777777778,0.111111111111111,0.777777777777778,33940,0.222222222222222,0.333333333333333,0.0333333333333333,0.333333333333333,0.5,0.516666666666667,2,1,4
"3","2",31,"SpaceSemTime",0.777777777777778,1,0,1,52470,0.666666666666667,0.666666666666667,0.416666666666667,1,1,0.708333333333333,3,2,3
"3","2",32,"SpaceSem",0.444444444444444,0.777777777777778,0.333333333333333,0.777777777777778,35254,0.222222222222222,0.333333333333333,-0.0166666666666667,0.333333333333333,0.5,0.491666666666667,2,1,4
"3","2",33,"Control",0.777777777777778,0.777777777777778,0.333333333333333,0.777777777777778,35313,0,0.333333333333333,0.516666666666667,0,0.5,0.758333333333333,1,3,1
"3","2",34,"TimeSem",0.555555555555556,0.555555555555556,0,0.666666666666667,51700,0.333333333333333,0.222222222222222,0.4,0.5,0.333333333333333,0.7,2,1,4
"3","2",35,"SpaceTime",0.555555555555556,0.777777777777778,0.111111111111111,0.777777777777778,38666,0.222222222222222,0.333333333333333,0.233333333333333,0.333333333333333,0.5,0.616666666666667,2,1,4
"3","2",36,"SpaceSemTime",1,1,0.111111111111111,1,24687,0.555555555555556,0.222222222222222,0.166666666666667,0.833333333333333,0.333333333333333,0.583333333333333,2,1,4
"3","2",37,"Control",0.666666666666667,0.777777777777778,0,0.777777777777778,54746,0.222222222222222,0,-0.583333333333333,0.333333333333333,0,0.208333333333333,2,1,4
"3","2",38,"SpaceSem",0.666666666666667,0.777777777777778,0,0.777777777777778,45629,0.444444444444444,0.333333333333333,-0.116666666666667,0.666666666666667,0.5,0.441666666666667,2,1,4
"3","2",39,"TimeSem",0.777777777777778,0.777777777777778,0.111111111111111,1,40628,0.555555555555556,0,0.583333333333333,0.833333333333333,0,0.791666666666667,2,1,4
"3","2",40,"SpaceTime",0.444444444444444,0.444444444444444,0.111111111111111,0.555555555555556,30368,0.222222222222222,0.666666666666667,-0.266666666666667,0.333333333333333,1,0.366666666666667,1,4,5
"3","2",41,"TimeSem",1,1,0.111111111111111,1,33220,0.333333333333333,0.222222222222222,-0.4,0.5,0.333333333333333,0.3,2,1,4
"3","2",42,"Control",0.555555555555556,0.666666666666667,0,0.666666666666667,36367,0.333333333333333,0.222222222222222,0.333333333333333,0.5,0.333333333333333,0.666666666666667,2,1,4
"3","2",43,"SpaceTime",0.555555555555556,0.555555555555556,0.111111111111111,1,34756,0.222222222222222,0.222222222222222,0.616666666666667,0.333333333333333,0.333333333333333,0.808333333333333,2,1,4
"3","2",44,"SpaceSemTime",0.777777777777778,1,0.444444444444444,1,25689,0.666666666666667,0.666666666666667,0.933333333333333,1,1,0.966666666666667,3,2,3
"3","2",45,"SpaceSem",0.666666666666667,0.777777777777778,0.333333333333333,0.777777777777778,37596,0.555555555555556,0.222222222222222,0.1,0.833333333333333,0.333333333333333,0.55,2,1,4
"3","2",46,"SpaceSemTime",1,1,0,1,30873,0.666666666666667,0.666666666666667,-0.466666666666667,1,1,0.266666666666667,3,2,2
"3","2",47,"Control",0.444444444444444,0.777777777777778,0,0.666666666666667,33586,0.444444444444444,0.555555555555556,0.383333333333333,0.666666666666667,0.833333333333333,0.691666666666667,3,4,3
"3","2",48,"SpaceTime",0.555555555555556,0.666666666666667,0.111111111111111,0.666666666666667,31207,0.222222222222222,0.555555555555556,0.216666666666667,0.333333333333333,0.833333333333333,0.608333333333333,1,4,5
"3","2",49,"TimeSem",0.777777777777778,1,0.222222222222222,0.777777777777778,51141,0.333333333333333,0.222222222222222,-0.133333333333333,0.5,0.333333333333333,0.433333333333333,2,1,4
"3","2",50,"SpaceSem",0.444444444444444,1,0,1,36935,0.555555555555556,0.555555555555556,-0.05,0.833333333333333,0.833333333333333,0.475,3,2,2
"3","2",51,"TimeSem",0.444444444444444,0.555555555555556,0,0.777777777777778,37571,0.222222222222222,0.333333333333333,-0.266666666666667,0.333333333333333,0.5,0.366666666666667,2,1,4
"3","2",52,"SpaceTime",1,1,0,1,36235,0.222222222222222,0.333333333333333,0.0333333333333333,0.333333333333333,0.5,0.516666666666667,2,1,4
"3","2",53,"SpaceSemTime",0.777777777777778,1,0.555555555555556,1,33988,0.666666666666667,0.666666666666667,0.966666666666667,1,1,0.983333333333333,3,2,3
"3","2",54,"SpaceSem",0.666666666666667,1,0,1,27350,0.666666666666667,0.666666666666667,0.0333333333333333,1,1,0.516666666666667,3,2,2
"3","2",55,"Control",0.777777777777778,0.777777777777778,0.111111111111111,1,40077,0.555555555555556,0,-0.0166666666666667,0.833333333333333,0,0.491666666666667,2,1,4
"3","2",56,"SpaceTime",0.555555555555556,0.777777777777778,0.111111111111111,0.555555555555556,36888,0.222222222222222,0.222222222222222,0.0166666666666667,0.333333333333333,0.333333333333333,0.508333333333333,2,1,4
"3","2",57,"SpaceSem",0.444444444444444,0.555555555555556,0.222222222222222,0.555555555555556,42995,0.333333333333333,0.444444444444444,-0.2,0.5,0.666666666666667,0.4,2,4,5
"3","2",58,"TimeSem",0.777777777777778,0.777777777777778,0,0.777777777777778,28829,0.222222222222222,0.555555555555556,-0.0333333333333333,0.333333333333333,0.833333333333333,0.483333333333333,1,4,5
"3","2",59,"Control",0.555555555555556,0.666666666666667,0,0.777777777777778,42899,0.222222222222222,0,-0.0666666666666667,0.333333333333333,0,0.466666666666667,2,1,4
"3","2",60,"SpaceSemTime",0.555555555555556,1,0,1,45682,0.222222222222222,0.222222222222222,0.65,0.333333333333333,0.333333333333333,0.825,2,1,4
"3","3",61,"SpaceSem",1,1,0.111111111111111,1,43985,0.666666666666667,0.666666666666667,0.0166666666666667,1,1,0.508333333333333,3,2,2
"3","3",62,"TimeSem",1,1,0.222222222222222,1,53878,0.222222222222222,0.222222222222222,-0.633333333333333,0.333333333333333,0.333333333333333,0.183333333333333,2,1,4
"3","3",63,"Control",1,1,0.111111111111111,1,44435,0.444444444444444,0.444444444444444,0.25,0.666666666666667,0.666666666666667,0.625,2,4,5
"3","3",64,"SpaceTime",0.777777777777778,0.777777777777778,0,1,30631,0.444444444444444,0.333333333333333,-0.433333333333333,0.666666666666667,0.5,0.283333333333333,2,1,4
"3","3",65,"SpaceSemTime",1,1,0.111111111111111,1,27398,0.222222222222222,0.444444444444444,-0.483333333333333,0.333333333333333,0.666666666666667,0.258333333333333,2,4,5
"3","3",66,"TimeSem",1,1,0.111111111111111,1,32773,0.222222222222222,0.555555555555556,-0.1,0.333333333333333,0.833333333333333,0.45,1,4,5
"3","3",67,"SpaceSem",1,1,0.111111111111111,1,24667,0.555555555555556,0.555555555555556,0.233333333333333,0.833333333333333,0.833333333333333,0.616666666666667,3,2,3
"3","3",68,"Control",1,1,0,1,37201,0,0.555555555555556,0.316666666666667,0,0.833333333333333,0.658333333333333,1,3,1
"3","3",69,"SpaceSemTime",1,1,0,1,40648,0.333333333333333,0.333333333333333,0.216666666666667,0.5,0.5,0.608333333333333,2,1,4
"3","3",70,"SpaceTime",1,1,0,1,30991,0.333333333333333,0.222222222222222,0.0666666666666667,0.5,0.333333333333333,0.533333333333333,2,1,4
"3","3",71,"SpaceSemTime",0.777777777777778,1,0,1,30066,0.555555555555556,0.555555555555556,-0.2,0.833333333333333,0.833333333333333,0.4,3,2,2
"3","3",72,"SpaceTime",0.555555555555556,0.777777777777778,0.111111111111111,0.666666666666667,45351,0.333333333333333,0.222222222222222,0.383333333333333,0.5,0.333333333333333,0.691666666666667,2,1,4
"3","3",73,"SpaceSem",1,1,0,1,24519,0.222222222222222,0.555555555555556,-0.333333333333333,0.333333333333333,0.833333333333333,0.333333333333333,1,4,5
"3","3",74,"TimeSem",1,1,0.111111111111111,1,31081,0.222222222222222,0.555555555555556,-0.216666666666667,0.333333333333333,0.833333333333333,0.391666666666667,1,4,5
"3","3",75,"Control",1,1,0.111111111111111,1,27963,0.444444444444444,0.555555555555556,0.0166666666666667,0.666666666666667,0.833333333333333,0.508333333333333,3,4,5
"3","3",76,"TimeSem",0.777777777777778,1,0,0.777777777777778,31260,0.222222222222222,0.555555555555556,-0.316666666666667,0.333333333333333,0.833333333333333,0.341666666666667,1,4,5
"3","3",77,"SpaceSemTime",1,1,0.333333333333333,1,29303,0.666666666666667,0.666666666666667,-0.8,1,1,0.1,3,2,2
"3","3",78,"Control",1,1,0,1,28932,0.222222222222222,0.444444444444444,0.2,0.333333333333333,0.666666666666667,0.6,2,4,5
"3","3",79,"SpaceSem",1,1,0.333333333333333,1,23645,0.222222222222222,0.555555555555556,0.283333333333333,0.333333333333333,0.833333333333333,0.641666666666667,1,4,5
"3","3",80,"SpaceTime",0.666666666666667,0.777777777777778,0.111111111111111,0.666666666666667,29013,0.222222222222222,0.222222222222222,0.466666666666667,0.333333333333333,0.333333333333333,0.733333333333333,2,1,4
"3","3",81,"TimeSem",1,1,0.111111111111111,1,28378,0,0.333333333333333,0,0,0.5,0.5,1,3,1
"3","3",82,"SpaceSem",0.777777777777778,1,0.111111111111111,1,22887,0.222222222222222,0.555555555555556,-0.1,0.333333333333333,0.833333333333333,0.45,1,4,5
"3","3",83,"SpaceSemTime",1,1,0.111111111111111,1,23102,0.555555555555556,0.555555555555556,-0.0666666666666667,0.833333333333333,0.833333333333333,0.466666666666667,3,2,2
"3","3",84,"SpaceTime",0.555555555555556,0.777777777777778,0,0.555555555555556,31292,0,0.555555555555556,-0.266666666666667,0,0.833333333333333,0.366666666666667,1,3,1
"3","3",85,"Control",0.666666666666667,1,0.111111111111111,0.666666666666667,36740,0.333333333333333,0.222222222222222,-0.183333333333333,0.5,0.333333333333333,0.408333333333333,2,1,4
"3","3",86,"SpaceSemTime",1,1,0.111111111111111,1,25565,0.555555555555556,0.555555555555556,-0.716666666666667,0.833333333333333,0.833333333333333,0.141666666666667,3,2,2
"3","3",87,"SpaceSem",1,1,0.222222222222222,1,24929,0.222222222222222,0.555555555555556,-0.05,0.333333333333333,0.833333333333333,0.475,1,4,5
"3","3",88,"TimeSem",1,1,0,1,25037,0.444444444444444,0.333333333333333,0.416666666666667,0.666666666666667,0.5,0.708333333333333,2,1,4
"3","3",89,"Control",0.666666666666667,0.777777777777778,0.111111111111111,0.777777777777778,26475,0.222222222222222,0.555555555555556,-0.166666666666667,0.333333333333333,0.833333333333333,0.416666666666667,1,4,5
"3","3",90,"SpaceTime",0.777777777777778,1,0.111111111111111,0.777777777777778,31604,0.222222222222222,0.333333333333333,-0.383333333333333,0.333333333333333,0.5,0.308333333333333,2,1,4
"4","1",1,"TimeSem",0.333333333333333,0.666666666666667,0,0.444444444444444,36272,0,0.555555555555556,-0.15,0,0.833333333333333,0.425,1,3,1
"4","1",2,"SpaceSemTime",1,1,0,1,43774,0.666666666666667,0.666666666666667,-0.4,1,1,0.3,3,2,2
"4","1",3,"SpaceTime",1,1,0.333333333333333,1,51549,0.444444444444444,0.555555555555556,0.583333333333333,0.666666666666667,0.833333333333333,0.791666666666667,3,4,3
"4","1",4,"Control",1,1,0.333333333333333,1,40530,0,0.666666666666667,-0.366666666666667,0,1,0.316666666666667,1,3,1
"4","1",5,"SpaceSem",1,1,0.333333333333333,1,44219,0.555555555555556,0.222222222222222,0.366666666666667,0.833333333333333,0.333333333333333,0.683333333333333,2,1,4
"4","1",6,"Control",1,1,0.333333333333333,1,53030,0.222222222222222,0.555555555555556,-0.05,0.333333333333333,0.833333333333333,0.475,1,4,5
"4","1",7,"TimeSem",1,1,0.111111111111111,1,51354,0,0.222222222222222,0.0666666666666667,0,0.333333333333333,0.533333333333333,2,1,4
"4","1",8,"SpaceSem",1,1,0,1,60603,0.555555555555556,0.555555555555556,0.283333333333333,0.833333333333333,0.833333333333333,0.641666666666667,3,2,3
"4","1",9,"SpaceTime",1,1,0.111111111111111,1,46070,0.222222222222222,0.555555555555556,0.6,0.333333333333333,0.833333333333333,0.8,1,4,5
"4","1",10,"SpaceSemTime",1,1,0.555555555555556,1,53522,0.555555555555556,0.555555555555556,0.55,0.833333333333333,0.833333333333333,0.775,3,2,3
"4","1",11,"TimeSem",1,1,0.222222222222222,1,43019,0,0.555555555555556,0.133333333333333,0,0.833333333333333,0.566666666666667,1,3,1
"4","1",12,"SpaceSemTime",1,1,0.222222222222222,1,42037,0.666666666666667,0.666666666666667,0.916666666666667,1,1,0.958333333333333,3,2,3
"4","1",13,"Control",1,1,0,1,46263,0.222222222222222,0.555555555555556,0.05,0.333333333333333,0.833333333333333,0.525,1,4,5
"4","1",14,"SpaceSem",0.777777777777778,1,0.222222222222222,1,45198,0.666666666666667,0.666666666666667,-0.333333333333333,1,1,0.333333333333333,3,2,2
"4","1",15,"SpaceTime",1,1,0,1,50977,0.222222222222222,0.555555555555556,-0.933333333333333,0.333333333333333,0.833333333333333,0.0333333333333333,1,4,5
"4","1",16,"TimeSem",1,1,0.111111111111111,1,40497,0,0.666666666666667,0.166666666666667,0,1,0.583333333333333,1,3,1
"4","1",17,"SpaceTime",1,1,0.111111111111111,1,46019,0,0.666666666666667,0.466666666666667,0,1,0.733333333333333,1,3,1
"4","1",18,"SpaceSemTime",1,1,0.111111111111111,1,48502,0.666666666666667,0.666666666666667,0.4,1,1,0.7,3,2,3
"4","1",19,"Control",1,1,0,1,43602,0.222222222222222,0.555555555555556,-0.183333333333333,0.333333333333333,0.833333333333333,0.408333333333333,1,4,5
"4","1",20,"SpaceSem",1,1,0,1,46903,0.222222222222222,0.555555555555556,-0.116666666666667,0.333333333333333,0.833333333333333,0.441666666666667,1,4,5
"4","1",21,"SpaceSemTime",1,1,0,1,41411,0.666666666666667,0.666666666666667,-0.366666666666667,1,1,0.316666666666667,3,2,2
"4","1",22,"SpaceSem",1,1,0.111111111111111,1,47179,0.666666666666667,0.666666666666667,0.3,1,1,0.65,3,2,3
"4","1",23,"SpaceTime",1,1,0.111111111111111,1,86816,0,0.666666666666667,-0.95,0,1,0.025,1,3,1
"4","1",24,"Control",1,1,0.111111111111111,1,143944,0,0.666666666666667,-0.166666666666667,0,1,0.416666666666667,1,3,1
"4","1",25,"TimeSem",1,1,0,1,44874,0.444444444444444,0.555555555555556,-0.05,0.666666666666667,0.833333333333333,0.475,3,4,5
"4","1",26,"SpaceSemTime",1,1,0,1,36999,0.666666666666667,0.666666666666667,-0.366666666666667,1,1,0.316666666666667,3,2,2
"4","1",27,"TimeSem",0.777777777777778,1,0.222222222222222,0.777777777777778,44091,0.222222222222222,0.555555555555556,0.266666666666667,0.333333333333333,0.833333333333333,0.633333333333333,1,4,5
"4","1",28,"Control",1,1,0.333333333333333,1,52788,0.222222222222222,0.555555555555556,0.333333333333333,0.333333333333333,0.833333333333333,0.666666666666667,1,4,5
"4","1",29,"SpaceTime",1,1,0,1,55112,0,0.666666666666667,0.433333333333333,0,1,0.716666666666667,1,3,1
"4","1",30,"SpaceSem",1,1,0.111111111111111,1,44297,0.666666666666667,0.666666666666667,-0.05,1,1,0.475,3,2,2
"4","2",31,"SpaceSemTime",1,1,0.111111111111111,1,50214,0.666666666666667,0.666666666666667,-0.883333333333333,1,1,0.0583333333333333,3,2,2
"4","2",32,"Control",1,1,0.222222222222222,1,49957,0,0.666666666666667,0.0666666666666667,0,1,0.533333333333333,1,3,1
"4","2",33,"SpaceSem",1,1,0.222222222222222,1,46383,0.666666666666667,0.666666666666667,0.0333333333333333,1,1,0.516666666666667,3,2,2
"4","2",34,"SpaceTime",0.777777777777778,1,0.222222222222222,0.777777777777778,48548,0,0.666666666666667,0.866666666666667,0,1,0.933333333333333,1,3,1
"4","2",35,"TimeSem",1,1,0.222222222222222,1,49743,0.222222222222222,0.555555555555556,-0.2,0.333333333333333,0.833333333333333,0.4,1,4,5
"4","2",36,"SpaceTime",1,1,0.111111111111111,1,48263,0,0.666666666666667,0.433333333333333,0,1,0.716666666666667,1,3,1
"4","2",37,"TimeSem",0.777777777777778,1,0.333333333333333,0.777777777777778,59185,0,0.666666666666667,0.233333333333333,0,1,0.616666666666667,1,3,1
"4","2",38,"SpaceSemTime",1,1,0,1,53024,0.666666666666667,0.666666666666667,-0.416666666666667,1,1,0.291666666666667,3,2,2
"4","2",39,"SpaceSem",0.777777777777778,1,0.222222222222222,1,47456,0.666666666666667,0.666666666666667,-0.383333333333333,1,1,0.308333333333333,3,2,2
"4","2",40,"Control",1,1,0.111111111111111,1,45821,0,0.666666666666667,-0.0666666666666667,0,1,0.466666666666667,1,3,1
"4","2",41,"SpaceTime",1,1,0,1,49138,0.444444444444444,0.555555555555556,-0.15,0.666666666666667,0.833333333333333,0.425,3,4,5
"4","2",42,"SpaceSem",1,1,0.111111111111111,1,52595,0.666666666666667,0.666666666666667,-0.15,1,1,0.425,3,2,2
"4","2",43,"TimeSem",1,1,0.111111111111111,1,47913,0,0.666666666666667,0.133333333333333,0,1,0.566666666666667,1,3,1
"4","2",44,"Control",1,1,0,1,44678,0,0.666666666666667,0.15,0,1,0.575,1,3,1
"4","2",45,"SpaceSemTime",1,1,0,1,58196,0.666666666666667,0.666666666666667,-0.483333333333333,1,1,0.258333333333333,3,2,2
"4","2",46,"TimeSem",1,1,0,1,44718,0,0.666666666666667,-0.1,0,1,0.45,1,3,1
"4","2",47,"Control",1,1,0.111111111111111,1,58451,0,0.666666666666667,0.266666666666667,0,1,0.633333333333333,1,3,1
"4","2",48,"SpaceTime",0.666666666666667,1,0.333333333333333,0.666666666666667,47902,0,0.666666666666667,0.9,0,1,0.95,1,3,1
"4","2",49,"SpaceSem",1,1,0.111111111111111,1,47011,0.666666666666667,0.666666666666667,0,1,1,0.5,3,2,2
"4","2",50,"SpaceSemTime",1,1,0,1,55217,0.666666666666667,0.666666666666667,-0.483333333333333,1,1,0.258333333333333,3,2,2
"4","2",51,"SpaceSemTime",1,1,0.111111111111111,1,53408,0.666666666666667,0.666666666666667,0.416666666666667,1,1,0.708333333333333,3,2,3
"4","2",52,"Control",1,1,0.111111111111111,1,45888,0,0.666666666666667,-0.05,0,1,0.475,1,3,1
"4","2",53,"SpaceTime",1,1,0,1,56273,0,0.666666666666667,-0.516666666666667,0,1,0.241666666666667,1,3,1
"4","2",54,"SpaceSem",1,1,0.111111111111111,1,51957,0.666666666666667,0.666666666666667,-0.183333333333333,1,1,0.408333333333333,3,2,2
"4","2",55,"TimeSem",1,1,0.111111111111111,1,49560,0,0.666666666666667,0.15,0,1,0.575,1,3,1
"4","2",56,"SpaceSem",1,1,0.111111111111111,1,48610,0.666666666666667,0.666666666666667,0.166666666666667,1,1,0.583333333333333,3,2,3
"4","2",57,"SpaceSemTime",1,1,0.444444444444444,1,55941,0.666666666666667,0.666666666666667,0.883333333333333,1,1,0.941666666666667,3,2,3
"4","2",58,"TimeSem",1,1,0.222222222222222,1,45759,0,0.666666666666667,-0.316666666666667,0,1,0.341666666666667,1,3,1
"4","2",59,"SpaceTime",1,1,0.222222222222222,1,38550,0,0.666666666666667,0.916666666666667,0,1,0.958333333333333,1,3,1
"4","2",60,"Control",1,1,0,1,50017,0,0.666666666666667,-0.0833333333333333,0,1,0.458333333333333,1,3,1
"4","3",61,"SpaceSemTime",1,1,0,1,48398,0.666666666666667,0.666666666666667,-0.433333333333333,1,1,0.283333333333333,3,2,2
"4","3",62,"TimeSem",1,1,0,1,57196,0,0.666666666666667,-0.0833333333333333,0,1,0.458333333333333,1,3,1
"4","3",63,"Control",1,1,0.222222222222222,1,62236,0.222222222222222,0.555555555555556,-0.45,0.333333333333333,0.833333333333333,0.275,1,4,5
"4","3",64,"SpaceTime",1,1,0,1,63998,0,0.666666666666667,-0.483333333333333,0,1,0.258333333333333,1,3,1
"4","3",65,"SpaceSem",1,1,0.111111111111111,1,61277,0.555555555555556,0.222222222222222,-0.116666666666667,0.833333333333333,0.333333333333333,0.441666666666667,2,1,4
"4","3",66,"Control",1,1,0.222222222222222,1,52870,0,0.666666666666667,0.333333333333333,0,1,0.666666666666667,1,3,1
"4","3",67,"SpaceSem",1,1,0,1,43543,0.666666666666667,0.666666666666667,-0.0666666666666667,1,1,0.466666666666667,3,2,2
"4","3",68,"SpaceTime",1,1,0,1,41584,0,0.666666666666667,0.416666666666667,0,1,0.708333333333333,1,3,1
"4","3",69,"SpaceSemTime",1,1,0.111111111111111,1,50937,0.666666666666667,0.666666666666667,0.883333333333333,1,1,0.941666666666667,3,2,3
"4","3",70,"TimeSem",0.555555555555556,1,0,0.555555555555556,52131,0,0.666666666666667,0.283333333333333,0,1,0.641666666666667,1,3,1
"4","3",71,"Control",1,1,0,1,51299,0,0.666666666666667,-0.233333333333333,0,1,0.383333333333333,1,3,1
"4","3",72,"SpaceSemTime",1,1,0,1,47405,0.666666666666667,0.666666666666667,-0.433333333333333,1,1,0.283333333333333,3,2,2
"4","3",73,"SpaceSem",1,1,0.111111111111111,1,53507,0.666666666666667,0.666666666666667,0.15,1,1,0.575,3,2,3
"4","3",74,"SpaceTime",1,1,0,1,48058,0,0.666666666666667,-0.466666666666667,0,1,0.266666666666667,1,3,1
"4","3",75,"TimeSem",1,1,0.111111111111111,1,47791,0,0.666666666666667,-0.05,0,1,0.475,1,3,1
"4","3",76,"SpaceSem",1,1,0.222222222222222,1,64201,0.666666666666667,0.666666666666667,0.0833333333333333,1,1,0.541666666666667,3,2,3
"4","3",77,"TimeSem",1,1,0,1,45662,0,0.666666666666667,-0.05,0,1,0.475,1,3,1
"4","3",78,"SpaceSemTime",1,1,0,1,46804,0.666666666666667,0.666666666666667,-0.916666666666667,1,1,0.0416666666666667,3,2,2
"4","3",79,"Control",1,1,0.111111111111111,1,54057,0,0.666666666666667,0.116666666666667,0,1,0.558333333333333,1,3,1
"4","3",80,"SpaceTime",1,1,0,1,45742,0,0.666666666666667,-0.483333333333333,0,1,0.258333333333333,1,3,1
"4","3",81,"SpaceSem",1,1,0,1,51523,0.666666666666667,0.666666666666667,0.216666666666667,1,1,0.608333333333333,3,2,3
"4","3",82,"SpaceTime",1,1,0.111111111111111,1,46932,0,0.666666666666667,0.483333333333333,0,1,0.741666666666667,1,3,1
"4","3",83,"Control",1,1,0.111111111111111,1,58494,0,0.666666666666667,0.116666666666667,0,1,0.558333333333333,1,3,1
"4","3",84,"TimeSem",1,1,0.111111111111111,1,40612,0,0.666666666666667,0.233333333333333,0,1,0.616666666666667,1,3,1
"4","3",85,"SpaceSemTime",1,1,0.111111111111111,1,52804,0.333333333333333,0.333333333333333,-0.55,0.5,0.5,0.225,2,1,4
"4","3",86,"SpaceTime",1,1,0,1,44832,0,0.666666666666667,-0.916666666666667,0,1,0.0416666666666667,1,3,1
"4","3",87,"Control",1,1,0.111111111111111,1,48440,0,0.666666666666667,0.05,0,1,0.525,1,3,1
"4","3",88,"SpaceSem",1,1,0.222222222222222,1,40611,0.666666666666667,0.666666666666667,-0.15,1,1,0.425,3,2,2
"4","3",89,"TimeSem",1,1,0,1,33631,0.444444444444444,0.555555555555556,0.4,0.666666666666667,0.833333333333333,0.7,3,4,3
"4","3",90,"SpaceSemTime",0.777777777777778,1,0.222222222222222,1,42250,0.222222222222222,0.555555555555556,-0.783333333333333,0.333333333333333,0.833333333333333,0.108333333333333,1,4,5
"5","1",1,"SpaceSemTime",0.555555555555556,1,0,1,30928,0.666666666666667,0.666666666666667,0.45,1,1,0.725,3,2,3
"5","1",2,"TimeSem",0.333333333333333,0.777777777777778,0,0.333333333333333,40728,0.222222222222222,0.222222222222222,-0.116666666666667,0.333333333333333,0.333333333333333,0.441666666666667,2,1,4
"5","1",3,"SpaceTime",0.444444444444444,0.666666666666667,0,0.444444444444444,25104,0.222222222222222,0.333333333333333,0.166666666666667,0.333333333333333,0.5,0.583333333333333,2,1,4
"5","1",4,"Control",1,1,0,1,34845,0,0.222222222222222,0.0833333333333333,0,0.333333333333333,0.541666666666667,2,1,4
"5","1",5,"SpaceSem",0.555555555555556,0.777777777777778,0.222222222222222,0.777777777777778,33419,0.555555555555556,0.666666666666667,-0.0333333333333333,0.833333333333333,1,0.483333333333333,3,2,2
"5","1",6,"SpaceSemTime",0.333333333333333,0.333333333333333,0.222222222222222,0.333333333333333,36821,0.666666666666667,0.666666666666667,0.866666666666667,1,1,0.933333333333333,3,2,3
"5","1",7,"TimeSem",0.111111111111111,0.111111111111111,0.111111111111111,0.111111111111111,37950,0,0.666666666666667,-0.116666666666667,0,1,0.441666666666667,1,3,1
"5","1",8,"SpaceSem",0.666666666666667,1,0.111111111111111,1,31447,0.666666666666667,0.666666666666667,0.3,1,1,0.65,3,2,3
"5","1",9,"SpaceTime",0.666666666666667,0.777777777777778,0.222222222222222,0.666666666666667,34149,0,0.222222222222222,0.116666666666667,0,0.333333333333333,0.558333333333333,2,1,4
"5","1",10,"Control",0.555555555555556,0.777777777777778,0.111111111111111,0.555555555555556,29342,0.222222222222222,0.666666666666667,0.283333333333333,0.333333333333333,1,0.641666666666667,1,4,5
"5","1",11,"TimeSem",0.444444444444444,0.555555555555556,0.111111111111111,0.555555555555556,25754,0.444444444444444,0.222222222222222,0.183333333333333,0.666666666666667,0.333333333333333,0.591666666666667,2,1,4
"5","1",12,"Control",0.444444444444444,0.555555555555556,0.111111111111111,0.666666666666667,25788,0.222222222222222,0.666666666666667,-0.0166666666666667,0.333333333333333,1,0.491666666666667,1,4,5
"5","1",13,"SpaceTime",0.444444444444444,0.777777777777778,0.111111111111111,0.555555555555556,28894,0.222222222222222,0.666666666666667,0.75,0.333333333333333,1,0.875,1,4,5
"5","1",14,"SpaceSem",0.444444444444444,0.555555555555556,0,0.555555555555556,25410,0.555555555555556,0.666666666666667,-0.4,0.833333333333333,1,0.3,3,2,2
"5","1",15,"SpaceSemTime",0,0.222222222222222,0.333333333333333,0.222222222222222,38538,0.555555555555556,0.666666666666667,0.833333333333333,0.833333333333333,1,0.916666666666667,3,2,3
"5","1",16,"TimeSem",0.333333333333333,0.777777777777778,0.111111111111111,0.444444444444444,30138,0.222222222222222,0.666666666666667,-0.433333333333333,0.333333333333333,1,0.283333333333333,1,4,5
"5","1",17,"SpaceTime",0.555555555555556,0.777777777777778,0.111111111111111,0.666666666666667,45875,0,0.666666666666667,0.0666666666666667,0,1,0.533333333333333,1,3,1
"5","1",18,"SpaceSemTime",0.777777777777778,0.777777777777778,0.111111111111111,0.777777777777778,30446,0.222222222222222,0.666666666666667,-0.1,0.333333333333333,1,0.45,1,4,5
"5","1",19,"SpaceSem",0.222222222222222,0.555555555555556,0.111111111111111,0.555555555555556,28047,0.444444444444444,0.666666666666667,-0.433333333333333,0.666666666666667,1,0.283333333333333,3,4,2
"5","1",20,"Control",0.666666666666667,0.777777777777778,0,0.777777777777778,36766,0.222222222222222,0.666666666666667,-0.0833333333333333,0.333333333333333,1,0.458333333333333,1,4,5
"5","1",21,"Control",0.333333333333333,0.444444444444444,0.111111111111111,0.333333333333333,32278,0.222222222222222,0.555555555555556,0.333333333333333,0.333333333333333,0.833333333333333,0.666666666666667,1,4,5
"5","1",22,"SpaceSemTime",0.333333333333333,0.333333333333333,0.111111111111111,0.333333333333333,30479,0.666666666666667,0.666666666666667,0.433333333333333,1,1,0.716666666666667,3,2,3
"5","1",23,"TimeSem",0.111111111111111,0.333333333333333,0,0.333333333333333,40104,0.333333333333333,0.222222222222222,0.35,0.5,0.333333333333333,0.675,2,1,4
"5","1",24,"SpaceTime",0.444444444444444,0.555555555555556,0.111111111111111,0.666666666666667,26158,0,0.666666666666667,0.533333333333333,0,1,0.766666666666667,1,3,1
"5","1",25,"SpaceSem",0.555555555555556,0.777777777777778,0.333333333333333,0.777777777777778,28260,0.444444444444444,0.333333333333333,0.2,0.666666666666667,0.5,0.6,2,1,4
"5","1",26,"TimeSem",0.555555555555556,0.555555555555556,0.111111111111111,0.666666666666667,23235,0.222222222222222,0.666666666666667,-0.2,0.333333333333333,1,0.4,1,4,5
"5","1",27,"SpaceSem",0.444444444444444,1,0,1,28382,0.666666666666667,0.666666666666667,0.166666666666667,1,1,0.583333333333333,3,2,3
"5","1",28,"SpaceTime",0.444444444444444,0.777777777777778,0.111111111111111,0.444444444444444,30961,0,0.666666666666667,-0.0666666666666667,0,1,0.466666666666667,1,3,1
"5","1",29,"Control",0.333333333333333,0.777777777777778,0,0.555555555555556,26930,0.444444444444444,0.666666666666667,-0.133333333333333,0.666666666666667,1,0.433333333333333,3,4,2
"5","1",30,"SpaceSemTime",0.555555555555556,0.777777777777778,0.222222222222222,0.777777777777778,32142,0.555555555555556,0.666666666666667,0.716666666666667,0.833333333333333,1,0.858333333333333,3,2,3
"5","2",31,"SpaceSemTime",0.777777777777778,1,0.222222222222222,1,39090,0.666666666666667,0.666666666666667,0.816666666666667,1,1,0.908333333333333,3,2,3
"5","2",32,"TimeSem",0.222222222222222,0.777777777777778,0,0.333333333333333,33192,0,0.666666666666667,0.183333333333333,0,1,0.591666666666667,1,3,1
"5","2",33,"SpaceTime",0.333333333333333,0.555555555555556,0,0.333333333333333,28513,0.444444444444444,0.666666666666667,0.166666666666667,0.666666666666667,1,0.583333333333333,3,4,3
"5","2",34,"Control",0.444444444444444,0.555555555555556,0.111111111111111,0.444444444444444,26675,0,0.666666666666667,-0.366666666666667,0,1,0.316666666666667,1,3,1
"5","2",35,"SpaceSem",0.666666666666667,1,0.111111111111111,1,43585,0.222222222222222,0.555555555555556,0.05,0.333333333333333,0.833333333333333,0.525,1,4,5
"5","2",36,"TimeSem",0.333333333333333,0.555555555555556,0.222222222222222,0.666666666666667,34801,0.555555555555556,0.222222222222222,0.266666666666667,0.833333333333333,0.333333333333333,0.633333333333333,2,1,4
"5","2",37,"SpaceTime",0.222222222222222,0.555555555555556,0.111111111111111,0.444444444444444,28421,0.333333333333333,0.666666666666667,-0.35,0.5,1,0.325,1,4,5
"5","2",38,"SpaceSemTime",0.444444444444444,1,0,1,28433,0.666666666666667,0.666666666666667,0.45,1,1,0.725,3,2,3
"5","2",39,"Control",0.444444444444444,0.555555555555556,0.111111111111111,0.555555555555556,30118,0.222222222222222,0.666666666666667,-0.166666666666667,0.333333333333333,1,0.416666666666667,1,4,5
"5","2",40,"SpaceSem",0.444444444444444,0.777777777777778,0.111111111111111,0.777777777777778,29760,0.555555555555556,0.666666666666667,-0.0666666666666667,0.833333333333333,1,0.466666666666667,3,2,2
"5","2",41,"SpaceSemTime",0.444444444444444,0.777777777777778,0.444444444444444,0.777777777777778,26258,0.555555555555556,0.666666666666667,0.8,0.833333333333333,1,0.9,3,2,3
"5","2",42,"SpaceTime",0.111111111111111,0.222222222222222,0.111111111111111,0.222222222222222,37218,0.444444444444444,0.666666666666667,0.883333333333333,0.666666666666667,1,0.941666666666667,3,4,3
"5","2",43,"SpaceSem",0,0.222222222222222,0,0.222222222222222,30660,0.555555555555556,0.666666666666667,-0.05,0.833333333333333,1,0.475,3,2,2
"5","2",44,"Control",0.444444444444444,0.777777777777778,0,0.555555555555556,25251,0,0.666666666666667,-0.316666666666667,0,1,0.341666666666667,1,3,1
"5","2",45,"TimeSem",0.333333333333333,0.333333333333333,0.111111111111111,0.666666666666667,24828,0,0.666666666666667,-0.183333333333333,0,1,0.408333333333333,1,3,1
"5","2",46,"Control",0.222222222222222,0.222222222222222,0.222222222222222,0.444444444444444,36025,0.222222222222222,0.666666666666667,-0.333333333333333,0.333333333333333,1,0.333333333333333,1,4,5
"5","2",47,"TimeSem",0.555555555555556,0.555555555555556,0.222222222222222,0.777777777777778,30746,0,0.666666666666667,0.0333333333333333,0,1,0.516666666666667,1,3,1
"5","2",48,"SpaceSemTime",0.666666666666667,0.777777777777778,0,0.777777777777778,25967,0.555555555555556,0.666666666666667,-0.733333333333333,0.833333333333333,1,0.133333333333333,3,2,2
"5","2",49,"SpaceSem",0.666666666666667,0.777777777777778,0.111111111111111,0.777777777777778,30887,0.555555555555556,0.666666666666667,-0.0833333333333333,0.833333333333333,1,0.458333333333333,3,2,2
"5","2",50,"SpaceTime",0.444444444444444,0.555555555555556,0,0.777777777777778,38531,0,0.666666666666667,-0.233333333333333,0,1,0.383333333333333,1,3,1
"5","2",51,"SpaceTime",0.222222222222222,0.333333333333333,0.111111111111111,0.333333333333333,36462,0.222222222222222,0.666666666666667,-0.75,0.333333333333333,1,0.125,1,4,5
"5","2",52,"SpaceSemTime",0.777777777777778,1,0.111111111111111,1,30503,0.666666666666667,0.666666666666667,0.483333333333333,1,1,0.741666666666667,3,2,3
"5","2",53,"TimeSem",0.444444444444444,1,0.222222222222222,0.444444444444444,39175,0,0.666666666666667,0.0333333333333333,0,1,0.516666666666667,1,3,1
"5","2",54,"SpaceSem",0.444444444444444,0.777777777777778,0.222222222222222,0.777777777777778,32944,0.555555555555556,0.222222222222222,-0.15,0.833333333333333,0.333333333333333,0.425,2,1,4
"5","2",55,"Control",0.111111111111111,0.444444444444444,0,0.222222222222222,31212,0.222222222222222,0.666666666666667,0.25,0.333333333333333,1,0.625,1,4,5
"5","2",56,"SpaceSem",0.666666666666667,1,0.111111111111111,1,34761,0.666666666666667,0.666666666666667,0.0666666666666667,1,1,0.533333333333333,3,2,3
"5","2",57,"SpaceSemTime",0.555555555555556,0.777777777777778,0.111111111111111,0.777777777777778,31997,0.555555555555556,0.666666666666667,0.75,0.833333333333333,1,0.875,3,2,3
"5","2",58,"Control",0.444444444444444,0.444444444444444,0.222222222222222,0.777777777777778,27191,0.222222222222222,0.666666666666667,0.383333333333333,0.333333333333333,1,0.691666666666667,1,4,5
"5","2",59,"TimeSem",0.444444444444444,0.666666666666667,0,0.555555555555556,31448,0.333333333333333,0.666666666666667,-0.533333333333333,0.5,1,0.233333333333333,1,4,5
"5","2",60,"SpaceTime",0.555555555555556,0.555555555555556,0.111111111111111,0.555555555555556,27537,0.222222222222222,0.666666666666667,-0.2,0.333333333333333,1,0.4,1,4,5
"5","3",61,"SpaceSemTime",0.666666666666667,1,0.444444444444444,1,35387,0.666666666666667,0.666666666666667,0.883333333333333,1,1,0.941666666666667,3,2,3
"5","3",62,"TimeSem",0.333333333333333,0.777777777777778,0.222222222222222,0.333333333333333,28752,0.222222222222222,0.666666666666667,-0.283333333333333,0.333333333333333,1,0.358333333333333,1,4,5
"5","3",63,"SpaceTime",0.444444444444444,0.555555555555556,0.222222222222222,0.555555555555556,28476,0.444444444444444,0.666666666666667,0.766666666666667,0.666666666666667,1,0.883333333333333,3,4,3
"5","3",64,"SpaceSem",0.111111111111111,0.222222222222222,0.111111111111111,0.222222222222222,25533,0.555555555555556,0.555555555555556,-0.166666666666667,0.833333333333333,0.833333333333333,0.416666666666667,3,2,2
"5","3",65,"Control",0.555555555555556,0.555555555555556,0.333333333333333,0.666666666666667,29643,0.222222222222222,0.555555555555556,0.333333333333333,0.333333333333333,0.833333333333333,0.666666666666667,1,4,5
"5","3",66,"SpaceSemTime",0.555555555555556,0.777777777777778,0.222222222222222,0.777777777777778,25257,0.555555555555556,0.666666666666667,0.0833333333333333,0.833333333333333,1,0.541666666666667,3,2,3
"5","3",67,"Control",0.333333333333333,0.777777777777778,0.111111111111111,0.444444444444444,26458,0,0.666666666666667,-0.133333333333333,0,1,0.433333333333333,1,3,1
"5","3",68,"SpaceSem",0.444444444444444,1,0.111111111111111,1,33427,0.666666666666667,0.666666666666667,0.0166666666666667,1,1,0.508333333333333,3,2,2
"5","3",69,"SpaceTime",0.555555555555556,1,0,0.555555555555556,29478,0,0.666666666666667,-0.516666666666667,0,1,0.241666666666667,1,3,1
"5","3",70,"TimeSem",0.333333333333333,0.555555555555556,0,0.444444444444444,26230,0,0.666666666666667,-0.15,0,1,0.425,1,3,1
"5","3",71,"SpaceSem",0.555555555555556,0.777777777777778,0,0.777777777777778,31881,0.555555555555556,0.666666666666667,0.166666666666667,0.833333333333333,1,0.583333333333333,3,2,3
"5","3",72,"SpaceSemTime",0.555555555555556,0.777777777777778,0.333333333333333,0.777777777777778,27386,0.222222222222222,0.555555555555556,0.733333333333333,0.333333333333333,0.833333333333333,0.866666666666667,1,4,5
"5","3",73,"SpaceTime",0.555555555555556,0.777777777777778,0.111111111111111,0.555555555555556,31234,0,0.666666666666667,-0.733333333333333,0,1,0.133333333333333,1,3,1
"5","3",74,"Control",0.333333333333333,0.333333333333333,0.222222222222222,0.333333333333333,44705,0.222222222222222,0.666666666666667,0.2,0.333333333333333,1,0.6,1,4,5
"5","3",75,"TimeSem",0.222222222222222,0.444444444444444,0,0.555555555555556,28205,0.222222222222222,0.666666666666667,-0.0666666666666667,0.333333333333333,1,0.466666666666667,1,4,5
"5","3",76,"SpaceSemTime",0.555555555555556,0.777777777777778,0.111111111111111,0.777777777777778,26639,0.555555555555556,0.666666666666667,0.266666666666667,0.833333333333333,1,0.633333333333333,3,2,3
"5","3",77,"Control",0.555555555555556,0.555555555555556,0.222222222222222,0.666666666666667,32761,0.222222222222222,0.666666666666667,0.316666666666667,0.333333333333333,1,0.658333333333333,1,4,5
"5","3",78,"SpaceSem",0.333333333333333,1,0.222222222222222,1,28567,0.333333333333333,0.333333333333333,-0.0833333333333333,0.5,0.5,0.458333333333333,2,1,4
"5","3",79,"SpaceTime",0.666666666666667,0.777777777777778,0.111111111111111,0.777777777777778,31242,0.222222222222222,0.666666666666667,-0.966666666666667,0.333333333333333,1,0.0166666666666667,1,4,5
"5","3",80,"TimeSem",0.555555555555556,0.555555555555556,0,0.555555555555556,28951,0.222222222222222,0.666666666666667,-0.316666666666667,0.333333333333333,1,0.341666666666667,1,4,5
"5","3",81,"SpaceSem",0.666666666666667,1,0.111111111111111,1,35429,0.555555555555556,0.555555555555556,0.116666666666667,0.833333333333333,0.833333333333333,0.558333333333333,3,2,3
"5","3",82,"Control",0.444444444444444,0.777777777777778,0.111111111111111,0.666666666666667,25664,0.222222222222222,0.666666666666667,0,0.333333333333333,1,0.5,1,4,5
"5","3",83,"SpaceTime",0.333333333333333,1,0,0.333333333333333,30858,0,0.666666666666667,-0.483333333333333,0,1,0.258333333333333,1,3,1
"5","3",84,"SpaceSemTime",0.333333333333333,0.555555555555556,0,0.555555555555556,31726,0.222222222222222,0.666666666666667,-0.683333333333333,0.333333333333333,1,0.158333333333333,1,4,5
"5","3",85,"TimeSem",0.333333333333333,0.555555555555556,0,0.555555555555556,28207,0.222222222222222,0.666666666666667,-0.0666666666666667,0.333333333333333,1,0.466666666666667,1,4,5
"5","3",86,"SpaceSem",1,1,0.111111111111111,1,33339,0.666666666666667,0.666666666666667,0.15,1,1,0.575,3,2,3
"5","3",87,"Control",0.333333333333333,0.777777777777778,0.111111111111111,0.333333333333333,29316,0,0.666666666666667,0.516666666666667,0,1,0.758333333333333,1,3,1
"5","3",88,"SpaceTime",0.555555555555556,0.777777777777778,0,0.666666666666667,34862,0.444444444444444,0.555555555555556,-0.133333333333333,0.666666666666667,0.833333333333333,0.433333333333333,3,4,5
"5","3",89,"TimeSem",0.555555555555556,0.555555555555556,0.222222222222222,0.555555555555556,27589,0.222222222222222,0.666666666666667,-0.1,0.333333333333333,1,0.45,1,4,5
"5","3",90,"SpaceSemTime",0.555555555555556,0.555555555555556,0.111111111111111,0.555555555555556,38531,0.555555555555556,0.555555555555556,0.683333333333333,0.833333333333333,0.833333333333333,0.841666666666667,3,2,3
"6","1",1,"TimeSem",0.333333333333333,0.555555555555556,0,0.444444444444444,30419,0.333333333333333,0.555555555555556,0.383333333333333,0.5,0.833333333333333,0.691666666666667,1,4,5
"6","1",2,"SpaceSemTime",0.777777777777778,1,0,1,30666,0.222222222222222,0.222222222222222,0.366666666666667,0.333333333333333,0.333333333333333,0.683333333333333,2,1,4
"6","1",3,"SpaceTime",0.777777777777778,1,0.111111111111111,0.777777777777778,26073,0.222222222222222,0.333333333333333,0.133333333333333,0.333333333333333,0.5,0.566666666666667,2,1,4
"6","1",4,"Control",1,1,0.222222222222222,1,33743,0.444444444444444,0.333333333333333,0.666666666666667,0.666666666666667,0.5,0.833333333333333,2,1,4
"6","1",5,"SpaceSem",0.555555555555556,1,0.222222222222222,1,33367,0.333333333333333,0.333333333333333,0.733333333333333,0.5,0.5,0.866666666666667,2,1,4
"6","1",6,"SpaceTime",0.222222222222222,0.333333333333333,0.111111111111111,0.444444444444444,23666,0.444444444444444,0.222222222222222,0.666666666666667,0.666666666666667,0.333333333333333,0.833333333333333,2,1,4
"6","1",7,"SpaceSem",0.777777777777778,1,0,1,31854,0.555555555555556,0.555555555555556,0.15,0.833333333333333,0.833333333333333,0.575,3,2,3
"6","1",8,"SpaceSemTime",0.777777777777778,1,0.333333333333333,1,31052,0.222222222222222,0.444444444444444,0.266666666666667,0.333333333333333,0.666666666666667,0.633333333333333,2,4,5
"6","1",9,"Control",0.777777777777778,1,0.222222222222222,0.777777777777778,26595,0.222222222222222,0.555555555555556,0.05,0.333333333333333,0.833333333333333,0.525,1,4,5
"6","1",10,"TimeSem",0.555555555555556,0.666666666666667,0.111111111111111,0.555555555555556,31375,0.222222222222222,0.444444444444444,0.183333333333333,0.333333333333333,0.666666666666667,0.591666666666667,2,4,5
"6","1",11,"SpaceTime",0.777777777777778,0.777777777777778,0.111111111111111,1,32732,0.222222222222222,0.444444444444444,-0.15,0.333333333333333,0.666666666666667,0.425,2,4,5
"6","1",12,"SpaceSemTime",0.777777777777778,1,0.111111111111111,1,30191,0.222222222222222,0.555555555555556,0.733333333333333,0.333333333333333,0.833333333333333,0.866666666666667,1,4,5
"6","1",13,"Control",0.111111111111111,0.777777777777778,0,0.111111111111111,27230,0.222222222222222,0.555555555555556,-0.3,0.333333333333333,0.833333333333333,0.35,1,4,5
"6","1",14,"SpaceSem",0.777777777777778,1,0,1,27838,0.555555555555556,0.222222222222222,-0.35,0.833333333333333,0.333333333333333,0.325,2,1,4
"6","1",15,"TimeSem",0.777777777777778,0.777777777777778,0.222222222222222,1,30867,0.555555555555556,0,0.65,0.833333333333333,0,0.825,2,1,4
"6","1",16,"SpaceTime",0.333333333333333,0.666666666666667,0.111111111111111,0.333333333333333,29960,0.222222222222222,0.222222222222222,0.133333333333333,0.333333333333333,0.333333333333333,0.566666666666667,2,1,4
"6","1",17,"SpaceSemTime",1,1,0,1,24174,0.333333333333333,0.333333333333333,0.166666666666667,0.5,0.5,0.583333333333333,2,1,4
"6","1",18,"Control",0.333333333333333,0.777777777777778,0.111111111111111,0.444444444444444,35068,0,0.666666666666667,-0.666666666666667,0,1,0.166666666666667,1,3,1
"6","1",19,"TimeSem",0.222222222222222,0.777777777777778,0.111111111111111,0.222222222222222,36501,0.444444444444444,0.222222222222222,-0.15,0.666666666666667,0.333333333333333,0.425,2,1,4
"6","1",20,"SpaceSem",0.777777777777778,1,0.111111111111111,1,26176,0.666666666666667,0.666666666666667,-0.183333333333333,1,1,0.408333333333333,3,2,2
"6","1",21,"SpaceTime",0.333333333333333,0.444444444444444,0,0.777777777777778,21589,0.333333333333333,0.444444444444444,-0.3,0.5,0.666666666666667,0.35,2,4,5
"6","1",22,"SpaceSemTime",0.222222222222222,0.222222222222222,0.333333333333333,0.222222222222222,32128,0.222222222222222,0.666666666666667,-0.166666666666667,0.333333333333333,1,0.416666666666667,1,4,5
"6","1",23,"TimeSem",0.555555555555556,0.777777777777778,0.222222222222222,0.666666666666667,24122,0.444444444444444,0.666666666666667,0.5,0.666666666666667,1,0.75,3,4,3
"6","1",24,"Control",1,1,0.111111111111111,1,20862,0.666666666666667,0,0.133333333333333,1,0,0.566666666666667,2,1,4
"6","1",25,"SpaceSem",1,1,0.333333333333333,1,27395,0.555555555555556,0.555555555555556,0.25,0.833333333333333,0.833333333333333,0.625,3,2,3
"6","1",26,"SpaceTime",1,1,0.222222222222222,1,24793,0.222222222222222,0.555555555555556,0.816666666666667,0.333333333333333,0.833333333333333,0.908333333333333,1,4,5
"6","1",27,"SpaceSem",0.777777777777778,1,0,1,26502,0.666666666666667,0.666666666666667,0.15,1,1,0.575,3,2,3
"6","1",28,"Control",0.666666666666667,0.777777777777778,0,0.777777777777778,20369,0.333333333333333,0.222222222222222,0.166666666666667,0.5,0.333333333333333,0.583333333333333,2,1,4
"6","1",29,"SpaceSemTime",0.555555555555556,1,0,1,22688,0.666666666666667,0.666666666666667,-0.45,1,1,0.275,3,2,2
"6","1",30,"TimeSem",0.777777777777778,0.777777777777778,0,1,27416,0.222222222222222,0,0.0833333333333333,0.333333333333333,0,0.541666666666667,2,1,4
"6","2",31,"SpaceSem",0.555555555555556,0.666666666666667,0,0.666666666666667,47050,0.222222222222222,0.222222222222222,0.0166666666666667,0.333333333333333,0.333333333333333,0.508333333333333,2,1,4
"6","2",32,"Control",0.222222222222222,0.333333333333333,0.111111111111111,0.333333333333333,35132,0.333333333333333,0.333333333333333,0.25,0.5,0.5,0.625,2,1,4
"6","2",33,"SpaceSemTime",1,1,0.222222222222222,1,24044,0.666666666666667,0.666666666666667,0.916666666666667,1,1,0.958333333333333,3,2,3
"6","2",34,"SpaceTime",0.777777777777778,1,0.111111111111111,0.777777777777778,25948,0.333333333333333,0.222222222222222,-0.6,0.5,0.333333333333333,0.2,2,1,4
"6","2",35,"TimeSem",0.444444444444444,0.666666666666667,0.111111111111111,0.555555555555556,30176,0.222222222222222,0.555555555555556,0.65,0.333333333333333,0.833333333333333,0.825,1,4,5
"6","2",36,"SpaceSem",0.666666666666667,1,0,1,33363,0.666666666666667,0.666666666666667,0,1,1,0.5,3,2,2
"6","2",37,"SpaceSemTime",0.777777777777778,1,0.111111111111111,1,22608,0.666666666666667,0.666666666666667,0.483333333333333,1,1,0.741666666666667,3,2,3
"6","2",38,"TimeSem",0.666666666666667,0.777777777777778,0.222222222222222,0.777777777777778,28895,0.444444444444444,0.222222222222222,0.216666666666667,0.666666666666667,0.333333333333333,0.608333333333333,2,1,4
"6","2",39,"Control",0.555555555555556,0.777777777777778,0.111111111111111,0.666666666666667,24473,0,0.222222222222222,0.116666666666667,0,0.333333333333333,0.558333333333333,2,1,4
"6","2",40,"SpaceTime",0.777777777777778,1,0.111111111111111,0.777777777777778,18895,0,0.666666666666667,0.466666666666667,0,1,0.733333333333333,1,3,1
"6","2",41,"SpaceSemTime",0.777777777777778,1,0,1,35826,0.666666666666667,0.666666666666667,0.4,1,1,0.7,3,2,3
"6","2",42,"SpaceTime",1,1,0,1,26942,0,0.555555555555556,-0.416666666666667,0,0.833333333333333,0.291666666666667,1,3,1
"6","2",43,"TimeSem",1,1,0.222222222222222,1,26812,0,0.666666666666667,-0.266666666666667,0,1,0.366666666666667,1,3,1
"6","2",44,"SpaceSem",0.444444444444444,0.777777777777778,0.111111111111111,0.777777777777778,33252,0.222222222222222,0.222222222222222,0.5,0.333333333333333,0.333333333333333,0.75,2,1,4
"6","2",45,"Control",0.444444444444444,0.666666666666667,0.111111111111111,0.666666666666667,27796,0,0.222222222222222,-0.583333333333333,0,0.333333333333333,0.208333333333333,2,1,4
"6","2",46,"SpaceSemTime",0.777777777777778,1,0.111111111111111,1,22469,0.666666666666667,0.666666666666667,0.416666666666667,1,1,0.708333333333333,3,2,3
"6","2",47,"SpaceSem",1,1,0.222222222222222,1,18969,0.666666666666667,0.666666666666667,0.2,1,1,0.6,3,2,3
"6","2",48,"SpaceTime",1,1,0,1,27286,0,0.333333333333333,-0.416666666666667,0,0.5,0.291666666666667,1,3,1
"6","2",49,"TimeSem",0.777777777777778,1,0.111111111111111,0.777777777777778,21513,0,0.555555555555556,0,0,0.833333333333333,0.5,1,3,1
"6","2",50,"Control",0.666666666666667,0.777777777777778,0.222222222222222,0.777777777777778,21403,0.222222222222222,0.555555555555556,-0.15,0.333333333333333,0.833333333333333,0.425,1,4,5
"6","2",51,"Control",0.555555555555556,0.777777777777778,0,0.555555555555556,28415,0.222222222222222,0.666666666666667,-0.15,0.333333333333333,1,0.425,1,4,5
"6","2",52,"SpaceSemTime",0.555555555555556,1,0,1,28358,0.666666666666667,0.666666666666667,-0.516666666666667,1,1,0.241666666666667,3,2,2
"6","2",53,"TimeSem",0.444444444444444,0.777777777777778,0,0.666666666666667,22655,0.444444444444444,0.555555555555556,0.25,0.666666666666667,0.833333333333333,0.625,3,4,5
"6","2",54,"SpaceSem",0.777777777777778,1,0.444444444444444,1,23110,0.333333333333333,0.333333333333333,0.666666666666667,0.5,0.5,0.833333333333333,2,1,4
"6","2",55,"SpaceTime",0.555555555555556,0.777777777777778,0.222222222222222,0.555555555555556,22707,0.555555555555556,0,-0.133333333333333,0.833333333333333,0,0.433333333333333,2,1,4
"6","2",56,"TimeSem",1,1,0.333333333333333,1,22346,0.222222222222222,0.222222222222222,0.666666666666667,0.333333333333333,0.333333333333333,0.833333333333333,2,1,4
"6","2",57,"Control",0.555555555555556,1,0,0.555555555555556,26344,0.222222222222222,0.555555555555556,0.35,0.333333333333333,0.833333333333333,0.675,1,4,5
"6","2",58,"SpaceSem",1,1,0.111111111111111,1,21173,0.666666666666667,0.666666666666667,0.05,1,1,0.525,3,2,2
"6","2",59,"SpaceSemTime",1,1,0,1,20512,0.666666666666667,0.666666666666667,-0.466666666666667,1,1,0.266666666666667,3,2,2
"6","2",60,"SpaceTime",0.777777777777778,0.777777777777778,0.222222222222222,0.777777777777778,21224,0.444444444444444,0.222222222222222,-0.4,0.666666666666667,0.333333333333333,0.3,2,1,4
"6","3",61,"TimeSem",0.777777777777778,1,0.111111111111111,0.777777777777778,31199,0.222222222222222,0.222222222222222,0.0666666666666667,0.333333333333333,0.333333333333333,0.533333333333333,2,1,4
"6","3",62,"Control",0.555555555555556,0.777777777777778,0.111111111111111,0.666666666666667,24651,0.222222222222222,0.666666666666667,0.283333333333333,0.333333333333333,1,0.641666666666667,1,4,5
"6","3",63,"SpaceTime",0.666666666666667,0.777777777777778,0,0.666666666666667,25440,0.222222222222222,0.666666666666667,-0.416666666666667,0.333333333333333,1,0.291666666666667,1,4,5
"6","3",64,"SpaceSem",0.777777777777778,1,0.222222222222222,1,27608,0.666666666666667,0.666666666666667,0.166666666666667,1,1,0.583333333333333,3,2,3
"6","3",65,"SpaceSemTime",0,0.333333333333333,0.222222222222222,0.333333333333333,23544,0.666666666666667,0.666666666666667,0.916666666666667,1,1,0.958333333333333,3,2,3
"6","3",66,"TimeSem",0.555555555555556,0.777777777777778,0.222222222222222,0.666666666666667,22743,0.444444444444444,0.222222222222222,0.116666666666667,0.666666666666667,0.333333333333333,0.558333333333333,2,1,4
"6","3",67,"SpaceSem",1,1,0.222222222222222,1,23218,0.666666666666667,0.666666666666667,0.0333333333333333,1,1,0.516666666666667,3,2,2
"6","3",68,"SpaceTime",1,1,0.111111111111111,1,26299,0,0.666666666666667,0.416666666666667,0,1,0.708333333333333,1,3,1
"6","3",69,"Control",1,1,0,1,23062,0,0.555555555555556,0.566666666666667,0,0.833333333333333,0.783333333333333,1,3,1
"6","3",70,"SpaceSemTime",0.777777777777778,1,0.333333333333333,1,32128,0.666666666666667,0.666666666666667,-0.816666666666667,1,1,0.0916666666666667,3,2,2
"6","3",71,"TimeSem",0.666666666666667,0.777777777777778,0.111111111111111,0.777777777777778,23346,0.222222222222222,0.555555555555556,-0.0166666666666667,0.333333333333333,0.833333333333333,0.491666666666667,1,4,5
"6","3",72,"SpaceTime",0.666666666666667,0.777777777777778,0.111111111111111,0.777777777777778,25523,0.555555555555556,0.444444444444444,-0.0666666666666667,0.833333333333333,0.666666666666667,0.466666666666667,3,2,2
"6","3",73,"Control",0.555555555555556,0.777777777777778,0.222222222222222,0.666666666666667,21132,0.222222222222222,0.222222222222222,0.5,0.333333333333333,0.333333333333333,0.75,2,1,4
"6","3",74,"SpaceSemTime",1,1,0.666666666666667,1,25380,0.666666666666667,0.666666666666667,0.95,1,1,0.975,3,2,3
"6","3",75,"SpaceSem",0.555555555555556,0.777777777777778,0.111111111111111,0.777777777777778,19321,0.333333333333333,0.555555555555556,0,0.5,0.833333333333333,0.5,1,4,5
"6","3",76,"SpaceTime",1,1,0.222222222222222,1,30625,0,0.555555555555556,0.5,0,0.833333333333333,0.75,1,3,1
"6","3",77,"SpaceSem",1,1,0,1,22857,0.444444444444444,0.222222222222222,-0.466666666666667,0.666666666666667,0.333333333333333,0.266666666666667,2,1,4
"6","3",78,"TimeSem",0.444444444444444,1,0.111111111111111,0.444444444444444,25748,0.444444444444444,0.555555555555556,0.383333333333333,0.666666666666667,0.833333333333333,0.691666666666667,3,4,3
"6","3",79,"SpaceSemTime",1,1,0.111111111111111,1,23278,0.666666666666667,0.666666666666667,-0.9,1,1,0.05,3,2,2
"6","3",80,"Control",0.555555555555556,0.777777777777778,0,0.555555555555556,22145,0.222222222222222,0.333333333333333,0.116666666666667,0.333333333333333,0.5,0.558333333333333,2,1,4
"6","3",81,"SpaceTime",1,1,0,1,23611,0,0.666666666666667,-0.45,0,1,0.275,1,3,1
"6","3",82,"TimeSem",0.222222222222222,0.777777777777778,0.111111111111111,0.333333333333333,24901,0,0.222222222222222,-0.216666666666667,0,0.333333333333333,0.391666666666667,2,1,4
"6","3",83,"SpaceSem",0.555555555555556,0.777777777777778,0,0.777777777777778,22035,0.555555555555556,0.555555555555556,0.1,0.833333333333333,0.833333333333333,0.55,3,2,3
"6","3",84,"SpaceSemTime",1,1,0.111111111111111,1,23018,0.222222222222222,0.555555555555556,0.583333333333333,0.333333333333333,0.833333333333333,0.791666666666667,1,4,5
"6","3",85,"Control",0.444444444444444,0.666666666666667,0,0.555555555555556,29166,0.444444444444444,0.333333333333333,-0.4,0.666666666666667,0.5,0.3,2,1,4
"6","3",86,"TimeSem",0.222222222222222,0.777777777777778,0.111111111111111,0.222222222222222,22776,0.222222222222222,0.333333333333333,0.116666666666667,0.333333333333333,0.5,0.558333333333333,2,1,4
"6","3",87,"Control",0.666666666666667,0.777777777777778,0.222222222222222,0.777777777777778,23675,0,0.666666666666667,0.316666666666667,0,1,0.658333333333333,1,3,1
"6","3",88,"SpaceSem",0.333333333333333,0.333333333333333,0.111111111111111,0.333333333333333,22916,0.666666666666667,0.666666666666667,0.133333333333333,1,1,0.566666666666667,3,2,3
"6","3",89,"SpaceTime",0.777777777777778,1,0.222222222222222,0.777777777777778,24766,0.222222222222222,0.333333333333333,0.316666666666667,0.333333333333333,0.5,0.658333333333333,2,1,4
"6","3",90,"SpaceSemTime",0.222222222222222,1,0.111111111111111,1,19411,0.222222222222222,0.555555555555556,-0.583333333333333,0.333333333333333,0.833333333333333,0.208333333333333,1,4,5
"7","1",1,"SpaceSemTime",0.555555555555556,1,0.111111111111111,1,20058,0.666666666666667,0.666666666666667,0.45,1,1,0.725,3,2,3
"7","1",2,"TimeSem",0.444444444444444,0.555555555555556,0.111111111111111,0.555555555555556,27837,0.555555555555556,0.222222222222222,0.533333333333333,0.833333333333333,0.333333333333333,0.766666666666667,2,1,4
"7","1",3,"Control",0.777777777777778,1,0.222222222222222,0.777777777777778,20585,0.222222222222222,0.333333333333333,0.1,0.333333333333333,0.5,0.55,2,1,4
"7","1",4,"SpaceSem",1,1,0.111111111111111,1,18987,0.666666666666667,0.666666666666667,0.0666666666666667,1,1,0.533333333333333,3,2,3
"7","1",5,"SpaceTime",0.444444444444444,0.777777777777778,0.222222222222222,0.555555555555556,23987,0.222222222222222,0.666666666666667,0.4,0.333333333333333,1,0.7,1,4,5
"7","1",6,"TimeSem",1,1,0.222222222222222,1,23105,0,0.555555555555556,0.216666666666667,0,0.833333333333333,0.608333333333333,1,3,1
"7","1",7,"SpaceSem",0.666666666666667,0.777777777777778,0.222222222222222,0.777777777777778,18939,0.555555555555556,0.555555555555556,-0.516666666666667,0.833333333333333,0.833333333333333,0.241666666666667,3,2,2
"7","1",8,"SpaceSemTime",0.777777777777778,1,0,1,15426,0.666666666666667,0.666666666666667,-0.366666666666667,1,1,0.316666666666667,3,2,2
"7","1",9,"SpaceTime",0.555555555555556,0.777777777777778,0.222222222222222,0.555555555555556,29647,0.222222222222222,0.222222222222222,0.166666666666667,0.333333333333333,0.333333333333333,0.583333333333333,2,1,4
"7","1",10,"Control",0.555555555555556,0.777777777777778,0.111111111111111,0.555555555555556,24792,0.222222222222222,0.555555555555556,0.05,0.333333333333333,0.833333333333333,0.525,1,4,5
"7","1",11,"SpaceSem",1,1,0.222222222222222,1,16623,0.666666666666667,0.666666666666667,0.5,1,1,0.75,3,2,3
"7","1",12,"SpaceTime",0.777777777777778,0.777777777777778,0.111111111111111,1,18604,0.222222222222222,0.555555555555556,0.616666666666667,0.333333333333333,0.833333333333333,0.808333333333333,1,4,5
"7","1",13,"TimeSem",1,1,0.111111111111111,1,24147,0.222222222222222,0.555555555555556,0.5,0.333333333333333,0.833333333333333,0.75,1,4,5
"7","1",14,"SpaceSemTime",0.777777777777778,1,0.111111111111111,1,31698,0.555555555555556,0.222222222222222,0.0666666666666667,0.833333333333333,0.333333333333333,0.533333333333333,2,1,4
"7","1",15,"Control",0.777777777777778,0.777777777777778,0.222222222222222,1,21703,0.222222222222222,0.222222222222222,0.233333333333333,0.333333333333333,0.333333333333333,0.616666666666667,2,1,4
"7","1",16,"TimeSem",0.555555555555556,0.777777777777778,0,0.666666666666667,21883,0.444444444444444,0.555555555555556,-0.283333333333333,0.666666666666667,0.833333333333333,0.358333333333333,3,4,5
"7","1",17,"SpaceSemTime",0.777777777777778,1,0,1,17153,0.555555555555556,0.555555555555556,-0.766666666666667,0.833333333333333,0.833333333333333,0.116666666666667,3,2,2
"7","1",18,"Control",0.555555555555556,0.777777777777778,0,0.777777777777778,19037,0.222222222222222,0.222222222222222,0.0333333333333333,0.333333333333333,0.333333333333333,0.516666666666667,2,1,4
"7","1",19,"SpaceSem",0.666666666666667,0.777777777777778,0.333333333333333,0.777777777777778,20768,0.222222222222222,0.666666666666667,0.316666666666667,0.333333333333333,1,0.658333333333333,1,4,5
"7","1",20,"SpaceTime",1,1,0.222222222222222,1,21620,0.222222222222222,0.555555555555556,0.6,0.333333333333333,0.833333333333333,0.8,1,4,5
"7","1",21,"SpaceSemTime",0.777777777777778,1,0.777777777777778,1,21517,0.666666666666667,0.666666666666667,0.983333333333333,1,1,0.991666666666667,3,2,3
"7","1",22,"Control",0.666666666666667,0.777777777777778,0,0.777777777777778,16824,0.444444444444444,0.555555555555556,-0.1,0.666666666666667,0.833333333333333,0.45,3,4,5
"7","1",23,"TimeSem",0.555555555555556,1,0.111111111111111,0.555555555555556,19548,0,0.555555555555556,-0.0333333333333333,0,0.833333333333333,0.483333333333333,1,3,1
"7","1",24,"SpaceTime",0.777777777777778,1,0,0.777777777777778,23316,0,0.666666666666667,0.483333333333333,0,1,0.741666666666667,1,3,1
"7","1",25,"SpaceSem",0.666666666666667,1,0.111111111111111,1,20773,0.666666666666667,0.666666666666667,-0.0333333333333333,1,1,0.483333333333333,3,2,2
"7","1",26,"SpaceTime",0.555555555555556,0.777777777777778,0,0.666666666666667,27478,0.444444444444444,0.333333333333333,-0.233333333333333,0.666666666666667,0.5,0.383333333333333,2,1,4
"7","1",27,"Control",0.444444444444444,0.666666666666667,0.222222222222222,0.555555555555556,21760,0.222222222222222,0.222222222222222,0.45,0.333333333333333,0.333333333333333,0.725,2,1,4
"7","1",28,"TimeSem",0.777777777777778,0.777777777777778,0,1,20674,0.222222222222222,0.222222222222222,-0.6,0.333333333333333,0.333333333333333,0.2,2,1,4
"7","1",29,"SpaceSemTime",1,1,0,1,23065,0.666666666666667,0.666666666666667,-0.45,1,1,0.275,3,2,2
"7","1",30,"SpaceSem",0.777777777777778,1,0.111111111111111,1,23124,0.555555555555556,0.555555555555556,-0.15,0.833333333333333,0.833333333333333,0.425,3,2,2
"7","2",31,"SpaceTime",0.777777777777778,1,0.444444444444444,0.777777777777778,25068,0.222222222222222,0.555555555555556,0.866666666666667,0.333333333333333,0.833333333333333,0.933333333333333,1,4,5
"7","2",32,"SpaceSemTime",0.666666666666667,1,0,1,23426,0.222222222222222,0.555555555555556,-0.166666666666667,0.333333333333333,0.833333333333333,0.416666666666667,1,4,5
"7","2",33,"SpaceSem",0.777777777777778,1,0,1,21671,0.555555555555556,0.555555555555556,0.15,0.833333333333333,0.833333333333333,0.575,3,2,3
"7","2",34,"TimeSem",0.666666666666667,0.777777777777778,0.222222222222222,0.777777777777778,16532,0.222222222222222,0.666666666666667,-0.0833333333333333,0.333333333333333,1,0.458333333333333,1,4,5
"7","2",35,"Control",1,1,0.222222222222222,1,18723,0,0.666666666666667,0.283333333333333,0,1,0.641666666666667,1,3,1
"7","2",36,"SpaceSemTime",0.777777777777778,1,0.111111111111111,1,19643,0.666666666666667,0.666666666666667,0.4,1,1,0.7,3,2,3
"7","2",37,"Control",1,1,0.111111111111111,1,22921,0.222222222222222,0.555555555555556,-0.05,0.333333333333333,0.833333333333333,0.475,1,4,5
"7","2",38,"TimeSem",0.777777777777778,0.777777777777778,0,1,20837,0,0.555555555555556,-0.0166666666666667,0,0.833333333333333,0.491666666666667,1,3,1
"7","2",39,"SpaceSem",0.777777777777778,1,0,1,26897,0.555555555555556,0.222222222222222,-0.0833333333333333,0.833333333333333,0.333333333333333,0.458333333333333,2,1,4
"7","2",40,"SpaceTime",0.666666666666667,0.777777777777778,0.222222222222222,0.666666666666667,18699,0.444444444444444,0.555555555555556,0.8,0.666666666666667,0.833333333333333,0.9,3,4,3
"7","2",41,"TimeSem",0.444444444444444,0.777777777777778,0.222222222222222,0.555555555555556,20373,0.333333333333333,0.333333333333333,0.166666666666667,0.5,0.5,0.583333333333333,2,1,4
"7","2",42,"Control",0.666666666666667,0.777777777777778,0.111111111111111,0.777777777777778,30288,0.555555555555556,0.555555555555556,0.3,0.833333333333333,0.833333333333333,0.65,3,2,3
"7","2",43,"SpaceSem",1,1,0.111111111111111,1,19914,0.666666666666667,0.666666666666667,0.283333333333333,1,1,0.641666666666667,3,2,3
"7","2",44,"SpaceSemTime",0.777777777777778,1,0.444444444444444,1,34328,0.666666666666667,0.666666666666667,0.883333333333333,1,1,0.941666666666667,3,2,3
"7","2",45,"SpaceTime",1,1,0.333333333333333,1,17878,0.222222222222222,0.555555555555556,0.6,0.333333333333333,0.833333333333333,0.8,1,4,5
"7","2",46,"TimeSem",1,1,0.111111111111111,1,20207,0.222222222222222,0.555555555555556,0.15,0.333333333333333,0.833333333333333,0.575,1,4,5
"7","2",47,"SpaceSemTime",1,1,0.111111111111111,1,16262,0.666666666666667,0.666666666666667,-0.933333333333333,1,1,0.0333333333333333,3,2,2
"7","2",48,"SpaceTime",1,1,0,1,18642,0.222222222222222,0.555555555555556,-0.7,0.333333333333333,0.833333333333333,0.15,1,4,5
"7","2",49,"Control",0.777777777777778,0.777777777777778,0,1,21087,0.444444444444444,0.555555555555556,0.0666666666666667,0.666666666666667,0.833333333333333,0.533333333333333,3,4,5
"7","2",50,"SpaceSem",0.777777777777778,1,0,1,20998,0.222222222222222,0.555555555555556,-0.0833333333333333,0.333333333333333,0.833333333333333,0.458333333333333,1,4,5
"7","2",51,"TimeSem",0.777777777777778,1,0.222222222222222,0.777777777777778,19690,0,0.666666666666667,0.05,0,1,0.525,1,3,1
"7","2",52,"SpaceTime",0.444444444444444,0.555555555555556,0,0.444444444444444,43491,0.444444444444444,0.555555555555556,-0.616666666666667,0.666666666666667,0.833333333333333,0.191666666666667,3,4,2
"7","2",53,"Control",0.777777777777778,1,0.111111111111111,0.777777777777778,17135,0,0.666666666666667,-0.2,0,1,0.4,1,3,1
"7","2",54,"SpaceSem",0.222222222222222,0.555555555555556,0,0.555555555555556,20860,0.333333333333333,0.555555555555556,0.2,0.5,0.833333333333333,0.6,1,4,5
"7","2",55,"SpaceSemTime",0.555555555555556,0.666666666666667,0,0.666666666666667,23650,0.222222222222222,0.222222222222222,-0.3,0.333333333333333,0.333333333333333,0.35,2,1,4
"7","2",56,"SpaceTime",1,1,0,1,17288,0.444444444444444,0.555555555555556,-0.133333333333333,0.666666666666667,0.833333333333333,0.433333333333333,3,4,5
"7","2",57,"TimeSem",0.444444444444444,0.555555555555556,0,0.666666666666667,30992,0.222222222222222,0.222222222222222,-0.0333333333333333,0.333333333333333,0.333333333333333,0.483333333333333,2,1,4
"7","2",58,"Control",1,1,0.222222222222222,1,18476,0,0.666666666666667,0.3,0,1,0.65,1,3,1
"7","2",59,"SpaceSemTime",1,1,0.333333333333333,1,18760,0.666666666666667,0.666666666666667,0.9,1,1,0.95,3,2,3
"7","2",60,"SpaceSem",1,1,0.111111111111111,1,15880,0.555555555555556,0.555555555555556,0.166666666666667,0.833333333333333,0.833333333333333,0.583333333333333,3,2,3
"7","3",61,"TimeSem",1,1,0.111111111111111,1,20255,0,0.666666666666667,0.133333333333333,0,1,0.566666666666667,1,3,1
"7","3",62,"Control",1,1,0.111111111111111,1,22529,0,0.666666666666667,-0.1,0,1,0.45,1,3,1
"7","3",63,"SpaceSem",1,1,0.333333333333333,1,25817,0.222222222222222,0.555555555555556,0.316666666666667,0.333333333333333,0.833333333333333,0.658333333333333,1,4,5
"7","3",64,"SpaceTime",0.777777777777778,0.777777777777778,0.222222222222222,1,23813,0.222222222222222,0.555555555555556,0.766666666666667,0.333333333333333,0.833333333333333,0.883333333333333,1,4,5
"7","3",65,"SpaceSemTime",0.777777777777778,1,0.111111111111111,1,19296,0.666666666666667,0.666666666666667,-0.983333333333333,1,1,0.00833333333333336,3,2,2
"7","3",66,"SpaceTime",1,1,0.111111111111111,1,20903,0.444444444444444,0.555555555555556,-0.25,0.666666666666667,0.833333333333333,0.375,3,4,5
"7","3",67,"SpaceSemTime",1,1,0,1,23568,0.666666666666667,0.666666666666667,-0.5,1,1,0.25,3,2,2
"7","3",68,"TimeSem",1,1,0.111111111111111,1,23098,0.222222222222222,0.555555555555556,-0.316666666666667,0.333333333333333,0.833333333333333,0.341666666666667,1,4,5
"7","3",69,"SpaceSem",1,1,0,1,18493,0.666666666666667,0.666666666666667,0.0666666666666667,1,1,0.533333333333333,3,2,3
"7","3",70,"Control",0.777777777777778,1,0.222222222222222,0.777777777777778,17771,0.444444444444444,0.555555555555556,-0.05,0.666666666666667,0.833333333333333,0.475,3,4,5
"7","3",71,"SpaceTime",0.777777777777778,1,0,0.777777777777778,21464,0,0.666666666666667,-0.433333333333333,0,1,0.283333333333333,1,3,1
"7","3",72,"SpaceSem",1,1,0,1,21770,0.222222222222222,0.555555555555556,0.216666666666667,0.333333333333333,0.833333333333333,0.608333333333333,1,4,5
"7","3",73,"TimeSem",0.777777777777778,0.777777777777778,0.111111111111111,1,21862,0.222222222222222,0.555555555555556,-0.166666666666667,0.333333333333333,0.833333333333333,0.416666666666667,1,4,5
"7","3",74,"SpaceSemTime",1,1,0.333333333333333,1,19081,0.666666666666667,0.666666666666667,0.45,1,1,0.725,3,2,3
"7","3",75,"Control",1,1,0.111111111111111,1,22208,0,0.555555555555556,0.25,0,0.833333333333333,0.625,1,3,1
"7","3",76,"SpaceTime",1,1,0,1,19195,0,0.666666666666667,0.483333333333333,0,1,0.741666666666667,1,3,1
"7","3",77,"SpaceSem",1,1,0.222222222222222,1,23498,0.555555555555556,0.555555555555556,0.116666666666667,0.833333333333333,0.833333333333333,0.558333333333333,3,2,3
"7","3",78,"TimeSem",0.777777777777778,1,0.222222222222222,0.777777777777778,18828,0.555555555555556,0.222222222222222,0.133333333333333,0.833333333333333,0.333333333333333,0.566666666666667,2,1,4
"7","3",79,"Control",0.777777777777778,1,0.111111111111111,0.777777777777778,17541,0,0.666666666666667,0,0,1,0.5,1,3,1
"7","3",80,"SpaceSemTime",0.777777777777778,0.777777777777778,0,0.777777777777778,21797,0.222222222222222,0.555555555555556,-0.3,0.333333333333333,0.833333333333333,0.35,1,4,5
"7","3",81,"SpaceTime",1,1,0.111111111111111,1,20778,0,0.555555555555556,0.483333333333333,0,0.833333333333333,0.741666666666667,1,3,1
"7","3",82,"TimeSem",0,0.333333333333333,0,0.333333333333333,23046,0.222222222222222,0.666666666666667,-0.0333333333333333,0.333333333333333,1,0.483333333333333,1,4,5
"7","3",83,"Control",0.333333333333333,0.777777777777778,0.222222222222222,0.444444444444444,15752,0.444444444444444,0.555555555555556,0.283333333333333,0.666666666666667,0.833333333333333,0.641666666666667,3,4,5
"7","3",84,"SpaceSem",1,1,0.111111111111111,1,29466,0.666666666666667,0.666666666666667,-0.383333333333333,1,1,0.308333333333333,3,2,2
"7","3",85,"SpaceSemTime",0.777777777777778,0.777777777777778,0,0.777777777777778,21050,0.222222222222222,0.555555555555556,0.683333333333333,0.333333333333333,0.833333333333333,0.841666666666667,1,4,5
"7","3",86,"Control",1,1,0,1,20488,0,0.666666666666667,-0.266666666666667,0,1,0.366666666666667,1,3,1
"7","3",87,"SpaceTime",0.666666666666667,0.777777777777778,0.222222222222222,0.777777777777778,17335,0,0.555555555555556,0.916666666666667,0,0.833333333333333,0.958333333333333,1,3,1
"7","3",88,"SpaceSemTime",1,1,0,1,16122,0.333333333333333,0.333333333333333,0.6,0.5,0.5,0.8,2,1,4
"7","3",89,"SpaceSem",1,1,0,1,26032,0.666666666666667,0.666666666666667,-0.0833333333333333,1,1,0.458333333333333,3,2,2
"7","3",90,"TimeSem",0.777777777777778,1,0.111111111111111,0.777777777777778,18726,0.444444444444444,0.555555555555556,-0.516666666666667,0.666666666666667,0.833333333333333,0.241666666666667,3,4,2
"8","1",1,"Control",0.444444444444444,0.555555555555556,0.333333333333333,0.555555555555556,23139,0.222222222222222,0.222222222222222,0.566666666666667,0.333333333333333,0.333333333333333,0.783333333333333,2,1,4
"8","1",2,"SpaceSem",0.777777777777778,1,0,1,29748,0.666666666666667,0.666666666666667,0.233333333333333,1,1,0.616666666666667,3,2,3
"8","1",3,"SpaceSemTime",0.777777777777778,1,0.333333333333333,1,21891,0.222222222222222,0.222222222222222,0.533333333333333,0.333333333333333,0.333333333333333,0.766666666666667,2,1,4
"8","1",4,"SpaceTime",0.777777777777778,1,0.111111111111111,0.777777777777778,28325,0.333333333333333,0,-0.05,0.5,0,0.475,2,1,4
"8","1",5,"TimeSem",1,1,0.111111111111111,1,23536,0.555555555555556,0,0.283333333333333,0.833333333333333,0,0.641666666666667,2,1,4
"8","1",6,"Control",0.666666666666667,0.777777777777778,0.111111111111111,0.666666666666667,23100,0.222222222222222,0.444444444444444,-0.266666666666667,0.333333333333333,0.666666666666667,0.366666666666667,2,4,5
"8","1",7,"SpaceSem",0.555555555555556,0.777777777777778,0,0.777777777777778,29840,0.444444444444444,0.333333333333333,-0.366666666666667,0.666666666666667,0.5,0.316666666666667,2,1,4
"8","1",8,"SpaceSemTime",0.777777777777778,1,0.111111111111111,1,32131,0.444444444444444,0.222222222222222,0.233333333333333,0.666666666666667,0.333333333333333,0.616666666666667,2,1,4
"8","1",9,"SpaceTime",0.666666666666667,0.777777777777778,0.222222222222222,0.777777777777778,21559,0.222222222222222,0.333333333333333,0.1,0.333333333333333,0.5,0.55,2,1,4
"8","1",10,"TimeSem",0.777777777777778,0.777777777777778,0.111111111111111,0.777777777777778,21508,0,0.222222222222222,0.233333333333333,0,0.333333333333333,0.616666666666667,2,1,4
