"rt","stimulus","key_press","trial_type","trial_index","time_elapsed","internal_node_id","session","startTime","attn_word","button_pressed","view_history","animation_sequence","condition","time_sequence","stim_type","direction","correct","init_locations","moves","final_locations","sort_correct","finalLocations","responses"
"3855","welcome","32","html-keyboard-response","0","3882","0.0-0.0","3","2020-1-8 10:23:14","ELEPHANT",NA,NA,NA,NA,NA,NA,NA,NA,NA,NA,NA,NA,NA,NA
"2441","consent",NA,"html-button-response","1","6327","0.0-1.0","3","2020-1-8 10:23:14","ELEPHANT","0",NA,NA,NA,NA,NA,NA,NA,NA,NA,NA,NA,NA,NA
"25377","instructions",NA,"instructions","2","31706","0.0-2.0","3","2020-1-8 10:23:14","ELEPHANT",NA,"[{""page_index"":0,""viewing_time"":3818},{""page_index"":1,""viewing_time"":2486},{""page_index"":2,""viewing_time"":12089},{""page_index"":3,""viewing_time"":591},{""page_index"":4,""viewing_time"":840},{""page_index"":5,""viewing_time"":5552}]",NA,NA,NA,NA,NA,NA,NA,NA,NA,NA,NA,NA
"1270","finalInstructions",NA,"html-button-response","3","32977","0.0-3.0-0.0","3","2020-1-8 10:23:14","ELEPHANT","0",NA,NA,NA,NA,NA,NA,NA,NA,NA,NA,NA,NA,NA
"19954","setup3",NA,"animation","4","52940","0.0-3.0-1.0","3","2020-1-8 10:23:14","ELEPHANT",NA,NA,"[{""cat"":20,""src"":6,""loc"":3},{""cat"":9,""src"":6,""loc"":7},{""cat"":16,""src"":18,""loc"":1},{""cat"":9,""src"":18,""loc"":6},{""cat"":20,""src"":15,""loc"":4},{""cat"":16,""src"":17,""loc"":0},{""cat"":16,""src"":12,""loc"":2},{""cat"":20,""src"":16,""loc"":5},{""cat"":9,""src"":0,""loc"":8}]","3","1112,1103,1106,1107,1104,1104,1104,1105,1103,10006",NA,NA,NA,NA,NA,NA,NA,NA,NA
"3305","flanker_instructions","72","html-keyboard-response","5","56251","0.0-3.0-2.0","3","2020-1-8 10:23:14","ELEPHANT",NA,NA,NA,NA,NA,NA,NA,NA,NA,NA,NA,NA,NA,NA
NA,"flanker_test",NA,"image-keyboard-response","6","58164","0.0-3.0-3.0-0.0","3","2020-1-8 10:23:14","ELEPHANT",NA,NA,NA,NA,NA,"incongruent","left","FALSE",NA,NA,NA,NA,NA,NA
NA,"flanker_test",NA,"image-keyboard-response","7","60268","0.0-3.0-3.0-0.1","3","2020-1-8 10:23:14","ELEPHANT",NA,NA,NA,NA,NA,"congruent","left","FALSE",NA,NA,NA,NA,NA,NA
NA,"flanker_test",NA,"image-keyboard-response","8","61919","0.0-3.0-3.0-0.2","3","2020-1-8 10:23:14","ELEPHANT",NA,NA,NA,NA,NA,"incongruent","right","FALSE",NA,NA,NA,NA,NA,NA
NA,"flanker_test",NA,"image-keyboard-response","9","63227","0.0-3.0-3.0-0.3","3","2020-1-8 10:23:14","ELEPHANT",NA,NA,NA,NA,NA,"congruent","right","FALSE",NA,NA,NA,NA,NA,NA
"20271","sort_trial",NA,"free-sort","10","84400","0.0-3.0-4.0","3","2020-1-8 10:23:14","ELEPHANT",NA,NA,NA,NA,NA,NA,NA,NA,"[{""cat"":20,""src"":6,""x"":68,""y"":267},{""cat"":9,""src"":6,""x"":11,""y"":496},{""cat"":16,""src"":18,""x"":52,""y"":434},{""cat"":9,""src"":18,""x"":6,""y"":372},{""cat"":20,""src"":15,""x"":17,""y"":138},{""cat"":16,""src"":17,""x"":5,""y"":0},{""cat"":16,""src"":12,""x"":65,""y"":302},{""cat"":20,""src"":16,""x"":1,""y"":75},{""cat"":9,""src"":0,""x"":18,""y"":185}]","[{""cat"":""9"",""src"":""18"",""x"":0,""y"":0},{""cat"":""20"",""src"":""16"",""x"":0,""y"":0},{""cat"":""20"",""src"":""15"",""x"":0,""y"":0},{""cat"":""20"",""src"":""6"",""x"":0,""y"":0},{""cat"":""16"",""src"":""12"",""x"":0,""y"":0},{""cat"":""9"",""src"":""0"",""x"":588,""y"":325},{""cat"":""16"",""src"":""18"",""x"":714,""y"":147},{""cat"":""9"",""src"":""0"",""x"":0,""y"":0},{""cat"":""16"",""src"":""17"",""x"":536,""y"":307},{""cat"":""16"",""src"":""18"",""x"":0,""y"":0},{""cat"":""9"",""src"":""6"",""x"":0,""y"":0},{""cat"":""16"",""src"":""17"",""x"":0,""y"":0}]","[{""cat"":9,""src"":18,""loc"":6},{""cat"":20,""src"":16,""loc"":2},{""cat"":20,""src"":15,""loc"":0},{""cat"":20,""src"":6,""loc"":1},{""cat"":16,""src"":12,""loc"":7},{""cat"":9,""src"":0,""loc"":5},{""cat"":16,""src"":18,""loc"":8},{""cat"":9,""src"":6,""loc"":3},{""cat"":16,""src"":17,""loc"":4}]","1","20,20,20,9,16,9,9,16,16,15,6,16,6,17,0,18,12,18,0,1,2,3,4,5,6,7,8,2,3,1,7,8,5,0,4,6",NA
"13254","sort_feedback","32","html-keyboard-response","11","97657","0.0-3.0-5.0","3","2020-1-8 10:23:14","ELEPHANT",NA,NA,NA,NA,NA,NA,NA,NA,NA,NA,NA,NA,NA,NA
"19924","setup4",NA,"animation","12","117584","0.0-3.0-6.0","3","2020-1-8 10:23:14","ELEPHANT",NA,NA,"[{""cat"":26,""src"":1,""loc"":2},{""cat"":26,""src"":15,""loc"":4},{""cat"":26,""src"":2,""loc"":8},{""cat"":23,""src"":16,""loc"":3},{""cat"":23,""src"":14,""loc"":6},{""cat"":23,""src"":4,""loc"":0},{""cat"":13,""src"":13,""loc"":7},{""cat"":13,""src"":1,""loc"":1},{""cat"":13,""src"":0,""loc"":5}]","4","1106,1102,1101,1103,1103,1102,1101,1102,1101,10003",NA,NA,NA,NA,NA,NA,NA,NA,NA
"3160","flanker_instructions","83","html-keyboard-response","13","120746","0.0-3.0-7.0","3","2020-1-8 10:23:14","ELEPHANT",NA,NA,NA,NA,NA,NA,NA,NA,NA,NA,NA,NA,NA,NA
NA,"flanker_test",NA,"image-keyboard-response","14","122651","0.0-3.0-8.0-0.0","3","2020-1-8 10:23:14","ELEPHANT",NA,NA,NA,NA,NA,"congruent","right","FALSE",NA,NA,NA,NA,NA,NA
NA,"flanker_test",NA,"image-keyboard-response","15","124347","0.0-3.0-8.0-0.1","3","2020-1-8 10:23:14","ELEPHANT",NA,NA,NA,NA,NA,"incongruent","right","FALSE",NA,NA,NA,NA,NA,NA
NA,"flanker_test",NA,"image-keyboard-response","16","125942","0.0-3.0-8.0-0.2","3","2020-1-8 10:23:14","ELEPHANT",NA,NA,NA,NA,NA,"congruent","left","FALSE",NA,NA,NA,NA,NA,NA
NA,"flanker_test",NA,"image-keyboard-response","17","127182","0.0-3.0-8.0-0.3","3","2020-1-8 10:23:14","ELEPHANT",NA,NA,NA,NA,NA,"incongruent","left","FALSE",NA,NA,NA,NA,NA,NA
"33030","sort_trial",NA,"free-sort","18","160850","0.0-3.0-9.0","3","2020-1-8 10:23:14","ELEPHANT",NA,NA,NA,NA,NA,NA,NA,NA,"[{""cat"":26,""src"":1,""x"":25,""y"":446},{""cat"":26,""src"":15,""x"":37,""y"":248},{""cat"":26,""src"":2,""x"":0,""y"":323},{""cat"":23,""src"":16,""x"":52,""y"":142},{""cat"":23,""src"":14,""x"":31,""y"":185},{""cat"":23,""src"":4,""x"":32,""y"":17},{""cat"":13,""src"":13,""x"":32,""y"":68},{""cat"":13,""src"":1,""x"":55,""y"":500},{""cat"":13,""src"":0,""x"":72,""y"":381}]","[{""cat"":""13"",""src"":""13"",""x"":0,""y"":0},{""cat"":""23"",""src"":""14"",""x"":0,""y"":0},{""cat"":""26"",""src"":""2"",""x"":0,""y"":0},{""cat"":""26"",""src"":""1"",""x"":0,""y"":0},{""cat"":""13"",""src"":""1"",""x"":0,""y"":0},{""cat"":""23"",""src"":""4"",""x"":32,""y"":17},{""cat"":""23"",""src"":""4"",""x"":0,""y"":0},{""cat"":""23"",""src"":""16"",""x"":0,""y"":0},{""cat"":""13"",""src"":""0"",""x"":740,""y"":160},{""cat"":""26"",""src"":""15"",""x"":0,""y"":0},{""cat"":""13"",""src"":""0"",""x"":0,""y"":0}]","[{""cat"":13,""src"":13,""loc"":7},{""cat"":23,""src"":14,""loc"":6},{""cat"":26,""src"":2,""loc"":8},{""cat"":26,""src"":1,""loc"":2},{""cat"":13,""src"":1,""loc"":1},{""cat"":23,""src"":4,""loc"":0},{""cat"":23,""src"":16,""loc"":3},{""cat"":26,""src"":15,""loc"":5},{""cat"":13,""src"":0,""loc"":4}]","7","23,13,26,23,13,26,23,13,26,4,1,1,16,0,15,14,13,2,0,1,2,3,4,5,6,7,8,5,4,3,6,8,7,1,0,2",NA
"1145","sort_feedback","74","html-keyboard-response","19","161997","0.0-3.0-10.0","3","2020-1-8 10:23:14","ELEPHANT",NA,NA,NA,NA,NA,NA,NA,NA,NA,NA,NA,NA,NA,NA
"19918","setup2",NA,"animation","20","181917","0.0-3.0-11.0","3","2020-1-8 10:23:14","ELEPHANT",NA,NA,"[{""cat"":32,""src"":11,""loc"":2},{""cat"":0,""src"":11,""loc"":1},{""cat"":17,""src"":11,""loc"":0},{""cat"":0,""src"":18,""loc"":5},{""cat"":17,""src"":0,""loc"":3},{""cat"":32,""src"":6,""loc"":4},{""cat"":32,""src"":12,""loc"":6},{""cat"":17,""src"":9,""loc"":8},{""cat"":0,""src"":17,""loc"":7}]","2","1104,1102,1101,1101,1103,1101,1102,1101,1102,10001",NA,NA,NA,NA,NA,NA,NA,NA,NA
"649","flanker_instructions","70","html-keyboard-response","21","182568","0.0-3.0-12.0","3","2020-1-8 10:23:14","ELEPHANT",NA,NA,NA,NA,NA,NA,NA,NA,NA,NA,NA,NA,NA,NA
NA,"flanker_test",NA,"image-keyboard-response","22","184471","0.0-3.0-13.0-0.0","3","2020-1-8 10:23:14","ELEPHANT",NA,NA,NA,NA,NA,"incongruent","right","FALSE",NA,NA,NA,NA,NA,NA
NA,"flanker_test",NA,"image-keyboard-response","23","186209","0.0-3.0-13.0-0.1","3","2020-1-8 10:23:14","ELEPHANT",NA,NA,NA,NA,NA,"congruent","right","FALSE",NA,NA,NA,NA,NA,NA
NA,"flanker_test",NA,"image-keyboard-response","24","187657","0.0-3.0-13.0-0.2","3","2020-1-8 10:23:14","ELEPHANT",NA,NA,NA,NA,NA,"incongruent","left","FALSE",NA,NA,NA,NA,NA,NA
NA,"flanker_test",NA,"image-keyboard-response","25","189759","0.0-3.0-13.0-0.3","3","2020-1-8 10:23:14","ELEPHANT",NA,NA,NA,NA,NA,"congruent","left","FALSE",NA,NA,NA,NA,NA,NA
"38001","sort_trial",NA,"free-sort","26","228195","0.0-3.0-14.0","3","2020-1-8 10:23:14","ELEPHANT",NA,NA,NA,NA,NA,NA,NA,NA,"[{""cat"":32,""src"":11,""x"":19,""y"":136},{""cat"":0,""src"":11,""x"":27,""y"":426},{""cat"":17,""src"":11,""x"":64,""y"":24},{""cat"":0,""src"":18,""x"":28,""y"":79},{""cat"":17,""src"":0,""x"":79,""y"":311},{""cat"":32,""src"":6,""x"":9,""y"":380},{""cat"":32,""src"":12,""x"":19,""y"":258},{""cat"":17,""src"":9,""x"":41,""y"":490},{""cat"":0,""src"":17,""x"":19,""y"":187}]","[{""cat"":""17"",""src"":""9"",""x"":0,""y"":0},{""cat"":""32"",""src"":""12"",""x"":0,""y"":0},{""cat"":""32"",""src"":""11"",""x"":0,""y"":0},{""cat"":""17"",""src"":""11"",""x"":279,""y"":161},{""cat"":""17"",""src"":""11"",""x"":0,""y"":0},{""cat"":""0"",""src"":""11"",""x"":0,""y"":0},{""cat"":""0"",""src"":""18"",""x"":0,""y"":0},{""cat"":""32"",""src"":""6"",""x"":739,""y"":152},{""cat"":""32"",""src"":""6"",""x"":0,""y"":0},{""cat"":""17"",""src"":""0"",""x"":0,""y"":0},{""cat"":""0"",""src"":""17"",""x"":0,""y"":0}]","[{""cat"":17,""src"":9,""loc"":8},{""cat"":32,""src"":12,""loc"":6},{""cat"":32,""src"":11,""loc"":2},{""cat"":17,""src"":11,""loc"":0},{""cat"":0,""src"":11,""loc"":1},{""cat"":0,""src"":18,""loc"":5},{""cat"":32,""src"":6,""loc"":4},{""cat"":17,""src"":0,""loc"":3},{""cat"":0,""src"":17,""loc"":7}]","9","17,0,32,17,32,0,32,0,17,11,11,11,0,6,18,12,17,9,0,1,2,3,4,5,6,7,8,3,4,2,7,6,5,1,8,0",NA
"1072","sort_feedback","83","html-keyboard-response","27","229269","0.0-3.0-15.0","3","2020-1-8 10:23:14","ELEPHANT",NA,NA,NA,NA,NA,NA,NA,NA,NA,NA,NA,NA,NA,NA
"19966","setup5",NA,"animation","28","249236","0.0-3.0-16.0","3","2020-1-8 10:23:14","ELEPHANT",NA,NA,"[{""cat"":7,""src"":8,""loc"":3},{""cat"":2,""src"":9,""loc"":8},{""cat"":27,""src"":18,""loc"":2},{""cat"":2,""src"":16,""loc"":0},{""cat"":7,""src"":18,""loc"":7},{""cat"":27,""src"":11,""loc"":5},{""cat"":7,""src"":15,""loc"":1},{""cat"":2,""src"":18,""loc"":4},{""cat"":27,""src"":9,""loc"":6}]","5","1103,1101,1102,1102,1101,1103,1102,1138,1113,10001",NA,NA,NA,NA,NA,NA,NA,NA,NA
"1041","flanker_instructions","70","html-keyboard-response","29","250279","0.0-3.0-17.0","3","2020-1-8 10:23:14","ELEPHANT",NA,NA,NA,NA,NA,NA,NA,NA,NA,NA,NA,NA,NA,NA
NA,"flanker_test",NA,"image-keyboard-response","30","252186","0.0-3.0-18.0-0.0","3","2020-1-8 10:23:14","ELEPHANT",NA,NA,NA,NA,NA,"incongruent","right","FALSE",NA,NA,NA,NA,NA,NA
NA,"flanker_test",NA,"image-keyboard-response","31","253518","0.0-3.0-18.0-0.1","3","2020-1-8 10:23:14","ELEPHANT",NA,NA,NA,NA,NA,"congruent","right","FALSE",NA,NA,NA,NA,NA,NA
NA,"flanker_test",NA,"image-keyboard-response","32","255240","0.0-3.0-18.0-0.2","3","2020-1-8 10:23:14","ELEPHANT",NA,NA,NA,NA,NA,"congruent","left","FALSE",NA,NA,NA,NA,NA,NA
NA,"flanker_test",NA,"image-keyboard-response","33","257276","0.0-3.0-18.0-0.3","3","2020-1-8 10:23:14","ELEPHANT",NA,NA,NA,NA,NA,"incongruent","left","FALSE",NA,NA,NA,NA,NA,NA
"29956","sort_trial",NA,"free-sort","34","287987","0.0-3.0-19.0","3","2020-1-8 10:23:14","ELEPHANT",NA,NA,NA,NA,NA,NA,NA,NA,"[{""cat"":7,""src"":8,""x"":1,""y"":140},{""cat"":2,""src"":9,""x"":71,""y"":253},{""cat"":27,""src"":18,""x"":40,""y"":66},{""cat"":2,""src"":16,""x"":69,""y"":363},{""cat"":7,""src"":18,""x"":51,""y"":508},{""cat"":27,""src"":11,""x"":82,""y"":25},{""cat"":7,""src"":15,""x"":26,""y"":435},{""cat"":2,""src"":18,""x"":10,""y"":207},{""cat"":27,""src"":9,""x"":52,""y"":309}]","[{""cat"":""7"",""src"":""15"",""x"":0,""y"":0},{""cat"":""2"",""src"":""16"",""x"":0,""y"":0},{""cat"":""27"",""src"":""18"",""x"":0,""y"":0},{""cat"":""2"",""src"":""9"",""x"":969,""y"":409},{""cat"":""2"",""src"":""9"",""x"":0,""y"":0},{""cat"":""7"",""src"":""18"",""x"":0,""y"":0},{""cat"":""27"",""src"":""11"",""x"":0,""y"":0},{""cat"":""7"",""src"":""8"",""x"":0,""y"":0},{""cat"":""2"",""src"":""18"",""x"":0,""y"":0},{""cat"":""27"",""src"":""9"",""x"":740,""y"":149},{""cat"":""27"",""src"":""9"",""x"":0,""y"":0}]","[{""cat"":7,""src"":15,""loc"":1},{""cat"":2,""src"":16,""loc"":0},{""cat"":27,""src"":18,""loc"":2},{""cat"":2,""src"":9,""loc"":8},{""cat"":7,""src"":18,""loc"":7},{""cat"":27,""src"":11,""loc"":5},{""cat"":7,""src"":8,""loc"":3},{""cat"":2,""src"":18,""loc"":6},{""cat"":27,""src"":9,""loc"":4}]","7","2,7,27,7,27,27,2,7,2,16,15,18,8,9,11,18,18,9,0,1,2,3,4,5,6,7,8,1,0,2,6,8,5,7,4,3",NA
"4035","sort_feedback","82","html-keyboard-response","35","292023","0.0-3.0-20.0","3","2020-1-8 10:23:14","ELEPHANT",NA,NA,NA,NA,NA,NA,NA,NA,NA,NA,NA,NA,NA,NA
"19915","setup1",NA,"animation","36","311939","0.0-3.0-21.0","3","2020-1-8 10:23:14","ELEPHANT",NA,NA,"[{""cat"":8,""src"":13,""loc"":0},{""cat"":8,""src"":6,""loc"":1},{""cat"":8,""src"":2,""loc"":2},{""cat"":5,""src"":7,""loc"":3},{""cat"":5,""src"":2,""loc"":5},{""cat"":5,""src"":19,""loc"":4},{""cat"":15,""src"":10,""loc"":8},{""cat"":15,""src"":2,""loc"":6},{""cat"":15,""src"":8,""loc"":7}]","1","1102,1102,1101,1102,1101,1102,1101,1102,1101,10001",NA,NA,NA,NA,NA,NA,NA,NA,NA
"1034","flanker_instructions","70","html-keyboard-response","37","312975","0.0-3.0-22.0","3","2020-1-8 10:23:14","ELEPHANT",NA,NA,NA,NA,NA,NA,NA,NA,NA,NA,NA,NA,NA,NA
NA,"flanker_test",NA,"image-keyboard-response","38","314879","0.0-3.0-23.0-0.0","3","2020-1-8 10:23:14","ELEPHANT",NA,NA,NA,NA,NA,"incongruent","right","FALSE",NA,NA,NA,NA,NA,NA
NA,"flanker_test",NA,"image-keyboard-response","39","316861","0.0-3.0-23.0-0.1","3","2020-1-8 10:23:14","ELEPHANT",NA,NA,NA,NA,NA,"incongruent","left","FALSE",NA,NA,NA,NA,NA,NA
NA,"flanker_test",NA,"image-keyboard-response","40","318679","0.0-3.0-23.0-0.2","3","2020-1-8 10:23:14","ELEPHANT",NA,NA,NA,NA,NA,"congruent","left","FALSE",NA,NA,NA,NA,NA,NA
NA,"flanker_test",NA,"image-keyboard-response","41","319885","0.0-3.0-23.0-0.3","3","2020-1-8 10:23:14","ELEPHANT",NA,NA,NA,NA,NA,"congruent","right","FALSE",NA,NA,NA,NA,NA,NA
"47757","sort_trial",NA,"free-sort","42","368020","0.0-3.0-24.0","3","2020-1-8 10:23:14","ELEPHANT",NA,NA,NA,NA,NA,NA,NA,NA,"[{""cat"":8,""src"":13,""x"":51,""y"":88},{""cat"":8,""src"":6,""x"":46,""y"":486},{""cat"":8,""src"":2,""x"":65,""y"":127},{""cat"":5,""src"":7,""x"":11,""y"":432},{""cat"":5,""src"":2,""x"":8,""y"":261},{""cat"":5,""src"":19,""x"":54,""y"":328},{""cat"":15,""src"":10,""x"":72,""y"":361},{""cat"":15,""src"":2,""x"":1,""y"":179},{""cat"":15,""src"":8,""x"":43,""y"":0}]","[{""cat"":""8"",""src"":""2"",""x"":0,""y"":0},{""cat"":""8"",""src"":""6"",""x"":0,""y"":0},{""cat"":""8"",""src"":""13"",""x"":0,""y"":0},{""cat"":""15"",""src"":""2"",""x"":0,""y"":0},{""cat"":""15"",""src"":""10"",""x"":0,""y"":0},{""cat"":""5"",""src"":""2"",""x"":0,""y"":0},{""cat"":""5"",""src"":""7"",""x"":0,""y"":0},{""cat"":""15"",""src"":""8"",""x"":0,""y"":0},{""cat"":""5"",""src"":""19"",""x"":739,""y"":144},{""cat"":""5"",""src"":""19"",""x"":0,""y"":0}]","[{""cat"":8,""src"":2,""loc"":2},{""cat"":8,""src"":6,""loc"":1},{""cat"":8,""src"":13,""loc"":0},{""cat"":15,""src"":2,""loc"":6},{""cat"":15,""src"":10,""loc"":8},{""cat"":5,""src"":2,""loc"":5},{""cat"":5,""src"":7,""loc"":3},{""cat"":15,""src"":8,""loc"":7},{""cat"":5,""src"":19,""loc"":4}]","9","8,8,8,5,5,5,15,15,15,13,6,2,7,19,2,2,8,10,0,1,2,3,4,5,6,7,8,2,1,0,6,8,5,3,7,4",NA
"1232","sort_feedback","68","html-keyboard-response","43","369253","0.0-3.0-25.0","3","2020-1-8 10:23:14","ELEPHANT",NA,NA,NA,NA,NA,NA,NA,NA,NA,NA,NA,NA,NA,NA
"19916","setup4",NA,"animation","44","389171","0.0-3.0-26.0","3","2020-1-8 10:23:14","ELEPHANT",NA,NA,"[{""cat"":2,""src"":15,""loc"":3},{""cat"":2,""src"":18,""loc"":8},{""cat"":2,""src"":6,""loc"":1},{""cat"":30,""src"":3,""loc"":5},{""cat"":30,""src"":2,""loc"":6},{""cat"":30,""src"":9,""loc"":2},{""cat"":32,""src"":9,""loc"":7},{""cat"":32,""src"":4,""loc"":4},{""cat"":32,""src"":5,""loc"":0}]","4","1102,1102,1101,1102,1101,1103,1100,1102,1101,10002",NA,NA,NA,NA,NA,NA,NA,NA,NA
"787","flanker_instructions","70","html-keyboard-response","45","389960","0.0-3.0-27.0","3","2020-1-8 10:23:14","ELEPHANT",NA,NA,NA,NA,NA,NA,NA,NA,NA,NA,NA,NA,NA,NA
NA,"flanker_test",NA,"image-keyboard-response","46","391863","0.0-3.0-28.0-0.0","3","2020-1-8 10:23:14","ELEPHANT",NA,NA,NA,NA,NA,"congruent","right","FALSE",NA,NA,NA,NA,NA,NA
NA,"flanker_test",NA,"image-keyboard-response","47","393899","0.0-3.0-28.0-0.1","3","2020-1-8 10:23:14","ELEPHANT",NA,NA,NA,NA,NA,"congruent","left","FALSE",NA,NA,NA,NA,NA,NA
NA,"flanker_test",NA,"image-keyboard-response","48","395628","0.0-3.0-28.0-0.2","3","2020-1-8 10:23:14","ELEPHANT",NA,NA,NA,NA,NA,"incongruent","left","FALSE",NA,NA,NA,NA,NA,NA
NA,"flanker_test",NA,"image-keyboard-response","49","397356","0.0-3.0-28.0-0.3","3","2020-1-8 10:23:14","ELEPHANT",NA,NA,NA,NA,NA,"incongruent","right","FALSE",NA,NA,NA,NA,NA,NA
"22277","sort_trial",NA,"free-sort","50","420372","0.0-3.0-29.0","3","2020-1-8 10:23:14","ELEPHANT",NA,NA,NA,NA,NA,NA,NA,NA,"[{""cat"":2,""src"":15,""x"":7,""y"":319},{""cat"":2,""src"":18,""x"":5,""y"":7},{""cat"":2,""src"":6,""x"":32,""y"":182},{""cat"":30,""src"":3,""x"":34,""y"":496},{""cat"":30,""src"":2,""x"":83,""y"":444},{""cat"":30,""src"":9,""x"":23,""y"":143},{""cat"":32,""src"":9,""x"":4,""y"":60},{""cat"":32,""src"":4,""x"":62,""y"":361},{""cat"":32,""src"":5,""x"":0,""y"":245}]","[{""cat"":""30"",""src"":""9"",""x"":0,""y"":0},{""cat"":""2"",""src"":""6"",""x"":0,""y"":0},{""cat"":""30"",""src"":""2"",""x"":0,""y"":0},{""cat"":""2"",""src"":""18"",""x"":0,""y"":0},{""cat"":""32"",""src"":""9"",""x"":0,""y"":0},{""cat"":""30"",""src"":""3"",""x"":0,""y"":0},{""cat"":""2"",""src"":""15"",""x"":0,""y"":0},{""cat"":""32"",""src"":""4"",""x"":0,""y"":0},{""cat"":""32"",""src"":""5"",""x"":740,""y"":150},{""cat"":""32"",""src"":""5"",""x"":0,""y"":0}]","[{""cat"":30,""src"":9,""loc"":2},{""cat"":2,""src"":6,""loc"":1},{""cat"":30,""src"":2,""loc"":6},{""cat"":2,""src"":18,""loc"":8},{""cat"":32,""src"":9,""loc"":7},{""cat"":30,""src"":3,""loc"":5},{""cat"":2,""src"":15,""loc"":3},{""cat"":32,""src"":4,""loc"":0},{""cat"":32,""src"":5,""loc"":4}]","7","32,2,30,2,32,30,30,32,2,4,6,9,15,5,3,2,9,18,0,1,2,3,4,5,6,7,8,7,1,0,6,8,5,2,4,3",NA
"1454","sort_feedback","75","html-keyboard-response","51","421827","0.0-3.0-30.0","3","2020-1-8 10:23:14","ELEPHANT",NA,NA,NA,NA,NA,NA,NA,NA,NA,NA,NA,NA,NA,NA
"19916","setup2",NA,"animation","52","441745","0.0-3.0-31.0","3","2020-1-8 10:23:14","ELEPHANT",NA,NA,"[{""cat"":14,""src"":7,""loc"":0},{""cat"":19,""src"":1,""loc"":2},{""cat"":22,""src"":6,""loc"":1},{""cat"":19,""src"":17,""loc"":5},{""cat"":22,""src"":2,""loc"":4},{""cat"":14,""src"":12,""loc"":3},{""cat"":14,""src"":5,""loc"":7},{""cat"":19,""src"":6,""loc"":6},{""cat"":22,""src"":13,""loc"":8}]","2","1102,1101,1101,1102,1102,1102,1102,1102,1101,10001",NA,NA,NA,NA,NA,NA,NA,NA,NA
"9878","flanker_instructions","72","html-keyboard-response","53","451626","0.0-3.0-32.0","3","2020-1-8 10:23:14","ELEPHANT",NA,NA,NA,NA,NA,NA,NA,NA,NA,NA,NA,NA,NA,NA
NA,"flanker_test",NA,"image-keyboard-response","54","453531","0.0-3.0-33.0-0.0","3","2020-1-8 10:23:14","ELEPHANT",NA,NA,NA,NA,NA,"congruent","left","FALSE",NA,NA,NA,NA,NA,NA
NA,"flanker_test",NA,"image-keyboard-response","55","454879","0.0-3.0-33.0-0.1","3","2020-1-8 10:23:14","ELEPHANT",NA,NA,NA,NA,NA,"incongruent","left","FALSE",NA,NA,NA,NA,NA,NA
NA,"flanker_test",NA,"image-keyboard-response","56","456848","0.0-3.0-33.0-0.2","3","2020-1-8 10:23:14","ELEPHANT",NA,NA,NA,NA,NA,"congruent","right","FALSE",NA,NA,NA,NA,NA,NA
NA,"flanker_test",NA,"image-keyboard-response","57","458642","0.0-3.0-33.0-0.3","3","2020-1-8 10:23:14","ELEPHANT",NA,NA,NA,NA,NA,"incongruent","right","FALSE",NA,NA,NA,NA,NA,NA
"24046","sort_trial",NA,"free-sort","58","483149","0.0-3.0-34.0","3","2020-1-8 10:23:14","ELEPHANT",NA,NA,NA,NA,NA,NA,NA,NA,"[{""cat"":14,""src"":7,""x"":11,""y"":422},{""cat"":19,""src"":1,""x"":45,""y"":508},{""cat"":22,""src"":6,""x"":23,""y"":191},{""cat"":19,""src"":17,""x"":74,""y"":60},{""cat"":22,""src"":2,""x"":73,""y"":126},{""cat"":14,""src"":12,""x"":48,""y"":387},{""cat"":14,""src"":5,""x"":82,""y"":317},{""cat"":19,""src"":6,""x"":82,""y"":249},{""cat"":22,""src"":13,""x"":64,""y"":24}]","[{""cat"":""14"",""src"":""7"",""x"":0,""y"":0},{""cat"":""19"",""src"":""6"",""x"":0,""y"":0},{""cat"":""14"",""src"":""5"",""x"":0,""y"":0},{""cat"":""22"",""src"":""6"",""x"":0,""y"":0},{""cat"":""19"",""src"":""1"",""x"":0,""y"":0},{""cat"":""19"",""src"":""17"",""x"":0,""y"":0},{""cat"":""14"",""src"":""12"",""x"":0,""y"":0},{""cat"":""22"",""src"":""13"",""x"":0,""y"":0},{""cat"":""22"",""src"":""2"",""x"":0,""y"":0}]","[{""cat"":14,""src"":7,""loc"":0},{""cat"":19,""src"":6,""loc"":6},{""cat"":14,""src"":5,""loc"":7},{""cat"":22,""src"":6,""loc"":1},{""cat"":19,""src"":1,""loc"":2},{""cat"":19,""src"":17,""loc"":5},{""cat"":14,""src"":12,""loc"":3},{""cat"":22,""src"":13,""loc"":8},{""cat"":22,""src"":2,""loc"":4}]","9","14,22,19,14,22,19,19,14,22,7,6,1,12,2,17,6,5,13,0,1,2,3,4,5,6,7,8,0,3,4,6,8,5,1,2,7",NA
"511","sort_feedback","85","html-keyboard-response","59","483661","0.0-3.0-35.0","3","2020-1-8 10:23:14","ELEPHANT",NA,NA,NA,NA,NA,NA,NA,NA,NA,NA,NA,NA,NA,NA
"19918","setup1",NA,"animation","60","503581","0.0-3.0-36.0","3","2020-1-8 10:23:14","ELEPHANT",NA,NA,"[{""cat"":5,""src"":3,""loc"":5},{""cat"":5,""src"":17,""loc"":4},{""cat"":5,""src"":16,""loc"":3},{""cat"":18,""src"":16,""loc"":0},{""cat"":18,""src"":3,""loc"":2},{""cat"":18,""src"":7,""loc"":1},{""cat"":15,""src"":7,""loc"":7},{""cat"":15,""src"":14,""loc"":6},{""cat"":15,""src"":18,""loc"":8}]","1","1103,1102,1102,1101,1102,1102,1102,1101,1101,10002",NA,NA,NA,NA,NA,NA,NA,NA,NA
"462","flanker_instructions","68","html-keyboard-response","61","504044","0.0-3.0-37.0","3","2020-1-8 10:23:14","ELEPHANT",NA,NA,NA,NA,NA,NA,NA,NA,NA,NA,NA,NA,NA,NA
NA,"flanker_test",NA,"image-keyboard-response","62","505947","0.0-3.0-38.0-0.0","3","2020-1-8 10:23:14","ELEPHANT",NA,NA,NA,NA,NA,"congruent","left","FALSE",NA,NA,NA,NA,NA,NA
NA,"flanker_test",NA,"image-keyboard-response","63","508049","0.0-3.0-38.0-0.1","3","2020-1-8 10:23:14","ELEPHANT",NA,NA,NA,NA,NA,"congruent","right","FALSE",NA,NA,NA,NA,NA,NA
NA,"flanker_test",NA,"image-keyboard-response","64","509627","0.0-3.0-38.0-0.2","3","2020-1-8 10:23:14","ELEPHANT",NA,NA,NA,NA,NA,"incongruent","right","FALSE",NA,NA,NA,NA,NA,NA
NA,"flanker_test",NA,"image-keyboard-response","65","510953","0.0-3.0-38.0-0.3","3","2020-1-8 10:23:14","ELEPHANT",NA,NA,NA,NA,NA,"incongruent","left","FALSE",NA,NA,NA,NA,NA,NA
"50422","sort_trial",NA,"free-sort","66","562460","0.0-3.0-39.0","3","2020-1-8 10:23:14","ELEPHANT",NA,NA,NA,NA,NA,NA,NA,NA,"[{""cat"":5,""src"":3,""x"":78,""y"":503},{""cat"":5,""src"":17,""x"":37,""y"":197},{""cat"":5,""src"":16,""x"":4,""y"":430},{""cat"":18,""src"":16,""x"":27,""y"":125},{""cat"":18,""src"":3,""x"":53,""y"":250},{""cat"":18,""src"":7,""x"":17,""y"":370},{""cat"":15,""src"":7,""x"":76,""y"":79},{""cat"":15,""src"":14,""x"":71,""y"":10},{""cat"":15,""src"":18,""x"":11,""y"":325}]","[{""cat"":""18"",""src"":""16"",""x"":0,""y"":0},{""cat"":""18"",""src"":""7"",""x"":0,""y"":0},{""cat"":""18"",""src"":""3"",""x"":0,""y"":0},{""cat"":""15"",""src"":""14"",""x"":403,""y"":299},{""cat"":""15"",""src"":""14"",""x"":0,""y"":0},{""cat"":""15"",""src"":""18"",""x"":0,""y"":0},{""cat"":""15"",""src"":""7"",""x"":0,""y"":0},{""cat"":""5"",""src"":""3"",""x"":0,""y"":0},{""cat"":""5"",""src"":""16"",""x"":0,""y"":0},{""cat"":""5"",""src"":""17"",""x"":0,""y"":0}]","[{""cat"":18,""src"":16,""loc"":0},{""cat"":18,""src"":7,""loc"":1},{""cat"":18,""src"":3,""loc"":2},{""cat"":15,""src"":14,""loc"":6},{""cat"":15,""src"":18,""loc"":8},{""cat"":15,""src"":7,""loc"":7},{""cat"":5,""src"":3,""loc"":5},{""cat"":5,""src"":16,""loc"":3},{""cat"":5,""src"":17,""loc"":4}]","9","18,18,18,5,5,5,15,15,15,16,7,3,16,17,3,14,7,18,0,1,2,3,4,5,6,7,8,0,1,2,7,8,6,3,5,4",NA
"5000","sort_feedback","70","html-keyboard-response","67","567463","0.0-3.0-40.0","3","2020-1-8 10:23:14","ELEPHANT",NA,NA,NA,NA,NA,NA,NA,NA,NA,NA,NA,NA,NA,NA
"19919","setup5",NA,"animation","68","587383","0.0-3.0-41.0","3","2020-1-8 10:23:14","ELEPHANT",NA,NA,"[{""cat"":30,""src"":0,""loc"":4},{""cat"":18,""src"":2,""loc"":2},{""cat"":11,""src"":18,""loc"":7},{""cat"":30,""src"":3,""loc"":8},{""cat"":11,""src"":14,""loc"":1},{""cat"":18,""src"":1,""loc"":3},{""cat"":30,""src"":15,""loc"":0},{""cat"":11,""src"":7,""loc"":5},{""cat"":18,""src"":7,""loc"":6}]","5","1104,1101,1102,1101,1102,1101,1103,1101,1103,10001",NA,NA,NA,NA,NA,NA,NA,NA,NA
"2201","flanker_instructions","68","html-keyboard-response","69","589585","0.0-3.0-42.0","3","2020-1-8 10:23:14","ELEPHANT",NA,NA,NA,NA,NA,NA,NA,NA,NA,NA,NA,NA,NA,NA
NA,"flanker_test",NA,"image-keyboard-response","70","591489","0.0-3.0-43.0-0.0","3","2020-1-8 10:23:14","ELEPHANT",NA,NA,NA,NA,NA,"congruent","right","FALSE",NA,NA,NA,NA,NA,NA
NA,"flanker_test",NA,"image-keyboard-response","71","593453","0.0-3.0-43.0-0.1","3","2020-1-8 10:23:14","ELEPHANT",NA,NA,NA,NA,NA,"incongruent","right","FALSE",NA,NA,NA,NA,NA,NA
NA,"flanker_test",NA,"image-keyboard-response","72","595331","0.0-3.0-43.0-0.2","3","2020-1-8 10:23:14","ELEPHANT",NA,NA,NA,NA,NA,"incongruent","left","FALSE",NA,NA,NA,NA,NA,NA
NA,"flanker_test",NA,"image-keyboard-response","73","597302","0.0-3.0-43.0-0.3","3","2020-1-8 10:23:14","ELEPHANT",NA,NA,NA,NA,NA,"congruent","left","FALSE",NA,NA,NA,NA,NA,NA
"41566","sort_trial",NA,"free-sort","74","639348","0.0-3.0-44.0","3","2020-1-8 10:23:14","ELEPHANT",NA,NA,NA,NA,NA,NA,NA,NA,"[{""cat"":30,""src"":0,""x"":57,""y"":19},{""cat"":18,""src"":2,""x"":7,""y"":381},{""cat"":11,""src"":18,""x"":28,""y"":205},{""cat"":30,""src"":3,""x"":60,""y"":442},{""cat"":11,""src"":14,""x"":52,""y"":253},{""cat"":18,""src"":1,""x"":78,""y"":146},{""cat"":30,""src"":15,""x"":55,""y"":507},{""cat"":11,""src"":7,""x"":42,""y"":81},{""cat"":18,""src"":7,""x"":51,""y"":322}]","[{""cat"":""30"",""src"":""15"",""x"":0,""y"":0},{""cat"":""11"",""src"":""14"",""x"":0,""y"":0},{""cat"":""18"",""src"":""2"",""x"":0,""y"":0},{""cat"":""30"",""src"":""3"",""x"":0,""y"":0},{""cat"":""11"",""src"":""18"",""x"":0,""y"":0},{""cat"":""18"",""src"":""1"",""x"":714,""y"":253},{""cat"":""18"",""src"":""1"",""x"":0,""y"":0},{""cat"":""11"",""src"":""7"",""x"":0,""y"":0},{""cat"":""18"",""src"":""7"",""x"":0,""y"":0},{""cat"":""30"",""src"":""0"",""x"":0,""y"":0}]","[{""cat"":30,""src"":15,""loc"":0},{""cat"":11,""src"":14,""loc"":1},{""cat"":18,""src"":2,""loc"":2},{""cat"":30,""src"":3,""loc"":8},{""cat"":11,""src"":18,""loc"":7},{""cat"":18,""src"":1,""loc"":3},{""cat"":11,""src"":7,""loc"":6},{""cat"":18,""src"":7,""loc"":5},{""cat"":30,""src"":0,""loc"":4}]","7","30,11,18,18,30,18,11,11,30,15,14,2,1,0,7,7,18,3,0,1,2,3,4,5,6,7,8,0,1,2,5,8,7,6,4,3",NA
"3585","sort_feedback","75","html-keyboard-response","75","642936","0.0-3.0-45.0","3","2020-1-8 10:23:14","ELEPHANT",NA,NA,NA,NA,NA,NA,NA,NA,NA,NA,NA,NA,NA,NA
"19918","setup3",NA,"animation","76","662854","0.0-3.0-46.0","3","2020-1-8 10:23:14","ELEPHANT",NA,NA,"[{""cat"":2,""src"":0,""loc"":8},{""cat"":23,""src"":4,""loc"":3},{""cat"":13,""src"":4,""loc"":0},{""cat"":23,""src"":15,""loc"":4},{""cat"":2,""src"":15,""loc"":6},{""cat"":13,""src"":9,""loc"":2},{""cat"":2,""src"":2,""loc"":7},{""cat"":23,""src"":5,""loc"":5},{""cat"":13,""src"":18,""loc"":1}]","3","1103,1102,1101,1102,1101,1103,1101,1103,1101,10001",NA,NA,NA,NA,NA,NA,NA,NA,NA
"994","flanker_instructions","75","html-keyboard-response","77","663850","0.0-3.0-47.0","3","2020-1-8 10:23:14","ELEPHANT",NA,NA,NA,NA,NA,NA,NA,NA,NA,NA,NA,NA,NA,NA
NA,"flanker_test",NA,"image-keyboard-response","78","665754","0.0-3.0-48.0-0.0","3","2020-1-8 10:23:14","ELEPHANT",NA,NA,NA,NA,NA,"incongruent","right","FALSE",NA,NA,NA,NA,NA,NA
NA,"flanker_test",NA,"image-keyboard-response","79","667411","0.0-3.0-48.0-0.1","3","2020-1-8 10:23:14","ELEPHANT",NA,NA,NA,NA,NA,"congruent","left","FALSE",NA,NA,NA,NA,NA,NA
NA,"flanker_test",NA,"image-keyboard-response","80","668983","0.0-3.0-48.0-0.2","3","2020-1-8 10:23:14","ELEPHANT",NA,NA,NA,NA,NA,"congruent","right","FALSE",NA,NA,NA,NA,NA,NA
NA,"flanker_test",NA,"image-keyboard-response","81","670674","0.0-3.0-48.0-0.3","3","2020-1-8 10:23:14","ELEPHANT",NA,NA,NA,NA,NA,"incongruent","left","FALSE",NA,NA,NA,NA,NA,NA
"20595","sort_trial",NA,"free-sort","82","692117","0.0-3.0-49.0","3","2020-1-8 10:23:14","ELEPHANT",NA,NA,NA,NA,NA,NA,NA,NA,"[{""cat"":2,""src"":0,""x"":55,""y"":302},{""cat"":23,""src"":4,""x"":41,""y"":388},{""cat"":13,""src"":4,""x"":58,""y"":0},{""cat"":23,""src"":15,""x"":52,""y"":65},{""cat"":2,""src"":15,""x"":75,""y"":507},{""cat"":13,""src"":9,""x"":30,""y"":430},{""cat"":2,""src"":2,""x"":50,""y"":260},{""cat"":23,""src"":5,""x"":78,""y"":181},{""cat"":13,""src"":18,""x"":19,""y"":145}]","[{""cat"":""13"",""src"":""4"",""x"":0,""y"":0},{""cat"":""13"",""src"":""9"",""x"":0,""y"":0},{""cat"":""2"",""src"":""15"",""x"":0,""y"":0},{""cat"":""2"",""src"":""2"",""x"":0,""y"":0},{""cat"":""2"",""src"":""0"",""x"":0,""y"":0},{""cat"":""23"",""src"":""4"",""x"":678,""y"":236},{""cat"":""23"",""src"":""4"",""x"":0,""y"":0},{""cat"":""23"",""src"":""5"",""x"":0,""y"":0},{""cat"":""13"",""src"":""18"",""x"":0,""y"":0},{""cat"":""23"",""src"":""15"",""x"":0,""y"":0}]","[{""cat"":13,""src"":4,""loc"":0},{""cat"":13,""src"":9,""loc"":2},{""cat"":2,""src"":15,""loc"":6},{""cat"":2,""src"":2,""loc"":7},{""cat"":2,""src"":0,""loc"":8},{""cat"":23,""src"":4,""loc"":3},{""cat"":23,""src"":5,""loc"":1},{""cat"":13,""src"":18,""loc"":5},{""cat"":23,""src"":15,""loc"":4}]","7","13,23,13,23,23,13,2,2,2,4,5,9,4,15,18,15,2,0,0,1,2,3,4,5,6,7,8,0,6,1,5,8,7,2,3,4",NA
"1048","sort_feedback","75","html-keyboard-response","83","693166","0.0-3.0-50.0","3","2020-1-8 10:23:14","ELEPHANT",NA,NA,NA,NA,NA,NA,NA,NA,NA,NA,NA,NA,NA,NA
"19920","setup1",NA,"animation","84","713087","0.0-3.0-51.0","3","2020-1-8 10:23:14","ELEPHANT",NA,NA,"[{""cat"":20,""src"":14,""loc"":3},{""cat"":20,""src"":13,""loc"":5},{""cat"":20,""src"":3,""loc"":4},{""cat"":23,""src"":2,""loc"":6},{""cat"":23,""src"":12,""loc"":7},{""cat"":23,""src"":0,""loc"":8},{""cat"":6,""src"":12,""loc"":1},{""cat"":6,""src"":0,""loc"":0},{""cat"":6,""src"":10,""loc"":2}]","1","1103,1102,1103,1102,1103,1102,1101,1101,1102,10001",NA,NA,NA,NA,NA,NA,NA,NA,NA
"1364","flanker_instructions","70","html-keyboard-response","85","714453","0.0-3.0-52.0","3","2020-1-8 10:23:14","ELEPHANT",NA,NA,NA,NA,NA,NA,NA,NA,NA,NA,NA,NA,NA,NA
NA,"flanker_test",NA,"image-keyboard-response","86","716357","0.0-3.0-53.0-0.0","3","2020-1-8 10:23:14","ELEPHANT",NA,NA,NA,NA,NA,"congruent","left","FALSE",NA,NA,NA,NA,NA,NA
NA,"flanker_test",NA,"image-keyboard-response","87","718084","0.0-3.0-53.0-0.1","3","2020-1-8 10:23:14","ELEPHANT",NA,NA,NA,NA,NA,"congruent","right","FALSE",NA,NA,NA,NA,NA,NA
NA,"flanker_test",NA,"image-keyboard-response","88","719847","0.0-3.0-53.0-0.2","3","2020-1-8 10:23:14","ELEPHANT",NA,NA,NA,NA,NA,"incongruent","right","FALSE",NA,NA,NA,NA,NA,NA
NA,"flanker_test",NA,"image-keyboard-response","89","721879","0.0-3.0-53.0-0.3","3","2020-1-8 10:23:14","ELEPHANT",NA,NA,NA,NA,NA,"incongruent","left","FALSE",NA,NA,NA,NA,NA,NA
"18984","sort_trial",NA,"free-sort","90","741356","0.0-3.0-54.0","3","2020-1-8 10:23:14","ELEPHANT",NA,NA,NA,NA,NA,NA,NA,NA,"[{""cat"":20,""src"":14,""x"":38,""y"":507},{""cat"":20,""src"":13,""x"":76,""y"":133},{""cat"":20,""src"":3,""x"":44,""y"":8},{""cat"":23,""src"":2,""x"":29,""y"":61},{""cat"":23,""src"":12,""x"":78,""y"":432},{""cat"":23,""src"":0,""x"":82,""y"":363},{""cat"":6,""src"":12,""x"":18,""y"":264},{""cat"":6,""src"":0,""x"":8,""y"":301},{""cat"":6,""src"":10,""x"":32,""y"":187}]","[{""cat"":""6"",""src"":""12"",""x"":0,""y"":0},{""cat"":""6"",""src"":""0"",""x"":0,""y"":0},{""cat"":""23"",""src"":""2"",""x"":0,""y"":0},{""cat"":""23"",""src"":""12"",""x"":0,""y"":0},{""cat"":""23"",""src"":""0"",""x"":0,""y"":0},{""cat"":""20"",""src"":""13"",""x"":0,""y"":0},{""cat"":""20"",""src"":""14"",""x"":0,""y"":0},{""cat"":""6"",""src"":""10"",""x"":0,""y"":0},{""cat"":""20"",""src"":""3"",""x"":0,""y"":0}]","[{""cat"":6,""src"":12,""loc"":1},{""cat"":6,""src"":0,""loc"":0},{""cat"":23,""src"":2,""loc"":6},{""cat"":23,""src"":12,""loc"":7},{""cat"":23,""src"":0,""loc"":8},{""cat"":20,""src"":13,""loc"":5},{""cat"":20,""src"":14,""loc"":3},{""cat"":6,""src"":10,""loc"":2},{""cat"":20,""src"":3,""loc"":4}]","9","6,6,6,20,20,20,23,23,23,0,12,10,14,3,13,2,12,0,0,1,2,3,4,5,6,7,8,1,0,7,6,8,5,2,3,4",NA
"1262","sort_feedback","75","html-keyboard-response","91","742620","0.0-3.0-55.0","3","2020-1-8 10:23:14","ELEPHANT",NA,NA,NA,NA,NA,NA,NA,NA,NA,NA,NA,NA,NA,NA
"19917","setup5",NA,"animation","92","762538","0.0-3.0-56.0","3","2020-1-8 10:23:14","ELEPHANT",NA,NA,"[{""cat"":29,""src"":16,""loc"":2},{""cat"":30,""src"":12,""loc"":3},{""cat"":12,""src"":17,""loc"":8},{""cat"":29,""src"":5,""loc"":5},{""cat"":30,""src"":16,""loc"":6},{""cat"":12,""src"":11,""loc"":0},{""cat"":30,""src"":10,""loc"":1},{""cat"":12,""src"":16,""loc"":4},{""cat"":29,""src"":0,""loc"":7}]","5","1102,1102,1102,1102,1101,1102,1102,1102,1102,10000",NA,NA,NA,NA,NA,NA,NA,NA,NA
"567","flanker_instructions","68","html-keyboard-response","93","763106","0.0-3.0-57.0","3","2020-1-8 10:23:14","ELEPHANT",NA,NA,NA,NA,NA,NA,NA,NA,NA,NA,NA,NA,NA,NA
NA,"flanker_test",NA,"image-keyboard-response","94","765009","0.0-3.0-58.0-0.0","3","2020-1-8 10:23:14","ELEPHANT",NA,NA,NA,NA,NA,"congruent","right","FALSE",NA,NA,NA,NA,NA,NA
NA,"flanker_test",NA,"image-keyboard-response","95","766957","0.0-3.0-58.0-0.1","3","2020-1-8 10:23:14","ELEPHANT",NA,NA,NA,NA,NA,"incongruent","left","FALSE",NA,NA,NA,NA,NA,NA
NA,"flanker_test",NA,"image-keyboard-response","96","768440","0.0-3.0-58.0-0.2","3","2020-1-8 10:23:14","ELEPHANT",NA,NA,NA,NA,NA,"incongruent","right","FALSE",NA,NA,NA,NA,NA,NA
NA,"flanker_test",NA,"image-keyboard-response","97","769711","0.0-3.0-58.0-0.3","3","2020-1-8 10:23:14","ELEPHANT",NA,NA,NA,NA,NA,"congruent","left","FALSE",NA,NA,NA,NA,NA,NA
"31883","sort_trial",NA,"free-sort","98","802710","0.0-3.0-59.0","3","2020-1-8 10:23:14","ELEPHANT",NA,NA,NA,NA,NA,NA,NA,NA,"[{""cat"":29,""src"":16,""x"":58,""y"":28},{""cat"":30,""src"":12,""x"":38,""y"":261},{""cat"":12,""src"":17,""x"":75,""y"":437},{""cat"":29,""src"":5,""x"":55,""y"":180},{""cat"":30,""src"":16,""x"":71,""y"":71},{""cat"":12,""src"":11,""x"":44,""y"":496},{""cat"":30,""src"":10,""x"":43,""y"":144},{""cat"":12,""src"":16,""x"":16,""y"":316},{""cat"":29,""src"":0,""x"":13,""y"":377}]","[{""cat"":""30"",""src"":""16"",""x"":0,""y"":0},{""cat"":""12"",""src"":""17"",""x"":0,""y"":0},{""cat"":""29"",""src"":""16"",""x"":0,""y"":0},{""cat"":""12"",""src"":""11"",""x"":0,""y"":0},{""cat"":""30"",""src"":""10"",""x"":0,""y"":0},{""cat"":""29"",""src"":""5"",""x"":0,""y"":0},{""cat"":""30"",""src"":""12"",""x"":0,""y"":0},{""cat"":""12"",""src"":""16"",""x"":0,""y"":0},{""cat"":""29"",""src"":""0"",""x"":747,""y"":151},{""cat"":""29"",""src"":""0"",""x"":0,""y"":0}]","[{""cat"":30,""src"":16,""loc"":6},{""cat"":12,""src"":17,""loc"":8},{""cat"":29,""src"":16,""loc"":2},{""cat"":12,""src"":11,""loc"":0},{""cat"":30,""src"":10,""loc"":1},{""cat"":29,""src"":5,""loc"":5},{""cat"":30,""src"":12,""loc"":3},{""cat"":12,""src"":16,""loc"":7},{""cat"":29,""src"":0,""loc"":4}]","7","12,30,29,30,29,29,30,12,12,11,10,16,12,0,5,16,16,17,0,1,2,3,4,5,6,7,8,3,4,2,6,8,5,0,7,1",NA
"1323","sort_feedback","75","html-keyboard-response","99","804034","0.0-3.0-60.0","3","2020-1-8 10:23:14","ELEPHANT",NA,NA,NA,NA,NA,NA,NA,NA,NA,NA,NA,NA,NA,NA
"19919","setup3",NA,"animation","100","823954","0.0-3.0-61.0","3","2020-1-8 10:23:14","ELEPHANT",NA,NA,"[{""cat"":23,""src"":2,""loc"":1},{""cat"":3,""src"":1,""loc"":6},{""cat"":21,""src"":8,""loc"":3},{""cat"":3,""src"":7,""loc"":7},{""cat"":21,""src"":6,""loc"":4},{""cat"":23,""src"":14,""loc"":2},{""cat"":23,""src"":17,""loc"":0},{""cat"":3,""src"":17,""loc"":8},{""cat"":21,""src"":3,""loc"":5}]","3","1103,1102,1102,1101,1101,1101,1103,1102,1102,10002",NA,NA,NA,NA,NA,NA,NA,NA,NA
"18","flanker_instructions","74","html-keyboard-response","101","823975","0.0-3.0-62.0","3","2020-1-8 10:23:14","ELEPHANT",NA,NA,NA,NA,NA,NA,NA,NA,NA,NA,NA,NA,NA,NA
NA,"flanker_test",NA,"image-keyboard-response","102","825879","0.0-3.0-63.0-0.0","3","2020-1-8 10:23:14","ELEPHANT",NA,NA,NA,NA,NA,"incongruent","right","FALSE",NA,NA,NA,NA,NA,NA
NA,"flanker_test",NA,"image-keyboard-response","103","827288","0.0-3.0-63.0-0.1","3","2020-1-8 10:23:14","ELEPHANT",NA,NA,NA,NA,NA,"congruent","right","FALSE",NA,NA,NA,NA,NA,NA
NA,"flanker_test",NA,"image-keyboard-response","104","828940","0.0-3.0-63.0-0.2","3","2020-1-8 10:23:14","ELEPHANT",NA,NA,NA,NA,NA,"incongruent","left","FALSE",NA,NA,NA,NA,NA,NA
NA,"flanker_test",NA,"image-keyboard-response","105","830443","0.0-3.0-63.0-0.3","3","2020-1-8 10:23:14","ELEPHANT",NA,NA,NA,NA,NA,"congruent","left","FALSE",NA,NA,NA,NA,NA,NA
"38134","sort_trial",NA,"free-sort","106","869288","0.0-3.0-64.0","3","2020-1-8 10:23:14","ELEPHANT",NA,NA,NA,NA,NA,NA,NA,NA,"[{""cat"":23,""src"":2,""x"":7,""y"":250},{""cat"":3,""src"":1,""x"":63,""y"":17},{""cat"":21,""src"":8,""x"":50,""y"":367},{""cat"":3,""src"":7,""x"":71,""y"":186},{""cat"":21,""src"":6,""x"":57,""y"":420},{""cat"":23,""src"":14,""x"":17,""y"":501},{""cat"":23,""src"":17,""x"":16,""y"":75},{""cat"":3,""src"":17,""x"":61,""y"":126},{""cat"":21,""src"":3,""x"":46,""y"":318}]","[{""cat"":""23"",""src"":""2"",""x"":0,""y"":0},{""cat"":""23"",""src"":""17"",""x"":0,""y"":0},{""cat"":""23"",""src"":""14"",""x"":0,""y"":0},{""cat"":""3"",""src"":""1"",""x"":0,""y"":0},{""cat"":""3"",""src"":""7"",""x"":268,""y"":400},{""cat"":""3"",""src"":""17"",""x"":0,""y"":0},{""cat"":""21"",""src"":""3"",""x"":0,""y"":0},{""cat"":""3"",""src"":""7"",""x"":0,""y"":0},{""cat"":""21"",""src"":""8"",""x"":0,""y"":0},{""cat"":""21"",""src"":""6"",""x"":0,""y"":0}]","[{""cat"":23,""src"":2,""loc"":1},{""cat"":23,""src"":17,""loc"":0},{""cat"":23,""src"":14,""loc"":2},{""cat"":3,""src"":1,""loc"":6},{""cat"":3,""src"":17,""loc"":7},{""cat"":21,""src"":3,""loc"":8},{""cat"":3,""src"":7,""loc"":5},{""cat"":21,""src"":8,""loc"":3},{""cat"":21,""src"":6,""loc"":4}]","6","23,23,23,21,21,3,3,3,21,17,2,14,8,6,7,1,17,3,0,1,2,3,4,5,6,7,8,1,0,2,7,8,6,3,4,5",NA
"797","sort_feedback","70","html-keyboard-response","107","870087","0.0-3.0-65.0","3","2020-1-8 10:23:14","ELEPHANT",NA,NA,NA,NA,NA,NA,NA,NA,NA,NA,NA,NA,NA,NA
"19920","setup4",NA,"animation","108","890008","0.0-3.0-66.0","3","2020-1-8 10:23:14","ELEPHANT",NA,NA,"[{""cat"":3,""src"":3,""loc"":5},{""cat"":3,""src"":11,""loc"":7},{""cat"":3,""src"":4,""loc"":2},{""cat"":1,""src"":7,""loc"":0},{""cat"":1,""src"":4,""loc"":6},{""cat"":1,""src"":19,""loc"":3},{""cat"":17,""src"":18,""loc"":4},{""cat"":17,""src"":16,""loc"":1},{""cat"":17,""src"":2,""loc"":8}]","4","1103,1102,1102,1102,1101,1102,1102,1102,1102,10002",NA,NA,NA,NA,NA,NA,NA,NA,NA
"1908","flanker_instructions","68","html-keyboard-response","109","891918","0.0-3.0-67.0","3","2020-1-8 10:23:14","ELEPHANT",NA,NA,NA,NA,NA,NA,NA,NA,NA,NA,NA,NA,NA,NA
NA,"flanker_test",NA,"image-keyboard-response","110","893825","0.0-3.0-68.0-0.0","3","2020-1-8 10:23:14","ELEPHANT",NA,NA,NA,NA,NA,"congruent","right","FALSE",NA,NA,NA,NA,NA,NA
NA,"flanker_test",NA,"image-keyboard-response","111","895120","0.0-3.0-68.0-0.1","3","2020-1-8 10:23:14","ELEPHANT",NA,NA,NA,NA,NA,"incongruent","right","FALSE",NA,NA,NA,NA,NA,NA
NA,"flanker_test",NA,"image-keyboard-response","112","896792","0.0-3.0-68.0-0.2","3","2020-1-8 10:23:14","ELEPHANT",NA,NA,NA,NA,NA,"congruent","left","FALSE",NA,NA,NA,NA,NA,NA
NA,"flanker_test",NA,"image-keyboard-response","113","898648","0.0-3.0-68.0-0.3","3","2020-1-8 10:23:14","ELEPHANT",NA,NA,NA,NA,NA,"incongruent","left","FALSE",NA,NA,NA,NA,NA,NA
"23565","sort_trial",NA,"free-sort","114","923282","0.0-3.0-69.0","3","2020-1-8 10:23:14","ELEPHANT",NA,NA,NA,NA,NA,NA,NA,NA,"[{""cat"":3,""src"":3,""x"":18,""y"":422},{""cat"":3,""src"":11,""x"":42,""y"":481},{""cat"":3,""src"":4,""x"":66,""y"":378},{""cat"":1,""src"":7,""x"":17,""y"":78},{""cat"":1,""src"":4,""x"":70,""y"":24},{""cat"":1,""src"":19,""x"":51,""y"":266},{""cat"":17,""src"":18,""x"":50,""y"":299},{""cat"":17,""src"":16,""x"":58,""y"":209},{""cat"":17,""src"":2,""x"":49,""y"":148}]","[{""cat"":""1"",""src"":""7"",""x"":0,""y"":0},{""cat"":""3"",""src"":""4"",""x"":0,""y"":0},{""cat"":""17"",""src"":""16"",""x"":0,""y"":0},{""cat"":""3"",""src"":""11"",""x"":0,""y"":0},{""cat"":""1"",""src"":""4"",""x"":0,""y"":0},{""cat"":""3"",""src"":""3"",""x"":0,""y"":0},{""cat"":""17"",""src"":""18"",""x"":0,""y"":0},{""cat"":""1"",""src"":""19"",""x"":0,""y"":0},{""cat"":""17"",""src"":""2"",""x"":0,""y"":0}]","[{""cat"":1,""src"":7,""loc"":0},{""cat"":3,""src"":4,""loc"":2},{""cat"":17,""src"":16,""loc"":1},{""cat"":3,""src"":11,""loc"":7},{""cat"":1,""src"":4,""loc"":6},{""cat"":3,""src"":3,""loc"":5},{""cat"":17,""src"":18,""loc"":4},{""cat"":1,""src"":19,""loc"":3},{""cat"":17,""src"":2,""loc"":8}]","9","1,17,3,1,17,3,1,3,17,7,16,4,19,18,3,4,11,2,0,1,2,3,4,5,6,7,8,0,2,1,7,6,5,4,3,8",NA
"3575","sort_feedback","68","html-keyboard-response","115","926858","0.0-3.0-70.0","3","2020-1-8 10:23:14","ELEPHANT",NA,NA,NA,NA,NA,NA,NA,NA,NA,NA,NA,NA,NA,NA
"19918","setup2",NA,"animation","116","946776","0.0-3.0-71.0","3","2020-1-8 10:23:14","ELEPHANT",NA,NA,"[{""cat"":16,""src"":19,""loc"":3},{""cat"":31,""src"":11,""loc"":5},{""cat"":29,""src"":2,""loc"":4},{""cat"":31,""src"":0,""loc"":7},{""cat"":29,""src"":14,""loc"":8},{""cat"":16,""src"":2,""loc"":6},{""cat"":31,""src"":10,""loc"":2},{""cat"":16,""src"":13,""loc"":0},{""cat"":29,""src"":19,""loc"":1}]","2","1103,1102,1102,1102,1101,1102,1101,1101,1103,10001",NA,NA,NA,NA,NA,NA,NA,NA,NA
"6008","flanker_instructions","68","html-keyboard-response","117","952786","0.0-3.0-72.0","3","2020-1-8 10:23:14","ELEPHANT",NA,NA,NA,NA,NA,NA,NA,NA,NA,NA,NA,NA,NA,NA
NA,"flanker_test",NA,"image-keyboard-response","118","954690","0.0-3.0-73.0-0.0","3","2020-1-8 10:23:14","ELEPHANT",NA,NA,NA,NA,NA,"incongruent","left","FALSE",NA,NA,NA,NA,NA,NA
NA,"flanker_test",NA,"image-keyboard-response","119","956014","0.0-3.0-73.0-0.1","3","2020-1-8 10:23:14","ELEPHANT",NA,NA,NA,NA,NA,"congruent","left","FALSE",NA,NA,NA,NA,NA,NA
NA,"flanker_test",NA,"image-keyboard-response","120","957636","0.0-3.0-73.0-0.2","3","2020-1-8 10:23:14","ELEPHANT",NA,NA,NA,NA,NA,"incongruent","right","FALSE",NA,NA,NA,NA,NA,NA
NA,"flanker_test",NA,"image-keyboard-response","121","959170","0.0-3.0-73.0-0.3","3","2020-1-8 10:23:14","ELEPHANT",NA,NA,NA,NA,NA,"congruent","right","FALSE",NA,NA,NA,NA,NA,NA
"39823","sort_trial",NA,"free-sort","122","1000093","0.0-3.0-74.0","3","2020-1-8 10:23:14","ELEPHANT",NA,NA,NA,NA,NA,NA,NA,NA,"[{""cat"":16,""src"":19,""x"":14,""y"":122},{""cat"":31,""src"":11,""x"":38,""y"":300},{""cat"":29,""src"":2,""x"":72,""y"":84},{""cat"":31,""src"":0,""x"":6,""y"":419},{""cat"":29,""src"":14,""x"":77,""y"":264},{""cat"":16,""src"":2,""x"":8,""y"":182},{""cat"":31,""src"":10,""x"":52,""y"":4},{""cat"":16,""src"":13,""x"":50,""y"":499},{""cat"":29,""src"":19,""x"":2,""y"":385}]","[{""cat"":""29"",""src"":""19"",""x"":0,""y"":0},{""cat"":""16"",""src"":""13"",""x"":0,""y"":0},{""cat"":""31"",""src"":""10"",""x"":0,""y"":0},{""cat"":""16"",""src"":""2"",""x"":0,""y"":0},{""cat"":""31"",""src"":""0"",""x"":0,""y"":0},{""cat"":""29"",""src"":""14"",""x"":0,""y"":0},{""cat"":""31"",""src"":""11"",""x"":0,""y"":0},{""cat"":""29"",""src"":""2"",""x"":0,""y"":0},{""cat"":""16"",""src"":""19"",""x"":0,""y"":0}]","[{""cat"":29,""src"":19,""loc"":1},{""cat"":16,""src"":13,""loc"":0},{""cat"":31,""src"":10,""loc"":2},{""cat"":16,""src"":2,""loc"":6},{""cat"":31,""src"":0,""loc"":7},{""cat"":29,""src"":14,""loc"":8},{""cat"":31,""src"":11,""loc"":5},{""cat"":29,""src"":2,""loc"":4},{""cat"":16,""src"":19,""loc"":3}]","9","16,29,31,16,29,31,16,31,29,13,19,10,19,2,11,2,0,14,0,1,2,3,4,5,6,7,8,1,0,2,8,7,6,3,4,5",NA
"1454","sort_feedback","75","html-keyboard-response","123","1001550","0.0-3.0-75.0","3","2020-1-8 10:23:14","ELEPHANT",NA,NA,NA,NA,NA,NA,NA,NA,NA,NA,NA,NA,NA,NA
"19924","setup5",NA,"animation","124","1021475","0.0-3.0-76.0","3","2020-1-8 10:23:14","ELEPHANT",NA,NA,"[{""cat"":14,""src"":3,""loc"":6},{""cat"":27,""src"":18,""loc"":1},{""cat"":28,""src"":9,""loc"":4},{""cat"":28,""src"":10,""loc"":7},{""cat"":14,""src"":13,""loc"":0},{""cat"":27,""src"":11,""loc"":5},{""cat"":28,""src"":2,""loc"":2},{""cat"":14,""src"":6,""loc"":3},{""cat"":27,""src"":16,""loc"":8}]","5","1105,1102,1105,1102,1102,1102,1101,1102,1102,10001",NA,NA,NA,NA,NA,NA,NA,NA,NA
"1164","flanker_instructions","75","html-keyboard-response","125","1022640","0.0-3.0-77.0","3","2020-1-8 10:23:14","ELEPHANT",NA,NA,NA,NA,NA,NA,NA,NA,NA,NA,NA,NA,NA,NA
NA,"flanker_test",NA,"image-keyboard-response","126","1024543","0.0-3.0-78.0-0.0","3","2020-1-8 10:23:14","ELEPHANT",NA,NA,NA,NA,NA,"incongruent","right","FALSE",NA,NA,NA,NA,NA,NA
NA,"flanker_test",NA,"image-keyboard-response","127","1026087","0.0-3.0-78.0-0.1","3","2020-1-8 10:23:14","ELEPHANT",NA,NA,NA,NA,NA,"incongruent","left","FALSE",NA,NA,NA,NA,NA,NA
NA,"flanker_test",NA,"image-keyboard-response","128","1027425","0.0-3.0-78.0-0.2","3","2020-1-8 10:23:14","ELEPHANT",NA,NA,NA,NA,NA,"congruent","left","FALSE",NA,NA,NA,NA,NA,NA
NA,"flanker_test",NA,"image-keyboard-response","129","1028817","0.0-3.0-78.0-0.3","3","2020-1-8 10:23:14","ELEPHANT",NA,NA,NA,NA,NA,"congruent","right","FALSE",NA,NA,NA,NA,NA,NA
"21819","sort_trial",NA,"free-sort","130","1051518","0.0-3.0-79.0","3","2020-1-8 10:23:14","ELEPHANT",NA,NA,NA,NA,NA,NA,NA,NA,"[{""cat"":14,""src"":3,""x"":62,""y"":315},{""cat"":27,""src"":18,""x"":59,""y"":136},{""cat"":28,""src"":9,""x"":19,""y"":426},{""cat"":28,""src"":10,""x"":74,""y"":388},{""cat"":14,""src"":13,""x"":62,""y"":179},{""cat"":27,""src"":11,""x"":13,""y"":250},{""cat"":28,""src"":2,""x"":7,""y"":508},{""cat"":14,""src"":6,""x"":42,""y"":87},{""cat"":27,""src"":16,""x"":82,""y"":19}]","[{""cat"":""27"",""src"":""18"",""x"":0,""y"":0},{""cat"":""14"",""src"":""13"",""x"":0,""y"":0},{""cat"":""28"",""src"":""2"",""x"":0,""y"":0},{""cat"":""14"",""src"":""3"",""x"":0,""y"":0},{""cat"":""28"",""src"":""10"",""x"":0,""y"":0},{""cat"":""27"",""src"":""11"",""x"":0,""y"":0},{""cat"":""28"",""src"":""9"",""x"":0,""y"":0},{""cat"":""14"",""src"":""6"",""x"":0,""y"":0},{""cat"":""27"",""src"":""16"",""x"":0,""y"":0}]","[{""cat"":27,""src"":18,""loc"":1},{""cat"":14,""src"":13,""loc"":0},{""cat"":28,""src"":2,""loc"":2},{""cat"":14,""src"":3,""loc"":6},{""cat"":28,""src"":10,""loc"":7},{""cat"":27,""src"":11,""loc"":5},{""cat"":28,""src"":9,""loc"":4},{""cat"":14,""src"":6,""loc"":8},{""cat"":27,""src"":16,""loc"":3}]","7","14,27,28,27,28,27,14,28,14,13,18,2,16,9,11,3,10,6,0,1,2,3,4,5,6,7,8,1,0,2,8,6,5,3,4,7",NA
"1097","sort_feedback","75","html-keyboard-response","131","1052617","0.0-3.0-80.0","3","2020-1-8 10:23:14","ELEPHANT",NA,NA,NA,NA,NA,NA,NA,NA,NA,NA,NA,NA,NA,NA
"19923","setup3",NA,"animation","132","1072541","0.0-3.0-81.0","3","2020-1-8 10:23:14","ELEPHANT",NA,NA,"[{""cat"":10,""src"":1,""loc"":5},{""cat"":23,""src"":14,""loc"":8},{""cat"":1,""src"":9,""loc"":0},{""cat"":1,""src"":13,""loc"":1},{""cat"":23,""src"":12,""loc"":6},{""cat"":10,""src"":10,""loc"":4},{""cat"":1,""src"":12,""loc"":2},{""cat"":10,""src"":5,""loc"":3},{""cat"":23,""src"":4,""loc"":7}]","3","1103,1102,1103,1102,1101,1102,1105,1102,1101,10001",NA,NA,NA,NA,NA,NA,NA,NA,NA
"2379","flanker_instructions","68","html-keyboard-response","133","1074921","0.0-3.0-82.0","3","2020-1-8 10:23:14","ELEPHANT",NA,NA,NA,NA,NA,NA,NA,NA,NA,NA,NA,NA,NA,NA
NA,"flanker_test",NA,"image-keyboard-response","134","1076827","0.0-3.0-83.0-0.0","3","2020-1-8 10:23:14","ELEPHANT",NA,NA,NA,NA,NA,"incongruent","right","FALSE",NA,NA,NA,NA,NA,NA
NA,"flanker_test",NA,"image-keyboard-response","135","1078187","0.0-3.0-83.0-0.1","3","2020-1-8 10:23:14","ELEPHANT",NA,NA,NA,NA,NA,"congruent","left","FALSE",NA,NA,NA,NA,NA,NA
NA,"flanker_test",NA,"image-keyboard-response","136","1080173","0.0-3.0-83.0-0.2","3","2020-1-8 10:23:14","ELEPHANT",NA,NA,NA,NA,NA,"incongruent","left","FALSE",NA,NA,NA,NA,NA,NA
NA,"flanker_test",NA,"image-keyboard-response","137","1082092","0.0-3.0-83.0-0.3","3","2020-1-8 10:23:14","ELEPHANT",NA,NA,NA,NA,NA,"congruent","right","FALSE",NA,NA,NA,NA,NA,NA
"20548","sort_trial",NA,"free-sort","138","1103056","0.0-3.0-84.0","3","2020-1-8 10:23:14","ELEPHANT",NA,NA,NA,NA,NA,NA,NA,NA,"[{""cat"":10,""src"":1,""x"":11,""y"":378},{""cat"":23,""src"":14,""x"":14,""y"":320},{""cat"":1,""src"":9,""x"":36,""y"":491},{""cat"":1,""src"":13,""x"":60,""y"":188},{""cat"":23,""src"":12,""x"":59,""y"":244},{""cat"":10,""src"":10,""x"":20,""y"":430},{""cat"":1,""src"":12,""x"":24,""y"":29},{""cat"":10,""src"":5,""x"":48,""y"":124},{""cat"":23,""src"":4,""x"":17,""y"":65}]","[{""cat"":""1"",""src"":""13"",""x"":0,""y"":0},{""cat"":""1"",""src"":""12"",""x"":0,""y"":0},{""cat"":""1"",""src"":""9"",""x"":0,""y"":0},{""cat"":""23"",""src"":""12"",""x"":0,""y"":0},{""cat"":""23"",""src"":""14"",""x"":0,""y"":0},{""cat"":""10"",""src"":""1"",""x"":0,""y"":0},{""cat"":""10"",""src"":""5"",""x"":0,""y"":0},{""cat"":""10"",""src"":""10"",""x"":0,""y"":0},{""cat"":""23"",""src"":""4"",""x"":0,""y"":0}]","[{""cat"":1,""src"":13,""loc"":1},{""cat"":1,""src"":12,""loc"":2},{""cat"":1,""src"":9,""loc"":0},{""cat"":23,""src"":12,""loc"":6},{""cat"":23,""src"":14,""loc"":8},{""cat"":10,""src"":1,""loc"":5},{""cat"":10,""src"":5,""loc"":3},{""cat"":10,""src"":10,""loc"":7},{""cat"":23,""src"":4,""loc"":4}]","7","1,1,1,10,23,10,23,10,23,9,13,12,5,4,1,12,10,14,0,1,2,3,4,5,6,7,8,2,0,1,6,8,5,3,7,4",NA
"3860","sort_feedback","84","html-keyboard-response","139","1106917","0.0-3.0-85.0","3","2020-1-8 10:23:14","ELEPHANT",NA,NA,NA,NA,NA,NA,NA,NA,NA,NA,NA,NA,NA,NA
"19923","setup4",NA,"animation","140","1126841","0.0-3.0-86.0","3","2020-1-8 10:23:14","ELEPHANT",NA,NA,"[{""cat"":31,""src"":14,""loc"":1},{""cat"":31,""src"":12,""loc"":8},{""cat"":31,""src"":3,""loc"":3},{""cat"":12,""src"":3,""loc"":5},{""cat"":12,""src"":11,""loc"":6},{""cat"":12,""src"":0,""loc"":0},{""cat"":15,""src"":18,""loc"":2},{""cat"":15,""src"":7,""loc"":4},{""cat"":15,""src"":14,""loc"":7}]","4","1102,1102,1101,1108,1101,1102,1102,1102,1102,10001",NA,NA,NA,NA,NA,NA,NA,NA,NA
"1286","flanker_instructions","68","html-keyboard-response","141","1128128","0.0-3.0-87.0","3","2020-1-8 10:23:14","ELEPHANT",NA,NA,NA,NA,NA,NA,NA,NA,NA,NA,NA,NA,NA,NA
NA,"flanker_test",NA,"image-keyboard-response","142","1130033","0.0-3.0-88.0-0.0","3","2020-1-8 10:23:14","ELEPHANT",NA,NA,NA,NA,NA,"congruent","right","FALSE",NA,NA,NA,NA,NA,NA
NA,"flanker_test",NA,"image-keyboard-response","143","1131670","0.0-3.0-88.0-0.1","3","2020-1-8 10:23:14","ELEPHANT",NA,NA,NA,NA,NA,"congruent","left","FALSE",NA,NA,NA,NA,NA,NA
NA,"flanker_test",NA,"image-keyboard-response","144","1133275","0.0-3.0-88.0-0.2","3","2020-1-8 10:23:14","ELEPHANT",NA,NA,NA,NA,NA,"incongruent","left","FALSE",NA,NA,NA,NA,NA,NA
NA,"flanker_test",NA,"image-keyboard-response","145","1135180","0.0-3.0-88.0-0.3","3","2020-1-8 10:23:14","ELEPHANT",NA,NA,NA,NA,NA,"incongruent","right","FALSE",NA,NA,NA,NA,NA,NA
"45232","sort_trial",NA,"free-sort","146","1181153","0.0-3.0-89.0","3","2020-1-8 10:23:14","ELEPHANT",NA,NA,NA,NA,NA,NA,NA,NA,"[{""cat"":31,""src"":14,""x"":14,""y"":199},{""cat"":31,""src"":12,""x"":9,""y"":4},{""cat"":31,""src"":3,""x"":74,""y"":383},{""cat"":12,""src"":3,""x"":51,""y"":143},{""cat"":12,""src"":11,""x"":28,""y"":302},{""cat"":12,""src"":0,""x"":54,""y"":80},{""cat"":15,""src"":18,""x"":31,""y"":242},{""cat"":15,""src"":7,""x"":60,""y"":498},{""cat"":15,""src"":14,""x"":12,""y"":437}]","[{""cat"":""12"",""src"":""3"",""x"":0,""y"":0},{""cat"":""31"",""src"":""3"",""x"":0,""y"":0},{""cat"":""31"",""src"":""12"",""x"":0,""y"":0},{""cat"":""12"",""src"":""11"",""x"":0,""y"":0},{""cat"":""15"",""src"":""14"",""x"":0,""y"":0},{""cat"":""12"",""src"":""0"",""x"":0,""y"":0},{""cat"":""15"",""src"":""18"",""x"":0,""y"":0},{""cat"":""31"",""src"":""14"",""x"":0,""y"":0},{""cat"":""15"",""src"":""7"",""x"":0,""y"":0}]","[{""cat"":12,""src"":3,""loc"":5},{""cat"":31,""src"":3,""loc"":3},{""cat"":31,""src"":12,""loc"":8},{""cat"":12,""src"":11,""loc"":6},{""cat"":15,""src"":14,""loc"":7},{""cat"":12,""src"":0,""loc"":0},{""cat"":15,""src"":18,""loc"":2},{""cat"":31,""src"":14,""loc"":1},{""cat"":15,""src"":7,""loc"":4}]","9","12,31,15,31,15,12,12,15,31,0,14,18,3,7,3,11,14,12,0,1,2,3,4,5,6,7,8,5,7,6,1,8,0,3,4,2",NA
"1055","sort_feedback","75","html-keyboard-response","147","1182211","0.0-3.0-90.0","3","2020-1-8 10:23:14","ELEPHANT",NA,NA,NA,NA,NA,NA,NA,NA,NA,NA,NA,NA,NA,NA
"19919","setup1",NA,"animation","148","1202131","0.0-3.0-91.0","3","2020-1-8 10:23:14","ELEPHANT",NA,NA,"[{""cat"":33,""src"":12,""loc"":8},{""cat"":33,""src"":19,""loc"":7},{""cat"":33,""src"":13,""loc"":6},{""cat"":8,""src"":5,""loc"":3},{""cat"":8,""src"":2,""loc"":4},{""cat"":8,""src"":3,""loc"":5},{""cat"":0,""src"":10,""loc"":2},{""cat"":0,""src"":3,""loc"":1},{""cat"":0,""src"":19,""loc"":0}]","1","1103,1101,1101,1102,1102,1102,1102,1102,1103,10001",NA,NA,NA,NA,NA,NA,NA,NA,NA
"2357","flanker_instructions","88","html-keyboard-response","149","1204489","0.0-3.0-92.0","3","2020-1-8 10:23:14","ELEPHANT",NA,NA,NA,NA,NA,NA,NA,NA,NA,NA,NA,NA,NA,NA
NA,"flanker_test",NA,"image-keyboard-response","150","1206405","0.0-3.0-93.0-0.0","3","2020-1-8 10:23:14","ELEPHANT",NA,NA,NA,NA,NA,"incongruent","left","FALSE",NA,NA,NA,NA,NA,NA
NA,"flanker_test",NA,"image-keyboard-response","151","1208146","0.0-3.0-93.0-0.1","3","2020-1-8 10:23:14","ELEPHANT",NA,NA,NA,NA,NA,"congruent","left","FALSE",NA,NA,NA,NA,NA,NA
NA,"flanker_test",NA,"image-keyboard-response","152","1209382","0.0-3.0-93.0-0.2","3","2020-1-8 10:23:14","ELEPHANT",NA,NA,NA,NA,NA,"congruent","right","FALSE",NA,NA,NA,NA,NA,NA
NA,"flanker_test",NA,"image-keyboard-response","153","1211304","0.0-3.0-93.0-0.3","3","2020-1-8 10:23:14","ELEPHANT",NA,NA,NA,NA,NA,"incongruent","right","FALSE",NA,NA,NA,NA,NA,NA
"22496","sort_trial",NA,"free-sort","154","1234739","0.0-3.0-94.0","3","2020-1-8 10:23:14","ELEPHANT",NA,NA,NA,NA,NA,NA,NA,NA,"[{""cat"":33,""src"":12,""x"":59,""y"":66},{""cat"":33,""src"":19,""x"":27,""y"":443},{""cat"":33,""src"":13,""x"":20,""y"":140},{""cat"":8,""src"":5,""x"":76,""y"":380},{""cat"":8,""src"":2,""x"":65,""y"":495},{""cat"":8,""src"":3,""x"":78,""y"":6},{""cat"":0,""src"":10,""x"":21,""y"":249},{""cat"":0,""src"":3,""x"":76,""y"":316},{""cat"":0,""src"":19,""x"":14,""y"":199}]","[{""cat"":""8"",""src"":""3"",""x"":0,""y"":0},{""cat"":""8"",""src"":""2"",""x"":0,""y"":0},{""cat"":""8"",""src"":""5"",""x"":0,""y"":0},{""cat"":""33"",""src"":""13"",""x"":0,""y"":0},{""cat"":""33"",""src"":""19"",""x"":0,""y"":0},{""cat"":""33"",""src"":""12"",""x"":0,""y"":0},{""cat"":""0"",""src"":""19"",""x"":0,""y"":0},{""cat"":""0"",""src"":""10"",""x"":0,""y"":0},{""cat"":""0"",""src"":""3"",""x"":0,""y"":0}]","[{""cat"":8,""src"":3,""loc"":5},{""cat"":8,""src"":2,""loc"":4},{""cat"":8,""src"":5,""loc"":3},{""cat"":33,""src"":13,""loc"":6},{""cat"":33,""src"":19,""loc"":7},{""cat"":33,""src"":12,""loc"":8},{""cat"":0,""src"":19,""loc"":0},{""cat"":0,""src"":10,""loc"":2},{""cat"":0,""src"":3,""loc"":1}]","9","0,0,0,8,8,8,33,33,33,19,3,10,5,2,3,13,19,12,0,1,2,3,4,5,6,7,8,6,8,7,2,1,0,3,4,5",NA
"1524","sort_feedback","75","html-keyboard-response","155","1236267","0.0-3.0-95.0","3","2020-1-8 10:23:14","ELEPHANT",NA,NA,NA,NA,NA,NA,NA,NA,NA,NA,NA,NA,NA,NA
"19921","setup2",NA,"animation","156","1256188","0.0-3.0-96.0","3","2020-1-8 10:23:14","ELEPHANT",NA,NA,"[{""cat"":32,""src"":16,""loc"":1},{""cat"":11,""src"":18,""loc"":0},{""cat"":1,""src"":17,""loc"":2},{""cat"":11,""src"":0,""loc"":5},{""cat"":32,""src"":5,""loc"":3},{""cat"":1,""src"":9,""loc"":4},{""cat"":1,""src"":10,""loc"":8},{""cat"":32,""src"":19,""loc"":7},{""cat"":11,""src"":17,""loc"":6}]","2","1103,1102,1102,1102,1101,1103,1103,1102,1102,10001",NA,NA,NA,NA,NA,NA,NA,NA,NA
"1408","flanker_instructions","75","html-keyboard-response","157","1257599","0.0-3.0-97.0","3","2020-1-8 10:23:14","ELEPHANT",NA,NA,NA,NA,NA,NA,NA,NA,NA,NA,NA,NA,NA,NA
NA,"flanker_test",NA,"image-keyboard-response","158","1259506","0.0-3.0-98.0-0.0","3","2020-1-8 10:23:14","ELEPHANT",NA,NA,NA,NA,NA,"incongruent","left","FALSE",NA,NA,NA,NA,NA,NA
NA,"flanker_test",NA,"image-keyboard-response","159","1260718","0.0-3.0-98.0-0.1","3","2020-1-8 10:23:14","ELEPHANT",NA,NA,NA,NA,NA,"congruent","right","FALSE",NA,NA,NA,NA,NA,NA
NA,"flanker_test",NA,"image-keyboard-response","160","1261931","0.0-3.0-98.0-0.2","3","2020-1-8 10:23:14","ELEPHANT",NA,NA,NA,NA,NA,"incongruent","right","FALSE",NA,NA,NA,NA,NA,NA
NA,"flanker_test",NA,"image-keyboard-response","161","1263182","0.0-3.0-98.0-0.3","3","2020-1-8 10:23:14","ELEPHANT",NA,NA,NA,NA,NA,"congruent","left","FALSE",NA,NA,NA,NA,NA,NA
"19650","sort_trial",NA,"free-sort","162","1283244","0.0-3.0-99.0","3","2020-1-8 10:23:14","ELEPHANT",NA,NA,NA,NA,NA,NA,NA,NA,"[{""cat"":32,""src"":16,""x"":39,""y"":125},{""cat"":11,""src"":18,""x"":64,""y"":89},{""cat"":1,""src"":17,""x"":10,""y"":381},{""cat"":11,""src"":0,""x"":27,""y"":3},{""cat"":32,""src"":5,""x"":4,""y"":262},{""cat"":1,""src"":9,""x"":53,""y"":191},{""cat"":1,""src"":10,""x"":29,""y"":482},{""cat"":32,""src"":19,""x"":16,""y"":317},{""cat"":11,""src"":17,""x"":54,""y"":435}]","[{""cat"":""11"",""src"":""18"",""x"":0,""y"":0},{""cat"":""32"",""src"":""16"",""x"":0,""y"":0},{""cat"":""1"",""src"":""17"",""x"":0,""y"":0},{""cat"":""1"",""src"":""10"",""x"":0,""y"":0},{""cat"":""11"",""src"":""0"",""x"":0,""y"":0},{""cat"":""1"",""src"":""9"",""x"":0,""y"":0},{""cat"":""32"",""src"":""5"",""x"":0,""y"":0},{""cat"":""32"",""src"":""19"",""x"":0,""y"":0},{""cat"":""11"",""src"":""17"",""x"":0,""y"":0}]","[{""cat"":11,""src"":18,""loc"":0},{""cat"":32,""src"":16,""loc"":1},{""cat"":1,""src"":17,""loc"":2},{""cat"":1,""src"":10,""loc"":8},{""cat"":11,""src"":0,""loc"":5},{""cat"":1,""src"":9,""loc"":4},{""cat"":32,""src"":5,""loc"":3},{""cat"":32,""src"":19,""loc"":7},{""cat"":11,""src"":17,""loc"":6}]","9","11,32,1,32,1,11,11,32,1,18,16,17,5,9,0,17,19,10,0,1,2,3,4,5,6,7,8,0,1,2,6,5,4,8,7,3",NA
"1042","sort_feedback","75","html-keyboard-response","163","1284288","0.0-3.0-100.0","3","2020-1-8 10:23:14","ELEPHANT",NA,NA,NA,NA,NA,NA,NA,NA,NA,NA,NA,NA,NA,NA
NA,"breakStart",NA,"html-keyboard-response","164","1314284","0.0-4.0-0.0","3","2020-1-8 10:23:14","ELEPHANT",NA,NA,NA,NA,NA,NA,NA,NA,NA,NA,NA,NA,NA,NA
"2145","breakEnd",NA,"html-button-response","165","1316430","0.0-4.0-1.0","3","2020-1-8 10:23:14","ELEPHANT","0",NA,NA,NA,NA,NA,NA,NA,NA,NA,NA,NA,NA,NA
"19919","setup1",NA,"animation","166","1336350","0.0-5.0-0.0","3","2020-1-8 10:23:14","ELEPHANT",NA,NA,"[{""cat"":28,""src"":5,""loc"":8},{""cat"":28,""src"":3,""loc"":6},{""cat"":28,""src"":15,""loc"":7},{""cat"":26,""src"":16,""loc"":3},{""cat"":26,""src"":6,""loc"":4},{""cat"":26,""src"":18,""loc"":5},{""cat"":6,""src"":8,""loc"":1},{""cat"":6,""src"":19,""loc"":0},{""cat"":6,""src"":14,""loc"":2}]","1","1103,1101,1101,1103,1101,1101,1102,1103,1102,10002",NA,NA,NA,NA,NA,NA,NA,NA,NA
"1016","flanker_instructions","68","html-keyboard-response","167","1337367","0.0-5.0-1.0","3","2020-1-8 10:23:14","ELEPHANT",NA,NA,NA,NA,NA,NA,NA,NA,NA,NA,NA,NA,NA,NA
NA,"flanker_test",NA,"image-keyboard-response","168","1339274","0.0-5.0-2.0-0.0","3","2020-1-8 10:23:14","ELEPHANT",NA,NA,NA,NA,NA,"incongruent","right","FALSE",NA,NA,NA,NA,NA,NA
NA,"flanker_test",NA,"image-keyboard-response","169","1340637","0.0-5.0-2.0-0.1","3","2020-1-8 10:23:14","ELEPHANT",NA,NA,NA,NA,NA,"congruent","left","FALSE",NA,NA,NA,NA,NA,NA
NA,"flanker_test",NA,"image-keyboard-response","170","1342108","0.0-5.0-2.0-0.2","3","2020-1-8 10:23:14","ELEPHANT",NA,NA,NA,NA,NA,"congruent","right","FALSE",NA,NA,NA,NA,NA,NA
NA,"flanker_test",NA,"image-keyboard-response","171","1343868","0.0-5.0-2.0-0.3","3","2020-1-8 10:23:14","ELEPHANT",NA,NA,NA,NA,NA,"incongruent","left","FALSE",NA,NA,NA,NA,NA,NA
"22914","sort_trial",NA,"free-sort","172","1367575","0.0-5.0-3.0","3","2020-1-8 10:23:14","ELEPHANT",NA,NA,NA,NA,NA,NA,NA,NA,"[{""cat"":28,""src"":5,""x"":7,""y"":446},{""cat"":28,""src"":3,""x"":35,""y"":141},{""cat"":28,""src"":15,""x"":11,""y"":200},{""cat"":26,""src"":16,""x"":39,""y"":364},{""cat"":26,""src"":6,""x"":67,""y"":64},{""cat"":26,""src"":18,""x"":48,""y"":29},{""cat"":6,""src"":8,""x"":62,""y"":310},{""cat"":6,""src"":19,""x"":65,""y"":257},{""cat"":6,""src"":14,""x"":44,""y"":497}]","[{""cat"":""6"",""src"":""8"",""x"":0,""y"":0},{""cat"":""28"",""src"":""15"",""x"":0,""y"":0},{""cat"":""28"",""src"":""3"",""x"":0,""y"":0},{""cat"":""28"",""src"":""5"",""x"":0,""y"":0},{""cat"":""26"",""src"":""16"",""x"":0,""y"":0},{""cat"":""26"",""src"":""18"",""x"":0,""y"":0},{""cat"":""26"",""src"":""6"",""x"":0,""y"":0},{""cat"":""6"",""src"":""19"",""x"":0,""y"":0},{""cat"":""6"",""src"":""14"",""x"":0,""y"":0}]","[{""cat"":6,""src"":8,""loc"":1},{""cat"":28,""src"":15,""loc"":7},{""cat"":28,""src"":3,""loc"":6},{""cat"":28,""src"":5,""loc"":8},{""cat"":26,""src"":16,""loc"":3},{""cat"":26,""src"":18,""loc"":5},{""cat"":26,""src"":6,""loc"":4},{""cat"":6,""src"":19,""loc"":0},{""cat"":6,""src"":14,""loc"":2}]","9","6,6,6,26,26,26,28,28,28,19,8,14,16,6,18,3,15,5,0,1,2,3,4,5,6,7,8,7,0,8,4,6,5,2,1,3",NA
"1283","sort_feedback","75","html-keyboard-response","173","1368861","0.0-5.0-4.0","3","2020-1-8 10:23:14","ELEPHANT",NA,NA,NA,NA,NA,NA,NA,NA,NA,NA,NA,NA,NA,NA
"19922","setup4",NA,"animation","174","1388783","0.0-5.0-5.0","3","2020-1-8 10:23:14","ELEPHANT",NA,NA,"[{""cat"":26,""src"":11,""loc"":5},{""cat"":26,""src"":14,""loc"":1},{""cat"":26,""src"":1,""loc"":7},{""cat"":14,""src"":1,""loc"":8},{""cat"":14,""src"":0,""loc"":4},{""cat"":14,""src"":14,""loc"":0},{""cat"":16,""src"":12,""loc"":6},{""cat"":16,""src"":1,""loc"":3},{""cat"":16,""src"":13,""loc"":2}]","4","1104,1102,1102,1101,1103,1102,1102,1103,1102,10001",NA,NA,NA,NA,NA,NA,NA,NA,NA
"1656","flanker_instructions","75","html-keyboard-response","175","1390440","0.0-5.0-6.0","3","2020-1-8 10:23:14","ELEPHANT",NA,NA,NA,NA,NA,NA,NA,NA,NA,NA,NA,NA,NA,NA
NA,"flanker_test",NA,"image-keyboard-response","176","1392344","0.0-5.0-7.0-0.0","3","2020-1-8 10:23:14","ELEPHANT",NA,NA,NA,NA,NA,"congruent","right","FALSE",NA,NA,NA,NA,NA,NA
NA,"flanker_test",NA,"image-keyboard-response","177","1394313","0.0-5.0-7.0-0.1","3","2020-1-8 10:23:14","ELEPHANT",NA,NA,NA,NA,NA,"congruent","left","FALSE",NA,NA,NA,NA,NA,NA
NA,"flanker_test",NA,"image-keyboard-response","178","1395792","0.0-5.0-7.0-0.2","3","2020-1-8 10:23:14","ELEPHANT",NA,NA,NA,NA,NA,"incongruent","right","FALSE",NA,NA,NA,NA,NA,NA
NA,"flanker_test",NA,"image-keyboard-response","179","1397779","0.0-5.0-7.0-0.3","3","2020-1-8 10:23:14","ELEPHANT",NA,NA,NA,NA,NA,"incongruent","left","FALSE",NA,NA,NA,NA,NA,NA
"18039","sort_trial",NA,"free-sort","180","1416888","0.0-5.0-8.0","3","2020-1-8 10:23:14","ELEPHANT",NA,NA,NA,NA,NA,NA,NA,NA,"[{""cat"":26,""src"":11,""x"":39,""y"":429},{""cat"":26,""src"":14,""x"":81,""y"":5},{""cat"":26,""src"":1,""x"":1,""y"":267},{""cat"":14,""src"":1,""x"":17,""y"":495},{""cat"":14,""src"":0,""x"":34,""y"":362},{""cat"":14,""src"":14,""x"":56,""y"":317},{""cat"":16,""src"":12,""x"":41,""y"":61},{""cat"":16,""src"":1,""x"":28,""y"":129},{""cat"":16,""src"":13,""x"":75,""y"":209}]","[{""cat"":""14"",""src"":""14"",""x"":0,""y"":0},{""cat"":""26"",""src"":""14"",""x"":0,""y"":0},{""cat"":""16"",""src"":""12"",""x"":0,""y"":0},{""cat"":""26"",""src"":""1"",""x"":0,""y"":0},{""cat"":""14"",""src"":""1"",""x"":0,""y"":0},{""cat"":""26"",""src"":""11"",""x"":0,""y"":0},{""cat"":""14"",""src"":""0"",""x"":0,""y"":0},{""cat"":""16"",""src"":""13"",""x"":0,""y"":0},{""cat"":""16"",""src"":""1"",""x"":0,""y"":0}]","[{""cat"":14,""src"":14,""loc"":0},{""cat"":26,""src"":14,""loc"":1},{""cat"":16,""src"":12,""loc"":6},{""cat"":26,""src"":1,""loc"":7},{""cat"":14,""src"":1,""loc"":8},{""cat"":26,""src"":11,""loc"":5},{""cat"":14,""src"":0,""loc"":4},{""cat"":16,""src"":13,""loc"":2},{""cat"":16,""src"":1,""loc"":3}]","9","14,26,16,16,14,26,16,26,14,14,14,13,1,0,11,12,1,1,0,1,2,3,4,5,6,7,8,0,1,7,8,6,5,2,3,4",NA
"566","sort_feedback","68","html-keyboard-response","181","1417457","0.0-5.0-9.0","3","2020-1-8 10:23:14","ELEPHANT",NA,NA,NA,NA,NA,NA,NA,NA,NA,NA,NA,NA,NA,NA
"19924","setup2",NA,"animation","182","1437382","0.0-5.0-10.0","3","2020-1-8 10:23:14","ELEPHANT",NA,NA,"[{""cat"":33,""src"":6,""loc"":7},{""cat"":11,""src"":8,""loc"":6},{""cat"":23,""src"":7,""loc"":8},{""cat"":23,""src"":8,""loc"":4},{""cat"":33,""src"":13,""loc"":5},{""cat"":11,""src"":16,""loc"":3},{""cat"":33,""src"":19,""loc"":0},{""cat"":11,""src"":10,""loc"":2},{""cat"":23,""src"":4,""loc"":1}]","2","1103,1107,1102,1102,1103,1102,1102,1102,1101,10000",NA,NA,NA,NA,NA,NA,NA,NA,NA
"43467","flanker_instructions","68","html-keyboard-response","183","1480851","0.0-5.0-11.0","3","2020-1-8 10:23:14","ELEPHANT",NA,NA,NA,NA,NA,NA,NA,NA,NA,NA,NA,NA,NA,NA
NA,"flanker_test",NA,"image-keyboard-response","184","1482756","0.0-5.0-12.0-0.0","3","2020-1-8 10:23:14","ELEPHANT",NA,NA,NA,NA,NA,"incongruent","right","FALSE",NA,NA,NA,NA,NA,NA
NA,"flanker_test",NA,"image-keyboard-response","185","1484484","0.0-5.0-12.0-0.1","3","2020-1-8 10:23:14","ELEPHANT",NA,NA,NA,NA,NA,"congruent","right","FALSE",NA,NA,NA,NA,NA,NA
NA,"flanker_test",NA,"image-keyboard-response","186","1485740","0.0-5.0-12.0-0.2","3","2020-1-8 10:23:14","ELEPHANT",NA,NA,NA,NA,NA,"congruent","left","FALSE",NA,NA,NA,NA,NA,NA
NA,"flanker_test",NA,"image-keyboard-response","187","1487004","0.0-5.0-12.0-0.3","3","2020-1-8 10:23:14","ELEPHANT",NA,NA,NA,NA,NA,"incongruent","left","FALSE",NA,NA,NA,NA,NA,NA
"39755","sort_trial",NA,"free-sort","188","1527562","0.0-5.0-13.0","3","2020-1-8 10:23:14","ELEPHANT",NA,NA,NA,NA,NA,NA,NA,NA,"[{""cat"":33,""src"":6,""x"":20,""y"":385},{""cat"":11,""src"":8,""x"":29,""y"":126},{""cat"":23,""src"":7,""x"":78,""y"":487},{""cat"":23,""src"":8,""x"":79,""y"":433},{""cat"":33,""src"":13,""x"":44,""y"":80},{""cat"":11,""src"":16,""x"":52,""y"":3},{""cat"":33,""src"":19,""x"":26,""y"":240},{""cat"":11,""src"":10,""x"":26,""y"":309},{""cat"":23,""src"":4,""x"":0,""y"":205}]","[{""cat"":""33"",""src"":""13"",""x"":0,""y"":0},{""cat"":""23"",""src"":""8"",""x"":0,""y"":0},{""cat"":""11"",""src"":""16"",""x"":0,""y"":0},{""cat"":""11"",""src"":""8"",""x"":0,""y"":0},{""cat"":""23"",""src"":""7"",""x"":0,""y"":0},{""cat"":""33"",""src"":""6"",""x"":0,""y"":0},{""cat"":""33"",""src"":""19"",""x"":0,""y"":0},{""cat"":""23"",""src"":""4"",""x"":0,""y"":0},{""cat"":""11"",""src"":""10"",""x"":0,""y"":0}]","[{""cat"":33,""src"":13,""loc"":5},{""cat"":23,""src"":8,""loc"":4},{""cat"":11,""src"":16,""loc"":3},{""cat"":11,""src"":8,""loc"":6},{""cat"":23,""src"":7,""loc"":8},{""cat"":33,""src"":6,""loc"":7},{""cat"":33,""src"":19,""loc"":0},{""cat"":23,""src"":4,""loc"":1},{""cat"":11,""src"":10,""loc"":2}]","9","33,23,11,11,23,33,11,33,23,19,4,10,16,8,13,8,6,7,0,1,2,3,4,5,6,7,8,6,7,8,2,1,0,3,5,4",NA
"1850","sort_feedback","75","html-keyboard-response","189","1529414","0.0-5.0-14.0","3","2020-1-8 10:23:14","ELEPHANT",NA,NA,NA,NA,NA,NA,NA,NA,NA,NA,NA,NA,NA,NA
"19914","setup3",NA,"animation","190","1549328","0.0-5.0-15.0","3","2020-1-8 10:23:14","ELEPHANT",NA,NA,"[{""cat"":10,""src"":16,""loc"":3},{""cat"":29,""src"":6,""loc"":8},{""cat"":23,""src"":11,""loc"":2},{""cat"":10,""src"":8,""loc"":5},{""cat"":29,""src"":4,""loc"":6},{""cat"":23,""src"":6,""loc"":1},{""cat"":29,""src"":10,""loc"":7},{""cat"":23,""src"":16,""loc"":0},{""cat"":10,""src"":4,""loc"":4}]","3","1103,1102,1102,1101,1102,1102,1103,1102,1101,9995",NA,NA,NA,NA,NA,NA,NA,NA,NA
"593","flanker_instructions","75","html-keyboard-response","191","1549923","0.0-5.0-16.0","3","2020-1-8 10:23:14","ELEPHANT",NA,NA,NA,NA,NA,NA,NA,NA,NA,NA,NA,NA,NA,NA
NA,"flanker_test",NA,"image-keyboard-response","192","1551826","0.0-5.0-17.0-0.0","3","2020-1-8 10:23:14","ELEPHANT",NA,NA,NA,NA,NA,"incongruent","left","FALSE",NA,NA,NA,NA,NA,NA
NA,"flanker_test",NA,"image-keyboard-response","193","1553801","0.0-5.0-17.0-0.1","3","2020-1-8 10:23:14","ELEPHANT",NA,NA,NA,NA,NA,"incongruent","right","FALSE",NA,NA,NA,NA,NA,NA
NA,"flanker_test",NA,"image-keyboard-response","194","1555603","0.0-5.0-17.0-0.2","3","2020-1-8 10:23:14","ELEPHANT",NA,NA,NA,NA,NA,"congruent","left","FALSE",NA,NA,NA,NA,NA,NA
NA,"flanker_test",NA,"image-keyboard-response","195","1557670","0.0-5.0-17.0-0.3","3","2020-1-8 10:23:14","ELEPHANT",NA,NA,NA,NA,NA,"congruent","right","FALSE",NA,NA,NA,NA,NA,NA
"21859","sort_trial",NA,"free-sort","196","1580226","0.0-5.0-18.0","3","2020-1-8 10:23:14","ELEPHANT",NA,NA,NA,NA,NA,NA,NA,NA,"[{""cat"":10,""src"":16,""x"":78,""y"":424},{""cat"":29,""src"":6,""x"":69,""y"":204},{""cat"":23,""src"":11,""x"":5,""y"":309},{""cat"":10,""src"":8,""x"":44,""y"":71},{""cat"":29,""src"":4,""x"":33,""y"":501},{""cat"":23,""src"":6,""x"":14,""y"":0},{""cat"":29,""src"":10,""x"":40,""y"":143},{""cat"":23,""src"":16,""x"":71,""y"":384},{""cat"":10,""src"":4,""x"":70,""y"":251}]","[{""cat"":""23"",""src"":""6"",""x"":0,""y"":0},{""cat"":""23"",""src"":""11"",""x"":0,""y"":0},{""cat"":""29"",""src"":""10"",""x"":0,""y"":0},{""cat"":""29"",""src"":""4"",""x"":0,""y"":0},{""cat"":""29"",""src"":""6"",""x"":0,""y"":0},{""cat"":""10"",""src"":""16"",""x"":0,""y"":0},{""cat"":""10"",""src"":""8"",""x"":0,""y"":0},{""cat"":""10"",""src"":""4"",""x"":0,""y"":0},{""cat"":""23"",""src"":""16"",""x"":0,""y"":0}]","[{""cat"":23,""src"":6,""loc"":1},{""cat"":23,""src"":11,""loc"":2},{""cat"":29,""src"":10,""loc"":7},{""cat"":29,""src"":4,""loc"":6},{""cat"":29,""src"":6,""loc"":8},{""cat"":10,""src"":16,""loc"":3},{""cat"":10,""src"":8,""loc"":5},{""cat"":10,""src"":4,""loc"":0},{""cat"":23,""src"":16,""loc"":4}]","7","10,23,23,10,23,10,29,29,29,4,6,11,16,16,8,4,10,6,0,1,2,3,4,5,6,7,8,7,0,1,5,8,6,3,2,4",NA
"500","sort_feedback","68","html-keyboard-response","197","1580728","0.0-5.0-19.0","3","2020-1-8 10:23:14","ELEPHANT",NA,NA,NA,NA,NA,NA,NA,NA,NA,NA,NA,NA,NA,NA
"19919","setup5",NA,"animation","198","1600648","0.0-5.0-20.0","3","2020-1-8 10:23:14","ELEPHANT",NA,NA,"[{""cat"":7,""src"":15,""loc"":8},{""cat"":12,""src"":0,""loc"":5},{""cat"":6,""src"":12,""loc"":0},{""cat"":12,""src"":15,""loc"":7},{""cat"":7,""src"":16,""loc"":1},{""cat"":6,""src"":17,""loc"":4},{""cat"":12,""src"":17,""loc"":2},{""cat"":7,""src"":7,""loc"":3},{""cat"":6,""src"":14,""loc"":6}]","5","1103,1101,1102,1102,1102,1101,1103,1102,1102,10001",NA,NA,NA,NA,NA,NA,NA,NA,NA
"1142","flanker_instructions","68","html-keyboard-response","199","1601791","0.0-5.0-21.0","3","2020-1-8 10:23:14","ELEPHANT",NA,NA,NA,NA,NA,NA,NA,NA,NA,NA,NA,NA,NA,NA
NA,"flanker_test",NA,"image-keyboard-response","200","1603695","0.0-5.0-22.0-0.0","3","2020-1-8 10:23:14","ELEPHANT",NA,NA,NA,NA,NA,"congruent","left","FALSE",NA,NA,NA,NA,NA,NA
NA,"flanker_test",NA,"image-keyboard-response","201","1605134","0.0-5.0-22.0-0.1","3","2020-1-8 10:23:14","ELEPHANT",NA,NA,NA,NA,NA,"congruent","right","FALSE",NA,NA,NA,NA,NA,NA
NA,"flanker_test",NA,"image-keyboard-response","202","1606667","0.0-5.0-22.0-0.2","3","2020-1-8 10:23:14","ELEPHANT",NA,NA,NA,NA,NA,"incongruent","right","FALSE",NA,NA,NA,NA,NA,NA
NA,"flanker_test",NA,"image-keyboard-response","203","1608350","0.0-5.0-22.0-0.3","3","2020-1-8 10:23:14","ELEPHANT",NA,NA,NA,NA,NA,"incongruent","left","FALSE",NA,NA,NA,NA,NA,NA
"33003","sort_trial",NA,"free-sort","204","1641788","0.0-5.0-23.0","3","2020-1-8 10:23:14","ELEPHANT",NA,NA,NA,NA,NA,NA,NA,NA,"[{""cat"":7,""src"":15,""x"":79,""y"":312},{""cat"":12,""src"":0,""x"":49,""y"":87},{""cat"":6,""src"":12,""x"":1,""y"":6},{""cat"":12,""src"":15,""x"":81,""y"":433},{""cat"":7,""src"":16,""x"":56,""y"":184},{""cat"":6,""src"":17,""x"":43,""y"":137},{""cat"":12,""src"":17,""x"":70,""y"":485},{""cat"":7,""src"":7,""x"":62,""y"":373},{""cat"":6,""src"":14,""x"":51,""y"":250}]","[{""cat"":""12"",""src"":""0"",""x"":0,""y"":0},{""cat"":""6"",""src"":""17"",""x"":0,""y"":0},{""cat"":""12"",""src"":""15"",""x"":0,""y"":0},{""cat"":""7"",""src"":""15"",""x"":0,""y"":0},{""cat"":""6"",""src"":""12"",""x"":0,""y"":0},{""cat"":""7"",""src"":""16"",""x"":0,""y"":0},{""cat"":""6"",""src"":""14"",""x"":0,""y"":0},{""cat"":""7"",""src"":""7"",""x"":0,""y"":0},{""cat"":""12"",""src"":""17"",""x"":0,""y"":0}]","[{""cat"":12,""src"":0,""loc"":5},{""cat"":6,""src"":17,""loc"":4},{""cat"":12,""src"":15,""loc"":7},{""cat"":7,""src"":15,""loc"":8},{""cat"":6,""src"":12,""loc"":0},{""cat"":7,""src"":16,""loc"":1},{""cat"":6,""src"":14,""loc"":2},{""cat"":7,""src"":7,""loc"":6},{""cat"":12,""src"":17,""loc"":3}]","6","6,7,6,12,6,12,7,12,7,12,16,14,17,17,0,7,15,15,0,1,2,3,4,5,6,7,8,4,5,6,8,1,0,7,2,3",NA
"4737","sort_feedback","70","html-keyboard-response","205","1646526","0.0-5.0-24.0","3","2020-1-8 10:23:14","ELEPHANT",NA,NA,NA,NA,NA,NA,NA,NA,NA,NA,NA,NA,NA,NA
"19918","setup1",NA,"animation","206","1666445","0.0-5.0-25.0","3","2020-1-8 10:23:14","ELEPHANT",NA,NA,"[{""cat"":33,""src"":18,""loc"":0},{""cat"":33,""src"":6,""loc"":1},{""cat"":33,""src"":14,""loc"":2},{""cat"":4,""src"":0,""loc"":4},{""cat"":4,""src"":15,""loc"":3},{""cat"":4,""src"":11,""loc"":5},{""cat"":13,""src"":10,""loc"":8},{""cat"":13,""src"":12,""loc"":6},{""cat"":13,""src"":0,""loc"":7}]","1","1103,1102,1101,1101,1101,1103,1102,1101,1103,10001",NA,NA,NA,NA,NA,NA,NA,NA,NA
"7068","flanker_instructions","83","html-keyboard-response","207","1673515","0.0-5.0-26.0","3","2020-1-8 10:23:14","ELEPHANT",NA,NA,NA,NA,NA,NA,NA,NA,NA,NA,NA,NA,NA,NA
NA,"flanker_test",NA,"image-keyboard-response","208","1675419","0.0-5.0-27.0-0.0","3","2020-1-8 10:23:14","ELEPHANT",NA,NA,NA,NA,NA,"incongruent","left","FALSE",NA,NA,NA,NA,NA,NA
NA,"flanker_test",NA,"image-keyboard-response","209","1677025","0.0-5.0-27.0-0.1","3","2020-1-8 10:23:14","ELEPHANT",NA,NA,NA,NA,NA,"congruent","left","FALSE",NA,NA,NA,NA,NA,NA
NA,"flanker_test",NA,"image-keyboard-response","210","1678398","0.0-5.0-27.0-0.2","3","2020-1-8 10:23:14","ELEPHANT",NA,NA,NA,NA,NA,"incongruent","right","FALSE",NA,NA,NA,NA,NA,NA
NA,"flanker_test",NA,"image-keyboard-response","211","1679677","0.0-5.0-27.0-0.3","3","2020-1-8 10:23:14","ELEPHANT",NA,NA,NA,NA,NA,"congruent","right","FALSE",NA,NA,NA,NA,NA,NA
"98668","sort_trial",NA,"free-sort","212","1779200","0.0-5.0-28.0","3","2020-1-8 10:23:14","ELEPHANT",NA,NA,NA,NA,NA,NA,NA,NA,"[{""cat"":33,""src"":18,""x"":65,""y"":196},{""cat"":33,""src"":6,""x"":63,""y"":124},{""cat"":33,""src"":14,""x"":59,""y"":309},{""cat"":4,""src"":0,""x"":63,""y"":25},{""cat"":4,""src"":15,""x"":59,""y"":367},{""cat"":4,""src"":11,""x"":5,""y"":498},{""cat"":13,""src"":10,""x"":15,""y"":246},{""cat"":13,""src"":12,""x"":80,""y"":79},{""cat"":13,""src"":0,""x"":78,""y"":432}]","[{""cat"":""4"",""src"":""11"",""x"":0,""y"":0},{""cat"":""4"",""src"":""0"",""x"":0,""y"":0},{""cat"":""4"",""src"":""15"",""x"":0,""y"":0},{""cat"":""13"",""src"":""10"",""x"":0,""y"":0},{""cat"":""13"",""src"":""12"",""x"":0,""y"":0},{""cat"":""13"",""src"":""0"",""x"":0,""y"":0},{""cat"":""33"",""src"":""14"",""x"":0,""y"":0},{""cat"":""33"",""src"":""18"",""x"":56,""y"":216},{""cat"":""33"",""src"":""18"",""x"":61,""y"":198},{""cat"":""33"",""src"":""18"",""x"":0,""y"":0},{""cat"":""33"",""src"":""6"",""x"":0,""y"":0}]","[{""cat"":4,""src"":11,""loc"":5},{""cat"":4,""src"":0,""loc"":4},{""cat"":4,""src"":15,""loc"":3},{""cat"":13,""src"":10,""loc"":8},{""cat"":13,""src"":12,""loc"":6},{""cat"":13,""src"":0,""loc"":7},{""cat"":33,""src"":14,""loc"":2},{""cat"":33,""src"":18,""loc"":0},{""cat"":33,""src"":6,""loc"":1}]","9","33,33,33,4,4,4,13,13,13,18,6,14,15,0,11,12,0,10,0,1,2,3,4,5,6,7,8,7,8,6,2,1,0,4,5,3",NA
"1317","sort_feedback","68","html-keyboard-response","213","1780518","0.0-5.0-29.0","3","2020-1-8 10:23:14","ELEPHANT",NA,NA,NA,NA,NA,NA,NA,NA,NA,NA,NA,NA,NA,NA
"19917","setup3",NA,"animation","214","1800436","0.0-5.0-30.0","3","2020-1-8 10:23:14","ELEPHANT",NA,NA,"[{""cat"":31,""src"":18,""loc"":3},{""cat"":24,""src"":9,""loc"":6},{""cat"":20,""src"":9,""loc"":0},{""cat"":24,""src"":4,""loc"":8},{""cat"":20,""src"":19,""loc"":2},{""cat"":31,""src"":8,""loc"":5},{""cat"":31,""src"":11,""loc"":4},{""cat"":20,""src"":0,""loc"":1},{""cat"":24,""src"":19,""loc"":7}]","3","1101,1102,1102,1102,1101,1102,1101,1103,1102,10001",NA,NA,NA,NA,NA,NA,NA,NA,NA
"22459","flanker_instructions","83","html-keyboard-response","215","1822897","0.0-5.0-31.0","3","2020-1-8 10:23:14","ELEPHANT",NA,NA,NA,NA,NA,NA,NA,NA,NA,NA,NA,NA,NA,NA
NA,"flanker_test",NA,"image-keyboard-response","216","1824805","0.0-5.0-32.0-0.0","3","2020-1-8 10:23:14","ELEPHANT",NA,NA,NA,NA,NA,"incongruent","right","FALSE",NA,NA,NA,NA,NA,NA
NA,"flanker_test",NA,"image-keyboard-response","217","1826513","0.0-5.0-32.0-0.1","3","2020-1-8 10:23:14","ELEPHANT",NA,NA,NA,NA,NA,"congruent","right","FALSE",NA,NA,NA,NA,NA,NA
NA,"flanker_test",NA,"image-keyboard-response","218","1828275","0.0-5.0-32.0-0.2","3","2020-1-8 10:23:14","ELEPHANT",NA,NA,NA,NA,NA,"congruent","left","FALSE",NA,NA,NA,NA,NA,NA
NA,"flanker_test",NA,"image-keyboard-response","219","1830024","0.0-5.0-32.0-0.3","3","2020-1-8 10:23:14","ELEPHANT",NA,NA,NA,NA,NA,"incongruent","left","FALSE",NA,NA,NA,NA,NA,NA
"45656","sort_trial",NA,"free-sort","220","1876316","0.0-5.0-33.0","3","2020-1-8 10:23:14","ELEPHANT",NA,NA,NA,NA,NA,NA,NA,NA,"[{""cat"":31,""src"":18,""x"":51,""y"":445},{""cat"":24,""src"":9,""x"":15,""y"":327},{""cat"":20,""src"":9,""x"":61,""y"":139},{""cat"":24,""src"":4,""x"":82,""y"":193},{""cat"":20,""src"":19,""x"":43,""y"":69},{""cat"":31,""src"":8,""x"":55,""y"":496},{""cat"":31,""src"":11,""x"":40,""y"":387},{""cat"":20,""src"":0,""x"":27,""y"":7},{""cat"":24,""src"":19,""x"":23,""y"":243}]","[{""cat"":""20"",""src"":""9"",""x"":315,""y"":143},{""cat"":""20"",""src"":""9"",""x"":0,""y"":0},{""cat"":""20"",""src"":""19"",""x"":0,""y"":0},{""cat"":""24"",""src"":""9"",""x"":0,""y"":0},{""cat"":""24"",""src"":""4"",""x"":0,""y"":0},{""cat"":""31"",""src"":""8"",""x"":0,""y"":0},{""cat"":""31"",""src"":""11"",""x"":0,""y"":0},{""cat"":""31"",""src"":""18"",""x"":0,""y"":0},{""cat"":""24"",""src"":""19"",""x"":0,""y"":0},{""cat"":""20"",""src"":""0"",""x"":0,""y"":0}]","[{""cat"":20,""src"":9,""loc"":0},{""cat"":20,""src"":19,""loc"":2},{""cat"":24,""src"":9,""loc"":6},{""cat"":24,""src"":4,""loc"":8},{""cat"":31,""src"":8,""loc"":5},{""cat"":31,""src"":11,""loc"":4},{""cat"":31,""src"":18,""loc"":3},{""cat"":24,""src"":19,""loc"":7},{""cat"":20,""src"":0,""loc"":1}]","9","20,20,20,31,31,31,24,24,24,9,0,19,18,11,8,9,19,4,0,1,2,3,4,5,6,7,8,0,8,1,6,5,4,2,7,3",NA
"1147","sort_feedback","75","html-keyboard-response","221","1877466","0.0-5.0-34.0","3","2020-1-8 10:23:14","ELEPHANT",NA,NA,NA,NA,NA,NA,NA,NA,NA,NA,NA,NA,NA,NA
"19916","setup2",NA,"animation","222","1897382","0.0-5.0-35.0","3","2020-1-8 10:23:14","ELEPHANT",NA,NA,"[{""cat"":2,""src"":13,""loc"":4},{""cat"":9,""src"":9,""loc"":5},{""cat"":29,""src"":12,""loc"":3},{""cat"":29,""src"":9,""loc"":1},{""cat"":2,""src"":15,""loc"":0},{""cat"":9,""src"":7,""loc"":2},{""cat"":29,""src"":2,""loc"":8},{""cat"":9,""src"":18,""loc"":6},{""cat"":2,""src"":2,""loc"":7}]","2","1103,1102,1102,1102,1097,1102,1102,1103,1102,10001",NA,NA,NA,NA,NA,NA,NA,NA,NA
"2607","flanker_instructions","75","html-keyboard-response","223","1899990","0.0-5.0-36.0","3","2020-1-8 10:23:14","ELEPHANT",NA,NA,NA,NA,NA,NA,NA,NA,NA,NA,NA,NA,NA,NA
NA,"flanker_test",NA,"image-keyboard-response","224","1901894","0.0-5.0-37.0-0.0","3","2020-1-8 10:23:14","ELEPHANT",NA,NA,NA,NA,NA,"incongruent","left","FALSE",NA,NA,NA,NA,NA,NA
NA,"flanker_test",NA,"image-keyboard-response","225","1903835","0.0-5.0-37.0-0.1","3","2020-1-8 10:23:14","ELEPHANT",NA,NA,NA,NA,NA,"incongruent","right","FALSE",NA,NA,NA,NA,NA,NA
NA,"flanker_test",NA,"image-keyboard-response","226","1905863","0.0-5.0-37.0-0.2","3","2020-1-8 10:23:14","ELEPHANT",NA,NA,NA,NA,NA,"congruent","left","FALSE",NA,NA,NA,NA,NA,NA
NA,"flanker_test",NA,"image-keyboard-response","227","1907338","0.0-5.0-37.0-0.3","3","2020-1-8 10:23:14","ELEPHANT",NA,NA,NA,NA,NA,"congruent","right","FALSE",NA,NA,NA,NA,NA,NA
"28792","sort_trial",NA,"free-sort","228","1937048","0.0-5.0-38.0","3","2020-1-8 10:23:14","ELEPHANT",NA,NA,NA,NA,NA,NA,NA,NA,"[{""cat"":2,""src"":13,""x"":0,""y"":365},{""cat"":9,""src"":9,""x"":77,""y"":73},{""cat"":29,""src"":12,""x"":34,""y"":197},{""cat"":29,""src"":9,""x"":45,""y"":257},{""cat"":2,""src"":15,""x"":58,""y"":133},{""cat"":9,""src"":7,""x"":11,""y"":437},{""cat"":29,""src"":2,""x"":37,""y"":307},{""cat"":9,""src"":18,""x"":4,""y"":0},{""cat"":2,""src"":2,""x"":79,""y"":500}]","[{""cat"":""29"",""src"":""9"",""x"":0,""y"":0},{""cat"":""2"",""src"":""15"",""x"":0,""y"":0},{""cat"":""9"",""src"":""7"",""x"":0,""y"":0},{""cat"":""9"",""src"":""9"",""x"":0,""y"":0},{""cat"":""2"",""src"":""13"",""x"":0,""y"":0},{""cat"":""29"",""src"":""12"",""x"":0,""y"":0},{""cat"":""2"",""src"":""2"",""x"":0,""y"":0},{""cat"":""29"",""src"":""2"",""x"":0,""y"":0},{""cat"":""9"",""src"":""18"",""x"":0,""y"":0}]","[{""cat"":29,""src"":9,""loc"":1},{""cat"":2,""src"":15,""loc"":0},{""cat"":9,""src"":7,""loc"":2},{""cat"":9,""src"":9,""loc"":5},{""cat"":2,""src"":13,""loc"":4},{""cat"":29,""src"":12,""loc"":3},{""cat"":2,""src"":2,""loc"":7},{""cat"":29,""src"":2,""loc"":6},{""cat"":9,""src"":18,""loc"":8}]","7","2,29,9,29,2,9,29,2,9,15,9,7,12,13,9,2,2,18,0,1,2,3,4,5,6,7,8,1,0,2,5,4,3,7,6,8",NA
"1154","sort_feedback","75","html-keyboard-response","229","1938204","0.0-5.0-39.0","3","2020-1-8 10:23:14","ELEPHANT",NA,NA,NA,NA,NA,NA,NA,NA,NA,NA,NA,NA,NA,NA
"19914","setup4",NA,"animation","230","1958118","0.0-5.0-40.0","3","2020-1-8 10:23:14","ELEPHANT",NA,NA,"[{""cat"":18,""src"":8,""loc"":4},{""cat"":18,""src"":3,""loc"":0},{""cat"":18,""src"":12,""loc"":6},{""cat"":3,""src"":4,""loc"":1},{""cat"":3,""src"":10,""loc"":7},{""cat"":3,""src"":9,""loc"":3},{""cat"":29,""src"":12,""loc"":2},{""cat"":29,""src"":10,""loc"":5},{""cat"":29,""src"":7,""loc"":8}]","4","1103,1101,1103,1101,1097,1102,1103,1102,1101,10001",NA,NA,NA,NA,NA,NA,NA,NA,NA
"1995","flanker_instructions","83","html-keyboard-response","231","1960115","0.0-5.0-41.0","3","2020-1-8 10:23:14","ELEPHANT",NA,NA,NA,NA,NA,NA,NA,NA,NA,NA,NA,NA,NA,NA
NA,"flanker_test",NA,"image-keyboard-response","232","1962018","0.0-5.0-42.0-0.0","3","2020-1-8 10:23:14","ELEPHANT",NA,NA,NA,NA,NA,"incongruent","left","FALSE",NA,NA,NA,NA,NA,NA
NA,"flanker_test",NA,"image-keyboard-response","233","1963903","0.0-5.0-42.0-0.1","3","2020-1-8 10:23:14","ELEPHANT",NA,NA,NA,NA,NA,"congruent","right","FALSE",NA,NA,NA,NA,NA,NA
NA,"flanker_test",NA,"image-keyboard-response","234","1965494","0.0-5.0-42.0-0.2","3","2020-1-8 10:23:14","ELEPHANT",NA,NA,NA,NA,NA,"congruent","left","FALSE",NA,NA,NA,NA,NA,NA
NA,"flanker_test",NA,"image-keyboard-response","235","1966900","0.0-5.0-42.0-0.3","3","2020-1-8 10:23:14","ELEPHANT",NA,NA,NA,NA,NA,"incongruent","right","FALSE",NA,NA,NA,NA,NA,NA
"103672","sort_trial",NA,"free-sort","236","2071430","0.0-5.0-43.0","3","2020-1-8 10:23:14","ELEPHANT",NA,NA,NA,NA,NA,NA,NA,NA,"[{""cat"":18,""src"":8,""x"":80,""y"":1},{""cat"":18,""src"":3,""x"":43,""y"":368},{""cat"":18,""src"":12,""x"":17,""y"":305},{""cat"":3,""src"":4,""x"":42,""y"":437},{""cat"":3,""src"":10,""x"":26,""y"":268},{""cat"":3,""src"":9,""x"":79,""y"":192},{""cat"":29,""src"":12,""x"":65,""y"":80},{""cat"":29,""src"":10,""x"":37,""y"":132},{""cat"":29,""src"":7,""x"":35,""y"":496}]","[{""cat"":""3"",""src"":""4"",""x"":0,""y"":0},{""cat"":""18"",""src"":""12"",""x"":0,""y"":0},{""cat"":""3"",""src"":""10"",""x"":0,""y"":0},{""cat"":""18"",""src"":""3"",""x"":0,""y"":0},{""cat"":""29"",""src"":""10"",""x"":0,""y"":0},{""cat"":""3"",""src"":""9"",""x"":0,""y"":0},{""cat"":""18"",""src"":""8"",""x"":0,""y"":0},{""cat"":""29"",""src"":""7"",""x"":0,""y"":0},{""cat"":""29"",""src"":""12"",""x"":0,""y"":0}]","[{""cat"":3,""src"":4,""loc"":1},{""cat"":18,""src"":12,""loc"":6},{""cat"":3,""src"":10,""loc"":7},{""cat"":18,""src"":3,""loc"":0},{""cat"":29,""src"":10,""loc"":2},{""cat"":3,""src"":9,""loc"":3},{""cat"":18,""src"":8,""loc"":4},{""cat"":29,""src"":7,""loc"":8},{""cat"":29,""src"":12,""loc"":5}]","7","18,3,29,3,18,29,18,3,29,3,4,10,9,8,12,12,10,7,0,1,2,3,4,5,6,7,8,3,0,4,5,6,8,1,2,7",NA
"1105","sort_feedback","75","html-keyboard-response","237","2072536","0.0-5.0-44.0","3","2020-1-8 10:23:14","ELEPHANT",NA,NA,NA,NA,NA,NA,NA,NA,NA,NA,NA,NA,NA,NA
"19930","setup5",NA,"animation","238","2092467","0.0-5.0-45.0","3","2020-1-8 10:23:14","ELEPHANT",NA,NA,"[{""cat"":16,""src"":2,""loc"":1},{""cat"":33,""src"":15,""loc"":3},{""cat"":19,""src"":5,""loc"":7},{""cat"":19,""src"":19,""loc"":0},{""cat"":33,""src"":10,""loc"":8},{""cat"":16,""src"":19,""loc"":4},{""cat"":16,""src"":18,""loc"":6},{""cat"":19,""src"":15,""loc"":5},{""cat"":33,""src"":14,""loc"":2}]","5","1104,1101,1111,1104,1102,1102,1101,1101,1102,10002",NA,NA,NA,NA,NA,NA,NA,NA,NA
"2066","flanker_instructions","75","html-keyboard-response","239","2094535","0.0-5.0-46.0","3","2020-1-8 10:23:14","ELEPHANT",NA,NA,NA,NA,NA,NA,NA,NA,NA,NA,NA,NA,NA,NA
NA,"flanker_test",NA,"image-keyboard-response","240","2096440","0.0-5.0-47.0-0.0","3","2020-1-8 10:23:14","ELEPHANT",NA,NA,NA,NA,NA,"incongruent","left","FALSE",NA,NA,NA,NA,NA,NA
NA,"flanker_test",NA,"image-keyboard-response","241","2097889","0.0-5.0-47.0-0.1","3","2020-1-8 10:23:14","ELEPHANT",NA,NA,NA,NA,NA,"congruent","right","FALSE",NA,NA,NA,NA,NA,NA
NA,"flanker_test",NA,"image-keyboard-response","242","2099207","0.0-5.0-47.0-0.2","3","2020-1-8 10:23:14","ELEPHANT",NA,NA,NA,NA,NA,"incongruent","right","FALSE",NA,NA,NA,NA,NA,NA
NA,"flanker_test",NA,"image-keyboard-response","243","2100570","0.0-5.0-47.0-0.3","3","2020-1-8 10:23:14","ELEPHANT",NA,NA,NA,NA,NA,"congruent","left","FALSE",NA,NA,NA,NA,NA,NA
"18174","sort_trial",NA,"free-sort","244","2119226","0.0-5.0-48.0","3","2020-1-8 10:23:14","ELEPHANT",NA,NA,NA,NA,NA,NA,NA,NA,"[{""cat"":16,""src"":2,""x"":4,""y"":81},{""cat"":33,""src"":15,""x"":65,""y"":266},{""cat"":19,""src"":5,""x"":29,""y"":183},{""cat"":19,""src"":19,""x"":18,""y"":376},{""cat"":33,""src"":10,""x"":10,""y"":128},{""cat"":16,""src"":19,""x"":47,""y"":419},{""cat"":16,""src"":18,""x"":58,""y"":3},{""cat"":19,""src"":15,""x"":40,""y"":305},{""cat"":33,""src"":14,""x"":57,""y"":506}]","[{""cat"":""16"",""src"":""2"",""x"":0,""y"":0},{""cat"":""19"",""src"":""19"",""x"":0,""y"":0},{""cat"":""16"",""src"":""18"",""x"":0,""y"":0},{""cat"":""33"",""src"":""10"",""x"":0,""y"":0},{""cat"":""19"",""src"":""5"",""x"":0,""y"":0},{""cat"":""19"",""src"":""15"",""x"":0,""y"":0},{""cat"":""33"",""src"":""15"",""x"":0,""y"":0},{""cat"":""33"",""src"":""14"",""x"":0,""y"":0},{""cat"":""16"",""src"":""19"",""x"":0,""y"":0}]","[{""cat"":16,""src"":2,""loc"":1},{""cat"":19,""src"":19,""loc"":0},{""cat"":16,""src"":18,""loc"":6},{""cat"":33,""src"":10,""loc"":8},{""cat"":19,""src"":5,""loc"":7},{""cat"":19,""src"":15,""loc"":5},{""cat"":33,""src"":15,""loc"":3},{""cat"":33,""src"":14,""loc"":2},{""cat"":16,""src"":19,""loc"":4}]","9","19,16,33,33,16,19,16,19,33,19,2,14,15,19,15,18,5,10,0,1,2,3,4,5,6,7,8,1,0,7,6,8,5,2,4,3",NA
"956","sort_feedback","75","html-keyboard-response","245","2120183","0.0-5.0-49.0","3","2020-1-8 10:23:14","ELEPHANT",NA,NA,NA,NA,NA,NA,NA,NA,NA,NA,NA,NA,NA,NA
"1770","demographics",NA,"html-button-response","246","2121954","0.0-6.0-0.0","3","2020-1-8 10:23:14","ELEPHANT","0",NA,NA,NA,NA,NA,NA,NA,NA,NA,NA,NA,NA,NA
"3118","workerID",NA,"survey-text","247","2125074","0.0-6.0-1.0","3","2020-1-8 10:23:14","ELEPHANT",NA,NA,NA,NA,NA,NA,NA,NA,NA,NA,NA,NA,NA,"{""Q0"":""A3AGQ2G8QI59EG""}"
"2929","attn_check",NA,"survey-multi-choice","248","2128010","0.0-6.0-2.0","3","2020-1-8 10:23:14","ELEPHANT",NA,NA,NA,NA,NA,NA,NA,NA,NA,NA,NA,NA,NA,"{""Q0"":""ELEPHANT""}"
"2600","age",NA,"survey-text","249","2130642","0.0-6.0-3.0","3","2020-1-8 10:23:14","ELEPHANT",NA,NA,NA,NA,NA,NA,NA,NA,NA,NA,NA,NA,NA,"{""Q0"":""23""}"
"1486","gender",NA,"survey-multi-choice","250","2132130","0.0-6.0-4.0","3","2020-1-8 10:23:14","ELEPHANT",NA,NA,NA,NA,NA,NA,NA,NA,NA,NA,NA,NA,NA,"{""Q0"":""Female""}"
"1408","ethnic",NA,"survey-multi-choice","251","2133554","0.0-6.0-5.0","3","2020-1-8 10:23:14","ELEPHANT",NA,NA,NA,NA,NA,NA,NA,NA,NA,NA,NA,NA,NA,"{""Q0"":""Hispanic or Latino""}"
"1567","race",NA,"survey-multi-select","252","2135147","0.0-6.0-6.0","3","2020-1-8 10:23:14","ELEPHANT",NA,NA,NA,NA,NA,NA,NA,NA,NA,NA,NA,NA,NA,"{""Q0"":[""White""]}"
"1471","english",NA,"survey-multi-choice","253","2136635","0.0-6.0-7.0","3","2020-1-8 10:23:14","ELEPHANT",NA,NA,NA,NA,NA,NA,NA,NA,NA,NA,NA,NA,NA,"{""Q0"":""Yes""}"
"3218","understand",NA,"survey-multi-choice","254","2139874","0.0-6.0-8.0","3","2020-1-8 10:23:14","ELEPHANT",NA,NA,NA,NA,NA,NA,NA,NA,NA,NA,NA,NA,NA,"{""Q0"":""No""}"
"13769","strategies",NA,"survey-text","255","2153658","0.0-6.0-9.0","3","2020-1-8 10:23:14","ELEPHANT",NA,NA,NA,NA,NA,NA,NA,NA,NA,NA,NA,NA,NA,"{""Q0"":""I aim on the 3 words per specific room and try to make a story""}"
"1807","comments",NA,"survey-text","256","2155466","0.0-6.0-10.0","3","2020-1-8 10:23:14","ELEPHANT",NA,NA,NA,NA,NA,NA,NA,NA,NA,NA,NA,NA,NA,"{""Q0"":""na""}"
"1726","study_end",NA,"html-button-response","257","2157194","0.0-7.0","3","2020-1-8 10:23:14","ELEPHANT","0",NA,NA,NA,NA,NA,NA,NA,NA,NA,NA,NA,NA,NA
