"rt","stimulus","key_press","trial_type","trial_index","time_elapsed","internal_node_id","session","startTime","attn_word","button_pressed","view_history","animation_sequence","condition","time_sequence","stim_type","direction","correct","init_locations","moves","final_locations","sort_correct","finalLocations","responses"
"6949","welcome","13","html-keyboard-response","0","6953","0.0-0.0","3","2020-1-8 9:24:15","OTTER",NA,NA,NA,NA,NA,NA,NA,NA,NA,NA,NA,NA,NA,NA
"5153","consent",NA,"html-button-response","1","12108","0.0-1.0","3","2020-1-8 9:24:15","OTTER","0",NA,NA,NA,NA,NA,NA,NA,NA,NA,NA,NA,NA,NA
"12009","instructions",NA,"instructions","2","24117","0.0-2.0","3","2020-1-8 9:24:15","OTTER",NA,"[{""page_index"":0,""viewing_time"":3184},{""page_index"":1,""viewing_time"":1929},{""page_index"":2,""viewing_time"":1554},{""page_index"":3,""viewing_time"":1912},{""page_index"":4,""viewing_time"":1528},{""page_index"":5,""viewing_time"":1901}]",NA,NA,NA,NA,NA,NA,NA,NA,NA,NA,NA,NA
"2243","finalInstructions",NA,"html-button-response","3","26362","0.0-3.0-0.0","3","2020-1-8 9:24:15","OTTER","0",NA,NA,NA,NA,NA,NA,NA,NA,NA,NA,NA,NA,NA
"19919","setup3",NA,"animation","4","46281","0.0-3.0-1.0","3","2020-1-8 9:24:15","OTTER",NA,NA,"[{""cat"":33,""src"":9,""loc"":3},{""cat"":18,""src"":17,""loc"":1},{""cat"":4,""src"":2,""loc"":8},{""cat"":4,""src"":0,""loc"":7},{""cat"":33,""src"":10,""loc"":4},{""cat"":18,""src"":11,""loc"":2},{""cat"":33,""src"":5,""loc"":5},{""cat"":4,""src"":15,""loc"":6},{""cat"":18,""src"":16,""loc"":0}]","3","1103,1102,1101,1103,1101,1102,1101,1102,1102,10002",NA,NA,NA,NA,NA,NA,NA,NA,NA
"3821","flanker_instructions","39","html-keyboard-response","5","50103","0.0-3.0-2.0","3","2020-1-8 9:24:15","OTTER",NA,NA,NA,NA,NA,NA,NA,NA,NA,NA,NA,NA,NA,NA
"526","flanker_test","39","image-keyboard-response","6","51631","0.0-3.0-3.0-0.0","3","2020-1-8 9:24:15","OTTER",NA,NA,NA,NA,NA,"congruent","right","TRUE",NA,NA,NA,NA,NA,NA
"308","flanker_test","39","image-keyboard-response","7","52768","0.0-3.0-3.0-0.1","3","2020-1-8 9:24:15","OTTER",NA,NA,NA,NA,NA,"incongruent","right","TRUE",NA,NA,NA,NA,NA,NA
"464","flanker_test","37","image-keyboard-response","8","54311","0.0-3.0-3.0-0.2","3","2020-1-8 9:24:15","OTTER",NA,NA,NA,NA,NA,"incongruent","left","TRUE",NA,NA,NA,NA,NA,NA
"312","flanker_test","37","image-keyboard-response","9","55527","0.0-3.0-3.0-0.3","3","2020-1-8 9:24:15","OTTER",NA,NA,NA,NA,NA,"congruent","left","TRUE",NA,NA,NA,NA,NA,NA
"26201","sort_trial",NA,"free-sort","10","82448","0.0-3.0-4.0","3","2020-1-8 9:24:15","OTTER",NA,NA,NA,NA,NA,NA,NA,NA,"[{""cat"":33,""src"":9,""x"":31,""y"":307},{""cat"":18,""src"":17,""x"":8,""y"":447},{""cat"":4,""src"":2,""x"":78,""y"":204},{""cat"":4,""src"":0,""x"":75,""y"":124},{""cat"":33,""src"":10,""x"":83,""y"":12},{""cat"":18,""src"":11,""x"":1,""y"":493},{""cat"":33,""src"":5,""x"":58,""y"":261},{""cat"":4,""src"":15,""x"":71,""y"":87},{""cat"":18,""src"":16,""x"":55,""y"":375}]","[{""cat"":""33"",""src"":""10"",""x"":0,""y"":0},{""cat"":""33"",""src"":""5"",""x"":0,""y"":0},{""cat"":""33"",""src"":""9"",""x"":0,""y"":0},{""cat"":""4"",""src"":""15"",""x"":0,""y"":0},{""cat"":""4"",""src"":""0"",""x"":0,""y"":0},{""cat"":""4"",""src"":""2"",""x"":0,""y"":0},{""cat"":""18"",""src"":""16"",""x"":0,""y"":0},{""cat"":""18"",""src"":""17"",""x"":0,""y"":0},{""cat"":""18"",""src"":""11"",""x"":0,""y"":0}]","[{""cat"":33,""src"":10,""loc"":4},{""cat"":33,""src"":5,""loc"":3},{""cat"":33,""src"":9,""loc"":5},{""cat"":4,""src"":15,""loc"":1},{""cat"":4,""src"":0,""loc"":0},{""cat"":4,""src"":2,""loc"":2},{""cat"":18,""src"":16,""loc"":7},{""cat"":18,""src"":17,""loc"":6},{""cat"":18,""src"":11,""loc"":8}]","1","4,4,4,33,33,33,18,18,18,0,15,2,5,10,9,17,16,11,0,1,2,3,4,5,6,7,8,4,3,5,1,0,2,7,6,8",NA
"6819","sort_feedback","16","html-keyboard-response","11","89268","0.0-3.0-5.0","3","2020-1-8 9:24:15","OTTER",NA,NA,NA,NA,NA,NA,NA,NA,NA,NA,NA,NA,NA,NA
"19911","setup2",NA,"animation","12","109180","0.0-3.0-6.0","3","2020-1-8 9:24:15","OTTER",NA,NA,"[{""cat"":12,""src"":5,""loc"":6},{""cat"":5,""src"":0,""loc"":8},{""cat"":26,""src"":14,""loc"":7},{""cat"":5,""src"":6,""loc"":4},{""cat"":26,""src"":11,""loc"":3},{""cat"":12,""src"":14,""loc"":5},{""cat"":26,""src"":18,""loc"":0},{""cat"":5,""src"":3,""loc"":1},{""cat"":12,""src"":19,""loc"":2}]","2","1102,1102,1101,1100,1101,1101,1102,1101,1100,10001",NA,NA,NA,NA,NA,NA,NA,NA,NA
"1722","flanker_instructions","39","html-keyboard-response","13","110903","0.0-3.0-7.0","3","2020-1-8 9:24:15","OTTER",NA,NA,NA,NA,NA,NA,NA,NA,NA,NA,NA,NA,NA,NA
"662","flanker_test","39","image-keyboard-response","14","112568","0.0-3.0-8.0-0.0","3","2020-1-8 9:24:15","OTTER",NA,NA,NA,NA,NA,"incongruent","right","TRUE",NA,NA,NA,NA,NA,NA
"551","flanker_test","37","image-keyboard-response","15","113800","0.0-3.0-8.0-0.1","3","2020-1-8 9:24:15","OTTER",NA,NA,NA,NA,NA,"congruent","left","TRUE",NA,NA,NA,NA,NA,NA
"373","flanker_test","39","image-keyboard-response","16","114992","0.0-3.0-8.0-0.2","3","2020-1-8 9:24:15","OTTER",NA,NA,NA,NA,NA,"incongruent","left","FALSE",NA,NA,NA,NA,NA,NA
"261","flanker_test","39","image-keyboard-response","17","116303","0.0-3.0-8.0-0.3","3","2020-1-8 9:24:15","OTTER",NA,NA,NA,NA,NA,"congruent","right","TRUE",NA,NA,NA,NA,NA,NA
"33507","sort_trial",NA,"free-sort","18","150390","0.0-3.0-9.0","3","2020-1-8 9:24:15","OTTER",NA,NA,NA,NA,NA,NA,NA,NA,"[{""cat"":12,""src"":5,""x"":75,""y"":481},{""cat"":5,""src"":0,""x"":2,""y"":373},{""cat"":26,""src"":14,""x"":38,""y"":259},{""cat"":5,""src"":6,""x"":8,""y"":26},{""cat"":26,""src"":11,""x"":16,""y"":430},{""cat"":12,""src"":14,""x"":82,""y"":86},{""cat"":26,""src"":18,""x"":11,""y"":181},{""cat"":5,""src"":3,""x"":51,""y"":324},{""cat"":12,""src"":19,""x"":60,""y"":144}]","[{""cat"":""5"",""src"":""3"",""x"":0,""y"":0},{""cat"":""26"",""src"":""18"",""x"":0,""y"":0},{""cat"":""12"",""src"":""19"",""x"":0,""y"":0},{""cat"":""12"",""src"":""5"",""x"":0,""y"":0},{""cat"":""26"",""src"":""14"",""x"":0,""y"":0},{""cat"":""5"",""src"":""0"",""x"":0,""y"":0},{""cat"":""12"",""src"":""14"",""x"":0,""y"":0},{""cat"":""5"",""src"":""6"",""x"":0,""y"":0},{""cat"":""26"",""src"":""11"",""x"":0,""y"":0}]","[{""cat"":5,""src"":3,""loc"":1},{""cat"":26,""src"":18,""loc"":0},{""cat"":12,""src"":19,""loc"":2},{""cat"":12,""src"":5,""loc"":6},{""cat"":26,""src"":14,""loc"":7},{""cat"":5,""src"":0,""loc"":8},{""cat"":12,""src"":14,""loc"":4},{""cat"":5,""src"":6,""loc"":3},{""cat"":26,""src"":11,""loc"":5}]","6","26,5,12,5,12,26,12,26,5,18,3,19,6,14,11,5,14,0,0,1,2,3,4,5,6,7,8,1,0,2,7,6,8,3,4,5",NA
"1978","sort_feedback","13","html-keyboard-response","19","152368","0.0-3.0-10.0","3","2020-1-8 9:24:15","OTTER",NA,NA,NA,NA,NA,NA,NA,NA,NA,NA,NA,NA,NA,NA
"19919","setup1",NA,"animation","20","172287","0.0-3.0-11.0","3","2020-1-8 9:24:15","OTTER",NA,NA,"[{""cat"":27,""src"":13,""loc"":6},{""cat"":27,""src"":16,""loc"":7},{""cat"":27,""src"":12,""loc"":8},{""cat"":19,""src"":19,""loc"":1},{""cat"":19,""src"":5,""loc"":2},{""cat"":19,""src"":1,""loc"":0},{""cat"":9,""src"":8,""loc"":5},{""cat"":9,""src"":6,""loc"":4},{""cat"":9,""src"":10,""loc"":3}]","1","1102,1101,1103,1101,1102,1102,1102,1102,1102,10002",NA,NA,NA,NA,NA,NA,NA,NA,NA
"1832","flanker_instructions","39","html-keyboard-response","21","174120","0.0-3.0-12.0","3","2020-1-8 9:24:15","OTTER",NA,NA,NA,NA,NA,NA,NA,NA,NA,NA,NA,NA,NA,NA
"781","flanker_test","37","image-keyboard-response","22","175903","0.0-3.0-13.0-0.0","3","2020-1-8 9:24:15","OTTER",NA,NA,NA,NA,NA,"incongruent","left","TRUE",NA,NA,NA,NA,NA,NA
"378","flanker_test","37","image-keyboard-response","23","176727","0.0-3.0-13.0-0.1","3","2020-1-8 9:24:15","OTTER",NA,NA,NA,NA,NA,"congruent","left","TRUE",NA,NA,NA,NA,NA,NA
"298","flanker_test","39","image-keyboard-response","24","177456","0.0-3.0-13.0-0.2","3","2020-1-8 9:24:15","OTTER",NA,NA,NA,NA,NA,"congruent","right","TRUE",NA,NA,NA,NA,NA,NA
"356","flanker_test","39","image-keyboard-response","25","178464","0.0-3.0-13.0-0.3","3","2020-1-8 9:24:15","OTTER",NA,NA,NA,NA,NA,"incongruent","right","TRUE",NA,NA,NA,NA,NA,NA
"34609","sort_trial",NA,"free-sort","26","214258","0.0-3.0-14.0","3","2020-1-8 9:24:15","OTTER",NA,NA,NA,NA,NA,NA,NA,NA,"[{""cat"":27,""src"":13,""x"":60,""y"":437},{""cat"":27,""src"":16,""x"":52,""y"":88},{""cat"":27,""src"":12,""x"":68,""y"":301},{""cat"":19,""src"":19,""x"":33,""y"":262},{""cat"":19,""src"":5,""x"":57,""y"":384},{""cat"":19,""src"":1,""x"":55,""y"":146},{""cat"":9,""src"":8,""x"":72,""y"":481},{""cat"":9,""src"":6,""x"":66,""y"":204},{""cat"":9,""src"":10,""x"":24,""y"":0}]","[{""cat"":""27"",""src"":""13"",""x"":0,""y"":0},{""cat"":""27"",""src"":""16"",""x"":0,""y"":0},{""cat"":""27"",""src"":""12"",""x"":0,""y"":0},{""cat"":""9"",""src"":""10"",""x"":0,""y"":0},{""cat"":""9"",""src"":""8"",""x"":0,""y"":0},{""cat"":""9"",""src"":""6"",""x"":0,""y"":0},{""cat"":""19"",""src"":""19"",""x"":0,""y"":0},{""cat"":""19"",""src"":""1"",""x"":254,""y"":147},{""cat"":""19"",""src"":""1"",""x"":0,""y"":0},{""cat"":""19"",""src"":""5"",""x"":0,""y"":0}]","[{""cat"":27,""src"":13,""loc"":6},{""cat"":27,""src"":16,""loc"":7},{""cat"":27,""src"":12,""loc"":8},{""cat"":9,""src"":10,""loc"":3},{""cat"":9,""src"":8,""loc"":4},{""cat"":9,""src"":6,""loc"":5},{""cat"":19,""src"":19,""loc"":1},{""cat"":19,""src"":1,""loc"":0},{""cat"":19,""src"":5,""loc"":2}]","7","19,19,19,9,9,9,27,27,27,1,19,5,10,8,6,13,16,12,0,1,2,3,4,5,6,7,8,7,6,8,3,4,5,0,1,2",NA
"2573","sort_feedback","13","html-keyboard-response","27","216832","0.0-3.0-15.0","3","2020-1-8 9:24:15","OTTER",NA,NA,NA,NA,NA,NA,NA,NA,NA,NA,NA,NA,NA,NA
"19913","setup4",NA,"animation","28","236745","0.0-3.0-16.0","3","2020-1-8 9:24:15","OTTER",NA,NA,"[{""cat"":28,""src"":19,""loc"":5},{""cat"":28,""src"":13,""loc"":6},{""cat"":28,""src"":5,""loc"":1},{""cat"":10,""src"":15,""loc"":4},{""cat"":10,""src"":14,""loc"":7},{""cat"":10,""src"":17,""loc"":0},{""cat"":25,""src"":13,""loc"":8},{""cat"":25,""src"":4,""loc"":2},{""cat"":25,""src"":5,""loc"":3}]","4","1102,1101,1102,1101,1101,1101,1101,1102,1101,10001",NA,NA,NA,NA,NA,NA,NA,NA,NA
"1718","flanker_instructions","39","html-keyboard-response","29","238464","0.0-3.0-17.0","3","2020-1-8 9:24:15","OTTER",NA,NA,NA,NA,NA,NA,NA,NA,NA,NA,NA,NA,NA,NA
"695","flanker_test","37","image-keyboard-response","30","240160","0.0-3.0-18.0-0.0","3","2020-1-8 9:24:15","OTTER",NA,NA,NA,NA,NA,"incongruent","left","TRUE",NA,NA,NA,NA,NA,NA
"774","flanker_test","39","image-keyboard-response","31","241272","0.0-3.0-18.0-0.1","3","2020-1-8 9:24:15","OTTER",NA,NA,NA,NA,NA,"incongruent","right","TRUE",NA,NA,NA,NA,NA,NA
"508","flanker_test","39","image-keyboard-response","32","242240","0.0-3.0-18.0-0.2","3","2020-1-8 9:24:15","OTTER",NA,NA,NA,NA,NA,"congruent","right","TRUE",NA,NA,NA,NA,NA,NA
"342","flanker_test","37","image-keyboard-response","33","242968","0.0-3.0-18.0-0.3","3","2020-1-8 9:24:15","OTTER",NA,NA,NA,NA,NA,"congruent","left","TRUE",NA,NA,NA,NA,NA,NA
"35766","sort_trial",NA,"free-sort","34","279230","0.0-3.0-19.0","3","2020-1-8 9:24:15","OTTER",NA,NA,NA,NA,NA,NA,NA,NA,"[{""cat"":28,""src"":19,""x"":26,""y"":69},{""cat"":28,""src"":13,""x"":34,""y"":422},{""cat"":28,""src"":5,""x"":76,""y"":120},{""cat"":10,""src"":15,""x"":40,""y"":13},{""cat"":10,""src"":14,""x"":31,""y"":325},{""cat"":10,""src"":17,""x"":3,""y"":254},{""cat"":25,""src"":13,""x"":27,""y"":200},{""cat"":25,""src"":4,""x"":23,""y"":365},{""cat"":25,""src"":5,""x"":34,""y"":493}]","[{""cat"":""28"",""src"":""5"",""x"":0,""y"":0},{""cat"":""10"",""src"":""17"",""x"":0,""y"":0},{""cat"":""25"",""src"":""4"",""x"":0,""y"":0},{""cat"":""28"",""src"":""19"",""x"":0,""y"":0},{""cat"":""25"",""src"":""5"",""x"":0,""y"":0},{""cat"":""10"",""src"":""15"",""x"":0,""y"":0},{""cat"":""25"",""src"":""13"",""x"":0,""y"":0},{""cat"":""28"",""src"":""13"",""x"":0,""y"":0},{""cat"":""10"",""src"":""14"",""x"":0,""y"":0}]","[{""cat"":28,""src"":5,""loc"":1},{""cat"":10,""src"":17,""loc"":0},{""cat"":25,""src"":4,""loc"":2},{""cat"":28,""src"":19,""loc"":5},{""cat"":25,""src"":5,""loc"":3},{""cat"":10,""src"":15,""loc"":4},{""cat"":25,""src"":13,""loc"":7},{""cat"":28,""src"":13,""loc"":8},{""cat"":10,""src"":14,""loc"":6}]","6","10,28,25,25,10,28,10,25,28,17,5,4,5,15,19,14,13,13,0,1,2,3,4,5,6,7,8,1,0,2,4,5,3,8,6,7",NA
"1569","sort_feedback","13","html-keyboard-response","35","280800","0.0-3.0-20.0","3","2020-1-8 9:24:15","OTTER",NA,NA,NA,NA,NA,NA,NA,NA,NA,NA,NA,NA,NA,NA
"19912","setup5",NA,"animation","36","300713","0.0-3.0-21.0","3","2020-1-8 9:24:15","OTTER",NA,NA,"[{""cat"":21,""src"":18,""loc"":0},{""cat"":4,""src"":9,""loc"":4},{""cat"":31,""src"":8,""loc"":6},{""cat"":4,""src"":15,""loc"":7},{""cat"":31,""src"":0,""loc"":1},{""cat"":21,""src"":11,""loc"":5},{""cat"":4,""src"":4,""loc"":2},{""cat"":31,""src"":5,""loc"":3},{""cat"":21,""src"":12,""loc"":8}]","5","1102,1102,1100,1101,1101,1101,1102,1102,1101,10000",NA,NA,NA,NA,NA,NA,NA,NA,NA
"1446","flanker_instructions","39","html-keyboard-response","37","302160","0.0-3.0-22.0","3","2020-1-8 9:24:15","OTTER",NA,NA,NA,NA,NA,NA,NA,NA,NA,NA,NA,NA,NA,NA
"758","flanker_test","39","image-keyboard-response","38","303920","0.0-3.0-23.0-0.0","3","2020-1-8 9:24:15","OTTER",NA,NA,NA,NA,NA,"incongruent","right","TRUE",NA,NA,NA,NA,NA,NA
"596","flanker_test","37","image-keyboard-response","39","305392","0.0-3.0-23.0-0.1","3","2020-1-8 9:24:15","OTTER",NA,NA,NA,NA,NA,"incongruent","left","TRUE",NA,NA,NA,NA,NA,NA
"562","flanker_test","39","image-keyboard-response","40","306704","0.0-3.0-23.0-0.2","3","2020-1-8 9:24:15","OTTER",NA,NA,NA,NA,NA,"congruent","right","TRUE",NA,NA,NA,NA,NA,NA
NA,"flanker_test",NA,"image-keyboard-response","41","308341","0.0-3.0-23.0-0.3","3","2020-1-8 9:24:15","OTTER",NA,NA,NA,NA,NA,"congruent","left","FALSE",NA,NA,NA,NA,NA,NA
"33256","sort_trial",NA,"free-sort","42","341936","0.0-3.0-24.0","3","2020-1-8 9:24:15","OTTER",NA,NA,NA,NA,NA,NA,NA,NA,"[{""cat"":21,""src"":18,""x"":64,""y"":65},{""cat"":4,""src"":9,""x"":21,""y"":190},{""cat"":31,""src"":8,""x"":14,""y"":423},{""cat"":4,""src"":15,""x"":9,""y"":25},{""cat"":31,""src"":0,""x"":44,""y"":372},{""cat"":21,""src"":11,""x"":13,""y"":489},{""cat"":4,""src"":4,""x"":36,""y"":301},{""cat"":31,""src"":5,""x"":9,""y"":254},{""cat"":21,""src"":12,""x"":23,""y"":147}]","[{""cat"":""21"",""src"":""18"",""x"":0,""y"":0},{""cat"":""31"",""src"":""0"",""x"":0,""y"":0},{""cat"":""4"",""src"":""4"",""x"":0,""y"":0},{""cat"":""4"",""src"":""15"",""x"":0,""y"":0},{""cat"":""31"",""src"":""8"",""x"":0,""y"":0},{""cat"":""21"",""src"":""11"",""x"":0,""y"":0},{""cat"":""31"",""src"":""5"",""x"":0,""y"":0},{""cat"":""21"",""src"":""12"",""x"":0,""y"":0},{""cat"":""4"",""src"":""9"",""x"":0,""y"":0}]","[{""cat"":21,""src"":18,""loc"":0},{""cat"":31,""src"":0,""loc"":1},{""cat"":4,""src"":4,""loc"":2},{""cat"":4,""src"":15,""loc"":7},{""cat"":31,""src"":8,""loc"":6},{""cat"":21,""src"":11,""loc"":8},{""cat"":31,""src"":5,""loc"":3},{""cat"":21,""src"":12,""loc"":5},{""cat"":4,""src"":9,""loc"":4}]","7","21,31,4,31,4,21,31,4,21,18,0,4,5,9,12,8,15,11,0,1,2,3,4,5,6,7,8,0,1,2,6,8,7,4,3,5",NA
"12519","sort_feedback","13","html-keyboard-response","43","354456","0.0-3.0-25.0","3","2020-1-8 9:24:15","OTTER",NA,NA,NA,NA,NA,NA,NA,NA,NA,NA,NA,NA,NA,NA
"19912","setup3",NA,"animation","44","374369","0.0-3.0-26.0","3","2020-1-8 9:24:15","OTTER",NA,NA,"[{""cat"":28,""src"":3,""loc"":2},{""cat"":30,""src"":8,""loc"":8},{""cat"":22,""src"":14,""loc"":4},{""cat"":28,""src"":9,""loc"":0},{""cat"":30,""src"":2,""loc"":6},{""cat"":22,""src"":13,""loc"":3},{""cat"":22,""src"":19,""loc"":5},{""cat"":28,""src"":6,""loc"":1},{""cat"":30,""src"":13,""loc"":7}]","3","1101,1102,1101,1101,1101,1101,1102,1102,1101,10000",NA,NA,NA,NA,NA,NA,NA,NA,NA
"2198","flanker_instructions","39","html-keyboard-response","45","376568","0.0-3.0-27.0","3","2020-1-8 9:24:15","OTTER",NA,NA,NA,NA,NA,NA,NA,NA,NA,NA,NA,NA,NA,NA
"718","flanker_test","37","image-keyboard-response","46","378287","0.0-3.0-28.0-0.0","3","2020-1-8 9:24:15","OTTER",NA,NA,NA,NA,NA,"incongruent","left","TRUE",NA,NA,NA,NA,NA,NA
"661","flanker_test","39","image-keyboard-response","47","380120","0.0-3.0-28.0-0.1","3","2020-1-8 9:24:15","OTTER",NA,NA,NA,NA,NA,"incongruent","right","TRUE",NA,NA,NA,NA,NA,NA
"556","flanker_test","37","image-keyboard-response","48","381216","0.0-3.0-28.0-0.2","3","2020-1-8 9:24:15","OTTER",NA,NA,NA,NA,NA,"congruent","left","TRUE",NA,NA,NA,NA,NA,NA
"544","flanker_test","39","image-keyboard-response","49","382128","0.0-3.0-28.0-0.3","3","2020-1-8 9:24:15","OTTER",NA,NA,NA,NA,NA,"congruent","right","TRUE",NA,NA,NA,NA,NA,NA
"33122","sort_trial",NA,"free-sort","50","415971","0.0-3.0-29.0","3","2020-1-8 9:24:15","OTTER",NA,NA,NA,NA,NA,NA,NA,NA,"[{""cat"":28,""src"":3,""x"":72,""y"":439},{""cat"":30,""src"":8,""x"":9,""y"":491},{""cat"":22,""src"":14,""x"":64,""y"":143},{""cat"":28,""src"":9,""x"":80,""y"":10},{""cat"":30,""src"":2,""x"":21,""y"":85},{""cat"":22,""src"":13,""x"":52,""y"":185},{""cat"":22,""src"":19,""x"":19,""y"":319},{""cat"":28,""src"":6,""x"":23,""y"":361},{""cat"":30,""src"":13,""x"":31,""y"":265}]","[{""cat"":""28"",""src"":""9"",""x"":0,""y"":0},{""cat"":""28"",""src"":""6"",""x"":0,""y"":0},{""cat"":""28"",""src"":""3"",""x"":0,""y"":0},{""cat"":""30"",""src"":""8"",""x"":0,""y"":0},{""cat"":""30"",""src"":""13"",""x"":0,""y"":0},{""cat"":""30"",""src"":""2"",""x"":0,""y"":0},{""cat"":""22"",""src"":""14"",""x"":0,""y"":0},{""cat"":""22"",""src"":""13"",""x"":0,""y"":0},{""cat"":""22"",""src"":""19"",""x"":860,""y"":239},{""cat"":""22"",""src"":""19"",""x"":0,""y"":0}]","[{""cat"":28,""src"":9,""loc"":0},{""cat"":28,""src"":6,""loc"":1},{""cat"":28,""src"":3,""loc"":2},{""cat"":30,""src"":8,""loc"":8},{""cat"":30,""src"":13,""loc"":7},{""cat"":30,""src"":2,""loc"":6},{""cat"":22,""src"":14,""loc"":4},{""cat"":22,""src"":13,""loc"":5},{""cat"":22,""src"":19,""loc"":3}]","7","28,28,28,22,22,22,30,30,30,9,6,3,19,14,13,2,13,8,0,1,2,3,4,5,6,7,8,0,1,2,8,6,7,5,4,3",NA
"3716","sort_feedback","32","html-keyboard-response","51","419687","0.0-3.0-30.0","3","2020-1-8 9:24:15","OTTER",NA,NA,NA,NA,NA,NA,NA,NA,NA,NA,NA,NA,NA,NA
"19912","setup4",NA,"animation","52","439600","0.0-3.0-31.0","3","2020-1-8 9:24:15","OTTER",NA,NA,"[{""cat"":1,""src"":5,""loc"":6},{""cat"":1,""src"":13,""loc"":2},{""cat"":1,""src"":0,""loc"":3},{""cat"":0,""src"":16,""loc"":7},{""cat"":0,""src"":15,""loc"":5},{""cat"":0,""src"":7,""loc"":1},{""cat"":17,""src"":18,""loc"":8},{""cat"":17,""src"":1,""loc"":0},{""cat"":17,""src"":7,""loc"":4}]","4","1101,1102,1101,1101,1100,1101,1103,1101,1101,10000",NA,NA,NA,NA,NA,NA,NA,NA,NA
"1639","flanker_instructions","39","html-keyboard-response","53","441240","0.0-3.0-32.0","3","2020-1-8 9:24:15","OTTER",NA,NA,NA,NA,NA,NA,NA,NA,NA,NA,NA,NA,NA,NA
"798","flanker_test","39","image-keyboard-response","54","443039","0.0-3.0-33.0-0.0","3","2020-1-8 9:24:15","OTTER",NA,NA,NA,NA,NA,"congruent","right","TRUE",NA,NA,NA,NA,NA,NA
"570","flanker_test","37","image-keyboard-response","55","444616","0.0-3.0-33.0-0.1","3","2020-1-8 9:24:15","OTTER",NA,NA,NA,NA,NA,"incongruent","left","TRUE",NA,NA,NA,NA,NA,NA
"668","flanker_test","39","image-keyboard-response","56","445832","0.0-3.0-33.0-0.2","3","2020-1-8 9:24:15","OTTER",NA,NA,NA,NA,NA,"incongruent","right","TRUE",NA,NA,NA,NA,NA,NA
"585","flanker_test","37","image-keyboard-response","57","447504","0.0-3.0-33.0-0.3","3","2020-1-8 9:24:15","OTTER",NA,NA,NA,NA,NA,"congruent","left","TRUE",NA,NA,NA,NA,NA,NA
"42321","sort_trial",NA,"free-sort","58","490799","0.0-3.0-34.0","3","2020-1-8 9:24:15","OTTER",NA,NA,NA,NA,NA,NA,NA,NA,"[{""cat"":1,""src"":5,""x"":42,""y"":437},{""cat"":1,""src"":13,""x"":42,""y"":131},{""cat"":1,""src"":0,""x"":61,""y"":366},{""cat"":0,""src"":16,""x"":1,""y"":324},{""cat"":0,""src"":15,""x"":76,""y"":202},{""cat"":0,""src"":7,""x"":22,""y"":0},{""cat"":17,""src"":18,""x"":67,""y"":78},{""cat"":17,""src"":1,""x"":30,""y"":262},{""cat"":17,""src"":7,""x"":22,""y"":485}]","[{""cat"":""0"",""src"":""7"",""x"":0,""y"":0},{""cat"":""1"",""src"":""13"",""x"":0,""y"":0},{""cat"":""1"",""src"":""5"",""x"":0,""y"":0},{""cat"":""0"",""src"":""15"",""x"":0,""y"":0},{""cat"":""1"",""src"":""0"",""x"":0,""y"":0},{""cat"":""17"",""src"":""7"",""x"":0,""y"":0},{""cat"":""0"",""src"":""16"",""x"":0,""y"":0},{""cat"":""17"",""src"":""18"",""x"":0,""y"":0},{""cat"":""17"",""src"":""1"",""x"":0,""y"":0}]","[{""cat"":0,""src"":7,""loc"":1},{""cat"":1,""src"":13,""loc"":2},{""cat"":1,""src"":5,""loc"":6},{""cat"":0,""src"":15,""loc"":4},{""cat"":1,""src"":0,""loc"":3},{""cat"":17,""src"":7,""loc"":5},{""cat"":0,""src"":16,""loc"":7},{""cat"":17,""src"":18,""loc"":0},{""cat"":17,""src"":1,""loc"":8}]","5","17,0,1,1,0,17,1,0,17,18,7,13,0,15,7,5,16,1,0,1,2,3,4,5,6,7,8,7,0,1,4,3,5,2,6,8",NA
"3024","sort_feedback","13","html-keyboard-response","59","493823","0.0-3.0-35.0","3","2020-1-8 9:24:15","OTTER",NA,NA,NA,NA,NA,NA,NA,NA,NA,NA,NA,NA,NA,NA
"19913","setup2",NA,"animation","60","513736","0.0-3.0-36.0","3","2020-1-8 9:24:15","OTTER",NA,NA,"[{""cat"":0,""src"":18,""loc"":7},{""cat"":12,""src"":1,""loc"":6},{""cat"":33,""src"":2,""loc"":8},{""cat"":33,""src"":7,""loc"":0},{""cat"":0,""src"":12,""loc"":1},{""cat"":12,""src"":2,""loc"":2},{""cat"":12,""src"":0,""loc"":4},{""cat"":33,""src"":18,""loc"":3},{""cat"":0,""src"":19,""loc"":5}]","2","1102,1101,1101,1101,1101,1102,1101,1101,1101,10002",NA,NA,NA,NA,NA,NA,NA,NA,NA
"1383","flanker_instructions","39","html-keyboard-response","61","515119","0.0-3.0-37.0","3","2020-1-8 9:24:15","OTTER",NA,NA,NA,NA,NA,NA,NA,NA,NA,NA,NA,NA,NA,NA
"735","flanker_test","37","image-keyboard-response","62","516856","0.0-3.0-38.0-0.0","3","2020-1-8 9:24:15","OTTER",NA,NA,NA,NA,NA,"incongruent","left","TRUE",NA,NA,NA,NA,NA,NA
"488","flanker_test","37","image-keyboard-response","63","518512","0.0-3.0-38.0-0.1","3","2020-1-8 9:24:15","OTTER",NA,NA,NA,NA,NA,"congruent","left","TRUE",NA,NA,NA,NA,NA,NA
"744","flanker_test","39","image-keyboard-response","64","519848","0.0-3.0-38.0-0.2","3","2020-1-8 9:24:15","OTTER",NA,NA,NA,NA,NA,"incongruent","right","TRUE",NA,NA,NA,NA,NA,NA
"442","flanker_test","39","image-keyboard-response","65","520752","0.0-3.0-38.0-0.3","3","2020-1-8 9:24:15","OTTER",NA,NA,NA,NA,NA,"congruent","right","TRUE",NA,NA,NA,NA,NA,NA
"39039","sort_trial",NA,"free-sort","66","560952","0.0-3.0-39.0","3","2020-1-8 9:24:15","OTTER",NA,NA,NA,NA,NA,NA,NA,NA,"[{""cat"":0,""src"":18,""x"":4,""y"":314},{""cat"":12,""src"":1,""x"":62,""y"":81},{""cat"":33,""src"":2,""x"":67,""y"":27},{""cat"":33,""src"":7,""x"":52,""y"":500},{""cat"":0,""src"":12,""x"":53,""y"":369},{""cat"":12,""src"":2,""x"":33,""y"":196},{""cat"":12,""src"":0,""x"":30,""y"":254},{""cat"":33,""src"":18,""x"":79,""y"":148},{""cat"":0,""src"":19,""x"":57,""y"":435}]","[{""cat"":""33"",""src"":""18"",""x"":0,""y"":0},{""cat"":""33"",""src"":""7"",""x"":0,""y"":0},{""cat"":""0"",""src"":""12"",""x"":0,""y"":0},{""cat"":""12"",""src"":""2"",""x"":0,""y"":0},{""cat"":""33"",""src"":""2"",""x"":0,""y"":0},{""cat"":""12"",""src"":""0"",""x"":0,""y"":0},{""cat"":""12"",""src"":""1"",""x"":0,""y"":0},{""cat"":""0"",""src"":""18"",""x"":0,""y"":0},{""cat"":""0"",""src"":""19"",""x"":0,""y"":0}]","[{""cat"":33,""src"":18,""loc"":3},{""cat"":33,""src"":7,""loc"":0},{""cat"":0,""src"":12,""loc"":2},{""cat"":12,""src"":2,""loc"":1},{""cat"":33,""src"":2,""loc"":6},{""cat"":12,""src"":0,""loc"":4},{""cat"":12,""src"":1,""loc"":8},{""cat"":0,""src"":18,""loc"":5},{""cat"":0,""src"":19,""loc"":7}]","3","33,12,0,33,12,0,33,0,12,7,2,12,18,0,18,2,19,1,0,1,2,3,4,5,6,7,8,1,3,2,0,5,7,4,8,6",NA
"5967","sort_feedback","16","html-keyboard-response","67","566920","0.0-3.0-40.0","3","2020-1-8 9:24:15","OTTER",NA,NA,NA,NA,NA,NA,NA,NA,NA,NA,NA,NA,NA,NA
"19916","setup5",NA,"animation","68","586837","0.0-3.0-41.0","3","2020-1-8 9:24:15","OTTER",NA,NA,"[{""cat"":12,""src"":1,""loc"":4},{""cat"":13,""src"":17,""loc"":1},{""cat"":31,""src"":0,""loc"":6},{""cat"":31,""src"":4,""loc"":0},{""cat"":12,""src"":3,""loc"":7},{""cat"":13,""src"":9,""loc"":5},{""cat"":13,""src"":1,""loc"":8},{""cat"":12,""src"":13,""loc"":2},{""cat"":31,""src"":6,""loc"":3}]","5","1101,1102,1102,1101,1101,1102,1102,1102,1102,10001",NA,NA,NA,NA,NA,NA,NA,NA,NA
"1394","flanker_instructions","39","html-keyboard-response","69","588232","0.0-3.0-42.0","3","2020-1-8 9:24:15","OTTER",NA,NA,NA,NA,NA,NA,NA,NA,NA,NA,NA,NA,NA,NA
"870","flanker_test","39","image-keyboard-response","70","590104","0.0-3.0-43.0-0.0","3","2020-1-8 9:24:15","OTTER",NA,NA,NA,NA,NA,"incongruent","right","TRUE",NA,NA,NA,NA,NA,NA
"581","flanker_test","37","image-keyboard-response","71","591520","0.0-3.0-43.0-0.1","3","2020-1-8 9:24:15","OTTER",NA,NA,NA,NA,NA,"congruent","left","TRUE",NA,NA,NA,NA,NA,NA
"477","flanker_test","37","image-keyboard-response","72","592416","0.0-3.0-43.0-0.2","3","2020-1-8 9:24:15","OTTER",NA,NA,NA,NA,NA,"incongruent","left","TRUE",NA,NA,NA,NA,NA,NA
"566","flanker_test","39","image-keyboard-response","73","593912","0.0-3.0-43.0-0.3","3","2020-1-8 9:24:15","OTTER",NA,NA,NA,NA,NA,"congruent","right","TRUE",NA,NA,NA,NA,NA,NA
"44365","sort_trial",NA,"free-sort","74","639023","0.0-3.0-44.0","3","2020-1-8 9:24:15","OTTER",NA,NA,NA,NA,NA,NA,NA,NA,"[{""cat"":12,""src"":1,""x"":78,""y"":508},{""cat"":13,""src"":17,""x"":53,""y"":187},{""cat"":31,""src"":0,""x"":33,""y"":266},{""cat"":31,""src"":4,""x"":50,""y"":148},{""cat"":12,""src"":3,""x"":13,""y"":433},{""cat"":13,""src"":9,""x"":45,""y"":68},{""cat"":13,""src"":1,""x"":80,""y"":314},{""cat"":12,""src"":13,""x"":26,""y"":5},{""cat"":31,""src"":6,""x"":4,""y"":375}]","[{""cat"":""31"",""src"":""4"",""x"":0,""y"":0},{""cat"":""12"",""src"":""13"",""x"":0,""y"":0},{""cat"":""31"",""src"":""6"",""x"":728,""y"":207},{""cat"":""31"",""src"":""6"",""x"":0,""y"":0},{""cat"":""12"",""src"":""1"",""x"":0,""y"":0},{""cat"":""13"",""src"":""9"",""x"":0,""y"":0},{""cat"":""31"",""src"":""0"",""x"":0,""y"":0},{""cat"":""13"",""src"":""17"",""x"":0,""y"":0},{""cat"":""12"",""src"":""3"",""x"":0,""y"":0},{""cat"":""13"",""src"":""1"",""x"":0,""y"":0}]","[{""cat"":31,""src"":4,""loc"":0},{""cat"":12,""src"":13,""loc"":2},{""cat"":31,""src"":6,""loc"":3},{""cat"":12,""src"":1,""loc"":4},{""cat"":13,""src"":9,""loc"":5},{""cat"":31,""src"":0,""loc"":6},{""cat"":13,""src"":17,""loc"":7},{""cat"":12,""src"":3,""loc"":8},{""cat"":13,""src"":1,""loc"":1}]","6","31,13,12,31,12,13,31,13,12,4,1,13,6,1,9,0,17,3,0,1,2,3,4,5,6,7,8,0,8,1,2,3,4,5,6,7",NA
"2841","sort_feedback","13","html-keyboard-response","75","641864","0.0-3.0-45.0","3","2020-1-8 9:24:15","OTTER",NA,NA,NA,NA,NA,NA,NA,NA,NA,NA,NA,NA,NA,NA
"19912","setup1",NA,"animation","76","661776","0.0-3.0-46.0","3","2020-1-8 9:24:15","OTTER",NA,NA,"[{""cat"":21,""src"":9,""loc"":7},{""cat"":21,""src"":11,""loc"":8},{""cat"":21,""src"":17,""loc"":6},{""cat"":15,""src"":4,""loc"":2},{""cat"":15,""src"":10,""loc"":1},{""cat"":15,""src"":2,""loc"":0},{""cat"":25,""src"":1,""loc"":3},{""cat"":25,""src"":8,""loc"":5},{""cat"":25,""src"":16,""loc"":4}]","1","1102,1100,1101,1102,1101,1101,1101,1102,1101,10001",NA,NA,NA,NA,NA,NA,NA,NA,NA
"558","flanker_instructions","39","html-keyboard-response","77","662335","0.0-3.0-47.0","3","2020-1-8 9:24:15","OTTER",NA,NA,NA,NA,NA,NA,NA,NA,NA,NA,NA,NA,NA,NA
"599","flanker_test","37","image-keyboard-response","78","663936","0.0-3.0-48.0-0.0","3","2020-1-8 9:24:15","OTTER",NA,NA,NA,NA,NA,"congruent","left","TRUE",NA,NA,NA,NA,NA,NA
"639","flanker_test","39","image-keyboard-response","79","665144","0.0-3.0-48.0-0.1","3","2020-1-8 9:24:15","OTTER",NA,NA,NA,NA,NA,"incongruent","right","TRUE",NA,NA,NA,NA,NA,NA
"534","flanker_test","39","image-keyboard-response","80","666856","0.0-3.0-48.0-0.2","3","2020-1-8 9:24:15","OTTER",NA,NA,NA,NA,NA,"congruent","right","TRUE",NA,NA,NA,NA,NA,NA
"617","flanker_test","37","image-keyboard-response","81","668536","0.0-3.0-48.0-0.3","3","2020-1-8 9:24:15","OTTER",NA,NA,NA,NA,NA,"incongruent","left","TRUE",NA,NA,NA,NA,NA,NA
"26559","sort_trial",NA,"free-sort","82","695522","0.0-3.0-49.0","3","2020-1-8 9:24:15","OTTER",NA,NA,NA,NA,NA,NA,NA,NA,"[{""cat"":21,""src"":9,""x"":71,""y"":445},{""cat"":21,""src"":11,""x"":39,""y"":493},{""cat"":21,""src"":17,""x"":65,""y"":252},{""cat"":15,""src"":4,""x"":17,""y"":363},{""cat"":15,""src"":10,""x"":74,""y"":302},{""cat"":15,""src"":2,""x"":68,""y"":2},{""cat"":25,""src"":1,""x"":80,""y"":120},{""cat"":25,""src"":8,""x"":72,""y"":80},{""cat"":25,""src"":16,""x"":76,""y"":183}]","[{""cat"":""21"",""src"":""9"",""x"":0,""y"":0},{""cat"":""21"",""src"":""17"",""x"":0,""y"":0},{""cat"":""21"",""src"":""11"",""x"":0,""y"":0},{""cat"":""25"",""src"":""16"",""x"":0,""y"":0},{""cat"":""15"",""src"":""2"",""x"":0,""y"":0},{""cat"":""15"",""src"":""10"",""x"":0,""y"":0},{""cat"":""15"",""src"":""4"",""x"":0,""y"":0},{""cat"":""25"",""src"":""8"",""x"":0,""y"":0},{""cat"":""25"",""src"":""1"",""x"":0,""y"":0}]","[{""cat"":21,""src"":9,""loc"":6},{""cat"":21,""src"":17,""loc"":7},{""cat"":21,""src"":11,""loc"":8},{""cat"":25,""src"":16,""loc"":4},{""cat"":15,""src"":2,""loc"":0},{""cat"":15,""src"":10,""loc"":1},{""cat"":15,""src"":4,""loc"":2},{""cat"":25,""src"":8,""loc"":5},{""cat"":25,""src"":1,""loc"":3}]","7","15,15,15,25,25,25,21,21,21,2,10,4,1,16,8,9,17,11,0,1,2,3,4,5,6,7,8,4,5,6,8,3,7,0,1,2",NA
"2589","sort_feedback","13","html-keyboard-response","83","698112","0.0-3.0-50.0","3","2020-1-8 9:24:15","OTTER",NA,NA,NA,NA,NA,NA,NA,NA,NA,NA,NA,NA,NA,NA
"19912","setup2",NA,"animation","84","718025","0.0-3.0-51.0","3","2020-1-8 9:24:15","OTTER",NA,NA,"[{""cat"":33,""src"":11,""loc"":3},{""cat"":27,""src"":1,""loc"":5},{""cat"":10,""src"":2,""loc"":4},{""cat"":10,""src"":1,""loc"":0},{""cat"":33,""src"":15,""loc"":1},{""cat"":27,""src"":8,""loc"":2},{""cat"":10,""src"":18,""loc"":7},{""cat"":27,""src"":10,""loc"":8},{""cat"":33,""src"":6,""loc"":6}]","2","1102,1101,1102,1101,1101,1101,1100,1102,1101,10001",NA,NA,NA,NA,NA,NA,NA,NA,NA
"2646","flanker_instructions","39","html-keyboard-response","85","720672","0.0-3.0-52.0","3","2020-1-8 9:24:15","OTTER",NA,NA,NA,NA,NA,NA,NA,NA,NA,NA,NA,NA,NA,NA
"638","flanker_test","37","image-keyboard-response","86","722312","0.0-3.0-53.0-0.0","3","2020-1-8 9:24:15","OTTER",NA,NA,NA,NA,NA,"incongruent","left","TRUE",NA,NA,NA,NA,NA,NA
"608","flanker_test","39","image-keyboard-response","87","723520","0.0-3.0-53.0-0.1","3","2020-1-8 9:24:15","OTTER",NA,NA,NA,NA,NA,"incongruent","right","TRUE",NA,NA,NA,NA,NA,NA
"439","flanker_test","39","image-keyboard-response","88","724504","0.0-3.0-53.0-0.2","3","2020-1-8 9:24:15","OTTER",NA,NA,NA,NA,NA,"congruent","right","TRUE",NA,NA,NA,NA,NA,NA
"900","flanker_test","37","image-keyboard-response","89","726177","0.0-3.0-53.0-0.3","3","2020-1-8 9:24:15","OTTER",NA,NA,NA,NA,NA,"congruent","left","TRUE",NA,NA,NA,NA,NA,NA
"25650","sort_trial",NA,"free-sort","90","752874","0.0-3.0-54.0","3","2020-1-8 9:24:15","OTTER",NA,NA,NA,NA,NA,NA,NA,NA,"[{""cat"":33,""src"":11,""x"":52,""y"":7},{""cat"":27,""src"":1,""x"":31,""y"":75},{""cat"":10,""src"":2,""x"":0,""y"":507},{""cat"":10,""src"":1,""x"":13,""y"":424},{""cat"":33,""src"":15,""x"":62,""y"":372},{""cat"":27,""src"":8,""x"":70,""y"":301},{""cat"":10,""src"":18,""x"":49,""y"":195},{""cat"":27,""src"":10,""x"":16,""y"":266},{""cat"":33,""src"":6,""x"":52,""y"":146}]","[{""cat"":""10"",""src"":""18"",""x"":0,""y"":0},{""cat"":""33"",""src"":""6"",""x"":0,""y"":0},{""cat"":""27"",""src"":""10"",""x"":0,""y"":0},{""cat"":""33"",""src"":""11"",""x"":0,""y"":0},{""cat"":""27"",""src"":""1"",""x"":0,""y"":0},{""cat"":""33"",""src"":""15"",""x"":0,""y"":0},{""cat"":""10"",""src"":""2"",""x"":0,""y"":0},{""cat"":""27"",""src"":""8"",""x"":0,""y"":0},{""cat"":""10"",""src"":""1"",""x"":0,""y"":0}]","[{""cat"":10,""src"":18,""loc"":7},{""cat"":33,""src"":6,""loc"":6},{""cat"":27,""src"":10,""loc"":8},{""cat"":33,""src"":11,""loc"":5},{""cat"":27,""src"":1,""loc"":3},{""cat"":33,""src"":15,""loc"":1},{""cat"":10,""src"":2,""loc"":2},{""cat"":27,""src"":8,""loc"":0},{""cat"":10,""src"":1,""loc"":4}]","4","27,33,10,27,10,33,33,10,27,8,15,2,1,1,11,6,18,10,0,1,2,3,4,5,6,7,8,7,5,6,4,8,3,1,0,2",NA
"7061","sort_feedback","13","html-keyboard-response","91","759936","0.0-3.0-55.0","3","2020-1-8 9:24:15","OTTER",NA,NA,NA,NA,NA,NA,NA,NA,NA,NA,NA,NA,NA,NA
"19912","setup3",NA,"animation","92","779849","0.0-3.0-56.0","3","2020-1-8 9:24:15","OTTER",NA,NA,"[{""cat"":18,""src"":19,""loc"":0},{""cat"":26,""src"":18,""loc"":5},{""cat"":22,""src"":3,""loc"":8},{""cat"":26,""src"":12,""loc"":3},{""cat"":22,""src"":14,""loc"":7},{""cat"":18,""src"":16,""loc"":1},{""cat"":22,""src"":19,""loc"":6},{""cat"":18,""src"":4,""loc"":2},{""cat"":26,""src"":17,""loc"":4}]","3","1102,1102,1101,1100,1102,1101,1101,1101,1101,10001",NA,NA,NA,NA,NA,NA,NA,NA,NA
"1254","flanker_instructions","39","html-keyboard-response","93","781104","0.0-3.0-57.0","3","2020-1-8 9:24:15","OTTER",NA,NA,NA,NA,NA,NA,NA,NA,NA,NA,NA,NA,NA,NA
"663","flanker_test","39","image-keyboard-response","94","782768","0.0-3.0-58.0-0.0","3","2020-1-8 9:24:15","OTTER",NA,NA,NA,NA,NA,"congruent","right","TRUE",NA,NA,NA,NA,NA,NA
"588","flanker_test","37","image-keyboard-response","95","784464","0.0-3.0-58.0-0.1","3","2020-1-8 9:24:15","OTTER",NA,NA,NA,NA,NA,"congruent","left","TRUE",NA,NA,NA,NA,NA,NA
"609","flanker_test","37","image-keyboard-response","96","785832","0.0-3.0-58.0-0.2","3","2020-1-8 9:24:15","OTTER",NA,NA,NA,NA,NA,"incongruent","left","TRUE",NA,NA,NA,NA,NA,NA
"723","flanker_test","39","image-keyboard-response","97","787016","0.0-3.0-58.0-0.3","3","2020-1-8 9:24:15","OTTER",NA,NA,NA,NA,NA,"incongruent","right","TRUE",NA,NA,NA,NA,NA,NA
"34887","sort_trial",NA,"free-sort","98","822728","0.0-3.0-59.0","3","2020-1-8 9:24:15","OTTER",NA,NA,NA,NA,NA,NA,NA,NA,"[{""cat"":18,""src"":19,""x"":3,""y"":382},{""cat"":26,""src"":18,""x"":72,""y"":258},{""cat"":22,""src"":3,""x"":40,""y"":184},{""cat"":26,""src"":12,""x"":81,""y"":301},{""cat"":22,""src"":14,""x"":9,""y"":70},{""cat"":18,""src"":16,""x"":29,""y"":144},{""cat"":22,""src"":19,""x"":67,""y"":481},{""cat"":18,""src"":4,""x"":64,""y"":437},{""cat"":26,""src"":17,""x"":71,""y"":28}]","[{""cat"":""18"",""src"":""16"",""x"":0,""y"":0},{""cat"":""18"",""src"":""19"",""x"":0,""y"":0},{""cat"":""26"",""src"":""17"",""x"":0,""y"":0},{""cat"":""26"",""src"":""18"",""x"":0,""y"":0},{""cat"":""26"",""src"":""12"",""x"":0,""y"":0},{""cat"":""22"",""src"":""3"",""x"":0,""y"":0},{""cat"":""22"",""src"":""19"",""x"":0,""y"":0},{""cat"":""22"",""src"":""14"",""x"":0,""y"":0},{""cat"":""18"",""src"":""4"",""x"":0,""y"":0}]","[{""cat"":18,""src"":16,""loc"":1},{""cat"":18,""src"":19,""loc"":0},{""cat"":26,""src"":17,""loc"":4},{""cat"":26,""src"":18,""loc"":5},{""cat"":26,""src"":12,""loc"":3},{""cat"":22,""src"":3,""loc"":8},{""cat"":22,""src"":19,""loc"":6},{""cat"":22,""src"":14,""loc"":7},{""cat"":18,""src"":4,""loc"":2}]","9","18,18,18,26,26,26,22,22,22,19,16,4,12,17,18,19,14,3,0,1,2,3,4,5,6,7,8,1,0,8,4,2,3,6,7,5",NA
"2703","sort_feedback","13","html-keyboard-response","99","825433","0.0-3.0-60.0","3","2020-1-8 9:24:15","OTTER",NA,NA,NA,NA,NA,NA,NA,NA,NA,NA,NA,NA,NA,NA
"19915","setup1",NA,"animation","100","845348","0.0-3.0-61.0","3","2020-1-8 9:24:15","OTTER",NA,NA,"[{""cat"":20,""src"":3,""loc"":6},{""cat"":20,""src"":14,""loc"":8},{""cat"":20,""src"":2,""loc"":7},{""cat"":33,""src"":14,""loc"":5},{""cat"":33,""src"":0,""loc"":3},{""cat"":33,""src"":13,""loc"":4},{""cat"":21,""src"":17,""loc"":1},{""cat"":21,""src"":13,""loc"":0},{""cat"":21,""src"":18,""loc"":2}]","1","1102,1101,1101,1101,1101,1102,1102,1102,1102,10001",NA,NA,NA,NA,NA,NA,NA,NA,NA
"1267","flanker_instructions","39","html-keyboard-response","101","846617","0.0-3.0-62.0","3","2020-1-8 9:24:15","OTTER",NA,NA,NA,NA,NA,NA,NA,NA,NA,NA,NA,NA,NA,NA
NA,"flanker_test",NA,"image-keyboard-response","102","848520","0.0-3.0-63.0-0.0","3","2020-1-8 9:24:15","OTTER",NA,NA,NA,NA,NA,"incongruent","left","FALSE",NA,NA,NA,NA,NA,NA
"877","flanker_test","39","image-keyboard-response","103","849704","0.0-3.0-63.0-0.1","3","2020-1-8 9:24:15","OTTER",NA,NA,NA,NA,NA,"incongruent","right","TRUE",NA,NA,NA,NA,NA,NA
"477","flanker_test","37","image-keyboard-response","104","851072","0.0-3.0-63.0-0.2","3","2020-1-8 9:24:15","OTTER",NA,NA,NA,NA,NA,"congruent","left","TRUE",NA,NA,NA,NA,NA,NA
"549","flanker_test","39","image-keyboard-response","105","852744","0.0-3.0-63.0-0.3","3","2020-1-8 9:24:15","OTTER",NA,NA,NA,NA,NA,"congruent","right","TRUE",NA,NA,NA,NA,NA,NA
"24150","sort_trial",NA,"free-sort","106","877566","0.0-3.0-64.0","3","2020-1-8 9:24:15","OTTER",NA,NA,NA,NA,NA,NA,NA,NA,"[{""cat"":20,""src"":3,""x"":35,""y"":308},{""cat"":20,""src"":14,""x"":42,""y"":255},{""cat"":20,""src"":2,""x"":4,""y"":121},{""cat"":33,""src"":14,""x"":4,""y"":443},{""cat"":33,""src"":0,""x"":4,""y"":71},{""cat"":33,""src"":13,""x"":53,""y"":28},{""cat"":21,""src"":17,""x"":13,""y"":507},{""cat"":21,""src"":13,""x"":41,""y"":204},{""cat"":21,""src"":18,""x"":82,""y"":373}]","[{""cat"":""21"",""src"":""17"",""x"":0,""y"":0},{""cat"":""21"",""src"":""13"",""x"":0,""y"":0},{""cat"":""21"",""src"":""18"",""x"":0,""y"":0},{""cat"":""33"",""src"":""13"",""x"":0,""y"":0},{""cat"":""20"",""src"":""14"",""x"":0,""y"":0},{""cat"":""20"",""src"":""2"",""x"":0,""y"":0},{""cat"":""20"",""src"":""3"",""x"":0,""y"":0},{""cat"":""33"",""src"":""0"",""x"":0,""y"":0},{""cat"":""33"",""src"":""14"",""x"":0,""y"":0}]","[{""cat"":21,""src"":17,""loc"":0},{""cat"":21,""src"":13,""loc"":1},{""cat"":21,""src"":18,""loc"":2},{""cat"":33,""src"":13,""loc"":4},{""cat"":20,""src"":14,""loc"":8},{""cat"":20,""src"":2,""loc"":7},{""cat"":20,""src"":3,""loc"":6},{""cat"":33,""src"":0,""loc"":5},{""cat"":33,""src"":14,""loc"":3}]","5","21,21,21,33,33,33,20,20,20,17,13,18,14,13,0,3,2,14,0,1,2,3,4,5,6,7,8,0,1,2,8,3,7,6,5,4",NA
"5769","sort_feedback","13","html-keyboard-response","107","883336","0.0-3.0-65.0","3","2020-1-8 9:24:15","OTTER",NA,NA,NA,NA,NA,NA,NA,NA,NA,NA,NA,NA,NA,NA
"19913","setup5",NA,"animation","108","903250","0.0-3.0-66.0","3","2020-1-8 9:24:15","OTTER",NA,NA,"[{""cat"":16,""src"":7,""loc"":3},{""cat"":8,""src"":11,""loc"":1},{""cat"":11,""src"":12,""loc"":8},{""cat"":8,""src"":12,""loc"":7},{""cat"":16,""src"":3,""loc"":0},{""cat"":11,""src"":18,""loc"":4},{""cat"":11,""src"":17,""loc"":2},{""cat"":16,""src"":5,""loc"":6},{""cat"":8,""src"":16,""loc"":5}]","5","1102,1101,1101,1100,1102,1102,1102,1101,1102,10000",NA,NA,NA,NA,NA,NA,NA,NA,NA
"1997","flanker_instructions","39","html-keyboard-response","109","905248","0.0-3.0-67.0","3","2020-1-8 9:24:15","OTTER",NA,NA,NA,NA,NA,NA,NA,NA,NA,NA,NA,NA,NA,NA
"742","flanker_test","39","image-keyboard-response","110","906992","0.0-3.0-68.0-0.0","3","2020-1-8 9:24:15","OTTER",NA,NA,NA,NA,NA,"incongruent","right","TRUE",NA,NA,NA,NA,NA,NA
"498","flanker_test","37","image-keyboard-response","111","908496","0.0-3.0-68.0-0.1","3","2020-1-8 9:24:15","OTTER",NA,NA,NA,NA,NA,"congruent","left","TRUE",NA,NA,NA,NA,NA,NA
"490","flanker_test","39","image-keyboard-response","112","909737","0.0-3.0-68.0-0.2","3","2020-1-8 9:24:15","OTTER",NA,NA,NA,NA,NA,"congruent","right","TRUE",NA,NA,NA,NA,NA,NA
"591","flanker_test","37","image-keyboard-response","113","911072","0.0-3.0-68.0-0.3","3","2020-1-8 9:24:15","OTTER",NA,NA,NA,NA,NA,"incongruent","left","TRUE",NA,NA,NA,NA,NA,NA
"28867","sort_trial",NA,"free-sort","114","941138","0.0-3.0-69.0","3","2020-1-8 9:24:15","OTTER",NA,NA,NA,NA,NA,NA,NA,NA,"[{""cat"":16,""src"":7,""x"":46,""y"":207},{""cat"":8,""src"":11,""x"":60,""y"":123},{""cat"":11,""src"":12,""x"":16,""y"":443},{""cat"":8,""src"":12,""x"":36,""y"":506},{""cat"":16,""src"":3,""x"":39,""y"":377},{""cat"":11,""src"":18,""x"":69,""y"":24},{""cat"":11,""src"":17,""x"":74,""y"":267},{""cat"":16,""src"":5,""x"":33,""y"":311},{""cat"":8,""src"":16,""x"":10,""y"":78}]","[{""cat"":""16"",""src"":""3"",""x"":0,""y"":0},{""cat"":""8"",""src"":""11"",""x"":0,""y"":0},{""cat"":""11"",""src"":""17"",""x"":0,""y"":0},{""cat"":""16"",""src"":""5"",""x"":0,""y"":0},{""cat"":""8"",""src"":""12"",""x"":0,""y"":0},{""cat"":""11"",""src"":""12"",""x"":0,""y"":0},{""cat"":""16"",""src"":""7"",""x"":0,""y"":0},{""cat"":""11"",""src"":""18"",""x"":0,""y"":0},{""cat"":""8"",""src"":""16"",""x"":0,""y"":0}]","[{""cat"":16,""src"":3,""loc"":0},{""cat"":8,""src"":11,""loc"":1},{""cat"":11,""src"":17,""loc"":2},{""cat"":16,""src"":5,""loc"":6},{""cat"":8,""src"":12,""loc"":7},{""cat"":11,""src"":12,""loc"":3},{""cat"":16,""src"":7,""loc"":8},{""cat"":11,""src"":18,""loc"":4},{""cat"":8,""src"":16,""loc"":5}]","7","16,8,11,11,11,8,16,8,16,3,11,17,12,18,16,5,12,7,0,1,2,3,4,5,6,7,8,0,1,2,5,7,8,3,4,6",NA
"2357","sort_feedback","13","html-keyboard-response","115","943496","0.0-3.0-70.0","3","2020-1-8 9:24:15","OTTER",NA,NA,NA,NA,NA,NA,NA,NA,NA,NA,NA,NA,NA,NA
"19914","setup4",NA,"animation","116","963411","0.0-3.0-71.0","3","2020-1-8 9:24:15","OTTER",NA,NA,"[{""cat"":28,""src"":18,""loc"":7},{""cat"":28,""src"":19,""loc"":2},{""cat"":28,""src"":17,""loc"":3},{""cat"":1,""src"":0,""loc"":8},{""cat"":1,""src"":11,""loc"":0},{""cat"":1,""src"":1,""loc"":5},{""cat"":11,""src"":1,""loc"":4},{""cat"":11,""src"":11,""loc"":6},{""cat"":11,""src"":12,""loc"":1}]","4","1101,1102,1101,1101,1102,1102,1101,1101,1102,10001",NA,NA,NA,NA,NA,NA,NA,NA,NA
"3492","flanker_instructions","39","html-keyboard-response","117","966904","0.0-3.0-72.0","3","2020-1-8 9:24:15","OTTER",NA,NA,NA,NA,NA,NA,NA,NA,NA,NA,NA,NA,NA,NA
"493","flanker_test","37","image-keyboard-response","118","968401","0.0-3.0-73.0-0.0","3","2020-1-8 9:24:15","OTTER",NA,NA,NA,NA,NA,"congruent","left","TRUE",NA,NA,NA,NA,NA,NA
"682","flanker_test","37","image-keyboard-response","119","970192","0.0-3.0-73.0-0.1","3","2020-1-8 9:24:15","OTTER",NA,NA,NA,NA,NA,"incongruent","left","TRUE",NA,NA,NA,NA,NA,NA
"773","flanker_test","39","image-keyboard-response","120","972129","0.0-3.0-73.0-0.2","3","2020-1-8 9:24:15","OTTER",NA,NA,NA,NA,NA,"incongruent","right","TRUE",NA,NA,NA,NA,NA,NA
"660","flanker_test","39","image-keyboard-response","121","973481","0.0-3.0-73.0-0.3","3","2020-1-8 9:24:15","OTTER",NA,NA,NA,NA,NA,"congruent","right","TRUE",NA,NA,NA,NA,NA,NA
"29573","sort_trial",NA,"free-sort","122","1003819","0.0-3.0-74.0","3","2020-1-8 9:24:15","OTTER",NA,NA,NA,NA,NA,NA,NA,NA,"[{""cat"":28,""src"":18,""x"":27,""y"":135},{""cat"":28,""src"":19,""x"":47,""y"":304},{""cat"":28,""src"":17,""x"":70,""y"":17},{""cat"":1,""src"":0,""x"":74,""y"":202},{""cat"":1,""src"":11,""x"":58,""y"":78},{""cat"":1,""src"":1,""x"":25,""y"":503},{""cat"":11,""src"":1,""x"":76,""y"":426},{""cat"":11,""src"":11,""x"":37,""y"":381},{""cat"":11,""src"":12,""x"":28,""y"":262}]","[{""cat"":""28"",""src"":""18"",""x"":0,""y"":0},{""cat"":""11"",""src"":""11"",""x"":0,""y"":0},{""cat"":""1"",""src"":""0"",""x"":0,""y"":0},{""cat"":""28"",""src"":""17"",""x"":0,""y"":0},{""cat"":""28"",""src"":""19"",""x"":0,""y"":0},{""cat"":""11"",""src"":""1"",""x"":0,""y"":0},{""cat"":""1"",""src"":""1"",""x"":0,""y"":0},{""cat"":""1"",""src"":""11"",""x"":0,""y"":0},{""cat"":""11"",""src"":""12"",""x"":0,""y"":0}]","[{""cat"":28,""src"":18,""loc"":7},{""cat"":11,""src"":11,""loc"":6},{""cat"":1,""src"":0,""loc"":8},{""cat"":28,""src"":17,""loc"":3},{""cat"":28,""src"":19,""loc"":2},{""cat"":11,""src"":1,""loc"":4},{""cat"":1,""src"":1,""loc"":5},{""cat"":1,""src"":11,""loc"":0},{""cat"":11,""src"":12,""loc"":1}]","9","1,11,28,28,11,1,11,28,1,11,12,19,17,1,1,11,18,0,0,1,2,3,4,5,6,7,8,7,8,4,3,5,6,1,0,2",NA
"6222","sort_feedback","13","html-keyboard-response","123","1010041","0.0-3.0-75.0","3","2020-1-8 9:24:15","OTTER",NA,NA,NA,NA,NA,NA,NA,NA,NA,NA,NA,NA,NA,NA
"19914","setup3",NA,"animation","124","1029955","0.0-3.0-76.0","3","2020-1-8 9:24:15","OTTER",NA,NA,"[{""cat"":9,""src"":17,""loc"":8},{""cat"":18,""src"":0,""loc"":4},{""cat"":32,""src"":8,""loc"":2},{""cat"":9,""src"":12,""loc"":6},{""cat"":32,""src"":14,""loc"":1},{""cat"":18,""src"":9,""loc"":5},{""cat"":32,""src"":2,""loc"":0},{""cat"":18,""src"":13,""loc"":3},{""cat"":9,""src"":0,""loc"":7}]","3","1102,1102,1100,1102,1101,1100,1103,1102,1101,10001",NA,NA,NA,NA,NA,NA,NA,NA,NA
"2532","flanker_instructions","39","html-keyboard-response","125","1032488","0.0-3.0-77.0","3","2020-1-8 9:24:15","OTTER",NA,NA,NA,NA,NA,NA,NA,NA,NA,NA,NA,NA,NA,NA
"535","flanker_test","39","image-keyboard-response","126","1034025","0.0-3.0-78.0-0.0","3","2020-1-8 9:24:15","OTTER",NA,NA,NA,NA,NA,"congruent","right","TRUE",NA,NA,NA,NA,NA,NA
"714","flanker_test","39","image-keyboard-response","127","1035905","0.0-3.0-78.0-0.1","3","2020-1-8 9:24:15","OTTER",NA,NA,NA,NA,NA,"incongruent","right","TRUE",NA,NA,NA,NA,NA,NA
"521","flanker_test","37","image-keyboard-response","128","1037400","0.0-3.0-78.0-0.2","3","2020-1-8 9:24:15","OTTER",NA,NA,NA,NA,NA,"congruent","left","TRUE",NA,NA,NA,NA,NA,NA
"548","flanker_test","37","image-keyboard-response","129","1038577","0.0-3.0-78.0-0.3","3","2020-1-8 9:24:15","OTTER",NA,NA,NA,NA,NA,"incongruent","left","TRUE",NA,NA,NA,NA,NA,NA
"38732","sort_trial",NA,"free-sort","130","1078131","0.0-3.0-79.0","3","2020-1-8 9:24:15","OTTER",NA,NA,NA,NA,NA,NA,NA,NA,"[{""cat"":9,""src"":17,""x"":76,""y"":241},{""cat"":18,""src"":0,""x"":38,""y"":27},{""cat"":32,""src"":8,""x"":5,""y"":504},{""cat"":9,""src"":12,""x"":5,""y"":205},{""cat"":32,""src"":14,""x"":61,""y"":74},{""cat"":18,""src"":9,""x"":50,""y"":360},{""cat"":32,""src"":2,""x"":28,""y"":320},{""cat"":18,""src"":13,""x"":55,""y"":430},{""cat"":9,""src"":0,""x"":7,""y"":136}]","[{""cat"":""18"",""src"":""0"",""x"":0,""y"":0},{""cat"":""18"",""src"":""9"",""x"":0,""y"":0},{""cat"":""32"",""src"":""8"",""x"":0,""y"":0},{""cat"":""18"",""src"":""13"",""x"":0,""y"":0},{""cat"":""32"",""src"":""2"",""x"":418,""y"":79},{""cat"":""32"",""src"":""2"",""x"":0,""y"":0},{""cat"":""9"",""src"":""12"",""x"":288,""y"":362},{""cat"":""9"",""src"":""12"",""x"":0,""y"":0},{""cat"":""9"",""src"":""17"",""x"":0,""y"":0},{""cat"":""9"",""src"":""0"",""x"":0,""y"":0},{""cat"":""32"",""src"":""14"",""x"":0,""y"":0}]","[{""cat"":18,""src"":0,""loc"":4},{""cat"":18,""src"":9,""loc"":5},{""cat"":32,""src"":8,""loc"":2},{""cat"":18,""src"":13,""loc"":3},{""cat"":32,""src"":2,""loc"":1},{""cat"":9,""src"":12,""loc"":7},{""cat"":9,""src"":17,""loc"":6},{""cat"":9,""src"":0,""loc"":8},{""cat"":32,""src"":14,""loc"":0}]","4","32,32,32,18,18,18,9,9,9,14,2,8,13,0,9,17,12,0,0,1,2,3,4,5,6,7,8,8,4,2,3,0,1,6,5,7",NA
"2163","sort_feedback","13","html-keyboard-response","131","1080297","0.0-3.0-80.0","3","2020-1-8 9:24:15","OTTER",NA,NA,NA,NA,NA,NA,NA,NA,NA,NA,NA,NA,NA,NA
"19911","setup1",NA,"animation","132","1100208","0.0-3.0-81.0","3","2020-1-8 9:24:15","OTTER",NA,NA,"[{""cat"":20,""src"":9,""loc"":3},{""cat"":20,""src"":4,""loc"":4},{""cat"":20,""src"":12,""loc"":5},{""cat"":17,""src"":5,""loc"":2},{""cat"":17,""src"":0,""loc"":0},{""cat"":17,""src"":7,""loc"":1},{""cat"":29,""src"":7,""loc"":8},{""cat"":29,""src"":8,""loc"":7},{""cat"":29,""src"":2,""loc"":6}]","1","1101,1100,1101,1101,1101,1102,1101,1102,1101,10001",NA,NA,NA,NA,NA,NA,NA,NA,NA
"856","flanker_instructions","39","html-keyboard-response","133","1101064","0.0-3.0-82.0","3","2020-1-8 9:24:15","OTTER",NA,NA,NA,NA,NA,NA,NA,NA,NA,NA,NA,NA,NA,NA
"606","flanker_test","39","image-keyboard-response","134","1102672","0.0-3.0-83.0-0.0","3","2020-1-8 9:24:15","OTTER",NA,NA,NA,NA,NA,"congruent","right","TRUE",NA,NA,NA,NA,NA,NA
"595","flanker_test","37","image-keyboard-response","135","1104241","0.0-3.0-83.0-0.1","3","2020-1-8 9:24:15","OTTER",NA,NA,NA,NA,NA,"incongruent","left","TRUE",NA,NA,NA,NA,NA,NA
"678","flanker_test","37","image-keyboard-response","136","1106049","0.0-3.0-83.0-0.2","3","2020-1-8 9:24:15","OTTER",NA,NA,NA,NA,NA,"congruent","left","TRUE",NA,NA,NA,NA,NA,NA
"612","flanker_test","39","image-keyboard-response","137","1107112","0.0-3.0-83.0-0.3","3","2020-1-8 9:24:15","OTTER",NA,NA,NA,NA,NA,"incongruent","right","TRUE",NA,NA,NA,NA,NA,NA
"26893","sort_trial",NA,"free-sort","138","1134696","0.0-3.0-84.0","3","2020-1-8 9:24:15","OTTER",NA,NA,NA,NA,NA,NA,NA,NA,"[{""cat"":20,""src"":9,""x"":33,""y"":263},{""cat"":20,""src"":4,""x"":29,""y"":387},{""cat"":20,""src"":12,""x"":57,""y"":141},{""cat"":17,""src"":5,""x"":71,""y"":83},{""cat"":17,""src"":0,""x"":45,""y"":194},{""cat"":17,""src"":7,""x"":39,""y"":491},{""cat"":29,""src"":7,""x"":33,""y"":25},{""cat"":29,""src"":8,""x"":62,""y"":324},{""cat"":29,""src"":2,""x"":44,""y"":448}]","[{""cat"":""29"",""src"":""8"",""x"":0,""y"":0},{""cat"":""29"",""src"":""2"",""x"":0,""y"":0},{""cat"":""29"",""src"":""7"",""x"":0,""y"":0},{""cat"":""20"",""src"":""12"",""x"":0,""y"":0},{""cat"":""20"",""src"":""9"",""x"":0,""y"":0},{""cat"":""20"",""src"":""4"",""x"":0,""y"":0},{""cat"":""17"",""src"":""5"",""x"":0,""y"":0},{""cat"":""17"",""src"":""7"",""x"":0,""y"":0},{""cat"":""17"",""src"":""0"",""x"":0,""y"":0}]","[{""cat"":29,""src"":8,""loc"":7},{""cat"":29,""src"":2,""loc"":6},{""cat"":29,""src"":7,""loc"":8},{""cat"":20,""src"":12,""loc"":5},{""cat"":20,""src"":9,""loc"":3},{""cat"":20,""src"":4,""loc"":4},{""cat"":17,""src"":5,""loc"":0},{""cat"":17,""src"":7,""loc"":2},{""cat"":17,""src"":0,""loc"":1}]","6","17,17,17,20,20,20,29,29,29,5,0,7,9,4,12,2,8,7,0,1,2,3,4,5,6,7,8,6,8,7,4,5,3,1,0,2",NA
"5807","sort_feedback","13","html-keyboard-response","139","1140505","0.0-3.0-85.0","3","2020-1-8 9:24:15","OTTER",NA,NA,NA,NA,NA,NA,NA,NA,NA,NA,NA,NA,NA,NA
"19911","setup4",NA,"animation","140","1160416","0.0-3.0-86.0","3","2020-1-8 9:24:15","OTTER",NA,NA,"[{""cat"":25,""src"":15,""loc"":8},{""cat"":25,""src"":1,""loc"":5},{""cat"":25,""src"":8,""loc"":1},{""cat"":9,""src"":15,""loc"":2},{""cat"":9,""src"":3,""loc"":4},{""cat"":9,""src"":17,""loc"":6},{""cat"":18,""src"":12,""loc"":0},{""cat"":18,""src"":14,""loc"":7},{""cat"":18,""src"":11,""loc"":3}]","4","1101,1101,1101,1101,1101,1101,1101,1101,1102,10001",NA,NA,NA,NA,NA,NA,NA,NA,NA
"2135","flanker_instructions","39","html-keyboard-response","141","1162553","0.0-3.0-87.0","3","2020-1-8 9:24:15","OTTER",NA,NA,NA,NA,NA,NA,NA,NA,NA,NA,NA,NA,NA,NA
NA,"flanker_test",NA,"image-keyboard-response","142","1164455","0.0-3.0-88.0-0.0","3","2020-1-8 9:24:15","OTTER",NA,NA,NA,NA,NA,"congruent","right","FALSE",NA,NA,NA,NA,NA,NA
"611","flanker_test","39","image-keyboard-response","143","1165568","0.0-3.0-88.0-0.1","3","2020-1-8 9:24:15","OTTER",NA,NA,NA,NA,NA,"incongruent","right","TRUE",NA,NA,NA,NA,NA,NA
"760","flanker_test","37","image-keyboard-response","144","1167008","0.0-3.0-88.0-0.2","3","2020-1-8 9:24:15","OTTER",NA,NA,NA,NA,NA,"incongruent","left","TRUE",NA,NA,NA,NA,NA,NA
"573","flanker_test","37","image-keyboard-response","145","1168609","0.0-3.0-88.0-0.3","3","2020-1-8 9:24:15","OTTER",NA,NA,NA,NA,NA,"congruent","left","TRUE",NA,NA,NA,NA,NA,NA
"33221","sort_trial",NA,"free-sort","146","1202709","0.0-3.0-89.0","3","2020-1-8 9:24:15","OTTER",NA,NA,NA,NA,NA,NA,NA,NA,"[{""cat"":25,""src"":15,""x"":73,""y"":19},{""cat"":25,""src"":1,""x"":47,""y"":179},{""cat"":25,""src"":8,""x"":70,""y"":420},{""cat"":9,""src"":15,""x"":48,""y"":490},{""cat"":9,""src"":3,""x"":52,""y"":372},{""cat"":9,""src"":17,""x"":45,""y"":87},{""cat"":18,""src"":12,""x"":33,""y"":304},{""cat"":18,""src"":14,""x"":65,""y"":147},{""cat"":18,""src"":11,""x"":71,""y"":252}]","[{""cat"":""25"",""src"":""1"",""x"":0,""y"":0},{""cat"":""18"",""src"":""11"",""x"":0,""y"":0},{""cat"":""9"",""src"":""3"",""x"":0,""y"":0},{""cat"":""25"",""src"":""15"",""x"":0,""y"":0},{""cat"":""9"",""src"":""17"",""x"":0,""y"":0},{""cat"":""18"",""src"":""14"",""x"":0,""y"":0},{""cat"":""18"",""src"":""12"",""x"":0,""y"":0},{""cat"":""25"",""src"":""8"",""x"":0,""y"":0},{""cat"":""9"",""src"":""15"",""x"":0,""y"":0}]","[{""cat"":25,""src"":1,""loc"":5},{""cat"":18,""src"":11,""loc"":4},{""cat"":9,""src"":3,""loc"":3},{""cat"":25,""src"":15,""loc"":8},{""cat"":9,""src"":17,""loc"":6},{""cat"":18,""src"":14,""loc"":7},{""cat"":18,""src"":12,""loc"":2},{""cat"":25,""src"":8,""loc"":1},{""cat"":9,""src"":15,""loc"":0}]","5","9,25,18,9,18,25,9,18,25,15,8,12,3,11,1,17,14,15,0,1,2,3,4,5,6,7,8,8,7,6,2,1,0,4,5,3",NA
"2083","sort_feedback","13","html-keyboard-response","147","1204793","0.0-3.0-90.0","3","2020-1-8 9:24:15","OTTER",NA,NA,NA,NA,NA,NA,NA,NA,NA,NA,NA,NA,NA,NA
"19913","setup5",NA,"animation","148","1224706","0.0-3.0-91.0","3","2020-1-8 9:24:15","OTTER",NA,NA,"[{""cat"":16,""src"":15,""loc"":4},{""cat"":7,""src"":1,""loc"":8},{""cat"":30,""src"":1,""loc"":2},{""cat"":30,""src"":4,""loc"":3},{""cat"":7,""src"":2,""loc"":1},{""cat"":16,""src"":18,""loc"":7},{""cat"":30,""src"":14,""loc"":6},{""cat"":7,""src"":17,""loc"":5},{""cat"":16,""src"":19,""loc"":0}]","5","1102,1100,1102,1100,1101,1101,1101,1103,1101,10002",NA,NA,NA,NA,NA,NA,NA,NA,NA
"3495","flanker_instructions","39","html-keyboard-response","149","1228201","0.0-3.0-92.0","3","2020-1-8 9:24:15","OTTER",NA,NA,NA,NA,NA,NA,NA,NA,NA,NA,NA,NA,NA,NA
"765","flanker_test","39","image-keyboard-response","150","1229968","0.0-3.0-93.0-0.0","3","2020-1-8 9:24:15","OTTER",NA,NA,NA,NA,NA,"congruent","right","TRUE",NA,NA,NA,NA,NA,NA
"665","flanker_test","39","image-keyboard-response","151","1231569","0.0-3.0-93.0-0.1","3","2020-1-8 9:24:15","OTTER",NA,NA,NA,NA,NA,"incongruent","right","TRUE",NA,NA,NA,NA,NA,NA
"582","flanker_test","37","image-keyboard-response","152","1232529","0.0-3.0-93.0-0.2","3","2020-1-8 9:24:15","OTTER",NA,NA,NA,NA,NA,"incongruent","left","TRUE",NA,NA,NA,NA,NA,NA
"540","flanker_test","37","image-keyboard-response","153","1233888","0.0-3.0-93.0-0.3","3","2020-1-8 9:24:15","OTTER",NA,NA,NA,NA,NA,"congruent","left","TRUE",NA,NA,NA,NA,NA,NA
"43054","sort_trial",NA,"free-sort","154","1277631","0.0-3.0-94.0","3","2020-1-8 9:24:15","OTTER",NA,NA,NA,NA,NA,NA,NA,NA,"[{""cat"":16,""src"":15,""x"":11,""y"":479},{""cat"":7,""src"":1,""x"":80,""y"":186},{""cat"":30,""src"":1,""x"":58,""y"":3},{""cat"":30,""src"":4,""x"":2,""y"":366},{""cat"":7,""src"":2,""x"":47,""y"":443},{""cat"":16,""src"":18,""x"":83,""y"":60},{""cat"":30,""src"":14,""x"":41,""y"":302},{""cat"":7,""src"":17,""x"":18,""y"":140},{""cat"":16,""src"":19,""x"":67,""y"":252}]","[{""cat"":""16"",""src"":""15"",""x"":0,""y"":0},{""cat"":""7"",""src"":""17"",""x"":0,""y"":0},{""cat"":""30"",""src"":""4"",""x"":0,""y"":0},{""cat"":""16"",""src"":""19"",""x"":0,""y"":0},{""cat"":""30"",""src"":""14"",""x"":0,""y"":0},{""cat"":""7"",""src"":""2"",""x"":0,""y"":0},{""cat"":""7"",""src"":""1"",""x"":0,""y"":0},{""cat"":""30"",""src"":""1"",""x"":0,""y"":0},{""cat"":""16"",""src"":""18"",""x"":0,""y"":0}]","[{""cat"":16,""src"":15,""loc"":4},{""cat"":7,""src"":17,""loc"":5},{""cat"":30,""src"":4,""loc"":3},{""cat"":16,""src"":19,""loc"":0},{""cat"":30,""src"":14,""loc"":6},{""cat"":7,""src"":2,""loc"":7},{""cat"":7,""src"":1,""loc"":1},{""cat"":30,""src"":1,""loc"":2},{""cat"":16,""src"":18,""loc"":8}]","6","16,7,30,30,16,7,30,7,16,19,1,1,4,15,17,14,2,18,0,1,2,3,4,5,6,7,8,3,6,7,2,0,1,4,5,8",NA
"2056","sort_feedback","13","html-keyboard-response","155","1279689","0.0-3.0-95.0","3","2020-1-8 9:24:15","OTTER",NA,NA,NA,NA,NA,NA,NA,NA,NA,NA,NA,NA,NA,NA
"19913","setup2",NA,"animation","156","1299602","0.0-3.0-96.0","3","2020-1-8 9:24:15","OTTER",NA,NA,"[{""cat"":30,""src"":1,""loc"":1},{""cat"":28,""src"":0,""loc"":2},{""cat"":0,""src"":13,""loc"":0},{""cat"":0,""src"":12,""loc"":6},{""cat"":30,""src"":16,""loc"":7},{""cat"":28,""src"":18,""loc"":8},{""cat"":0,""src"":15,""loc"":3},{""cat"":28,""src"":17,""loc"":4},{""cat"":30,""src"":7,""loc"":5}]","2","1102,1100,1101,1101,1102,1102,1101,1101,1101,10002",NA,NA,NA,NA,NA,NA,NA,NA,NA
"2006","flanker_instructions","39","html-keyboard-response","157","1301609","0.0-3.0-97.0","3","2020-1-8 9:24:15","OTTER",NA,NA,NA,NA,NA,NA,NA,NA,NA,NA,NA,NA,NA,NA
"559","flanker_test","37","image-keyboard-response","158","1303169","0.0-3.0-98.0-0.0","3","2020-1-8 9:24:15","OTTER",NA,NA,NA,NA,NA,"congruent","left","TRUE",NA,NA,NA,NA,NA,NA
"580","flanker_test","39","image-keyboard-response","159","1304272","0.0-3.0-98.0-0.1","3","2020-1-8 9:24:15","OTTER",NA,NA,NA,NA,NA,"congruent","right","TRUE",NA,NA,NA,NA,NA,NA
"660","flanker_test","37","image-keyboard-response","160","1305720","0.0-3.0-98.0-0.2","3","2020-1-8 9:24:15","OTTER",NA,NA,NA,NA,NA,"incongruent","left","TRUE",NA,NA,NA,NA,NA,NA
"629","flanker_test","39","image-keyboard-response","161","1307313","0.0-3.0-98.0-0.3","3","2020-1-8 9:24:15","OTTER",NA,NA,NA,NA,NA,"incongruent","right","TRUE",NA,NA,NA,NA,NA,NA
"31814","sort_trial",NA,"free-sort","162","1340025","0.0-3.0-99.0","3","2020-1-8 9:24:15","OTTER",NA,NA,NA,NA,NA,NA,NA,NA,"[{""cat"":30,""src"":1,""x"":1,""y"":200},{""cat"":28,""src"":0,""x"":76,""y"":303},{""cat"":0,""src"":13,""x"":9,""y"":17},{""cat"":0,""src"":12,""x"":34,""y"":89},{""cat"":30,""src"":16,""x"":65,""y"":432},{""cat"":28,""src"":18,""x"":23,""y"":146},{""cat"":0,""src"":15,""x"":75,""y"":493},{""cat"":28,""src"":17,""x"":73,""y"":359},{""cat"":30,""src"":7,""x"":38,""y"":249}]","[{""cat"":""30"",""src"":""7"",""x"":0,""y"":0},{""cat"":""28"",""src"":""17"",""x"":0,""y"":0},{""cat"":""0"",""src"":""15"",""x"":0,""y"":0},{""cat"":""30"",""src"":""16"",""x"":0,""y"":0},{""cat"":""0"",""src"":""13"",""x"":0,""y"":0},{""cat"":""30"",""src"":""1"",""x"":0,""y"":0},{""cat"":""0"",""src"":""12"",""x"":0,""y"":0},{""cat"":""28"",""src"":""18"",""x"":0,""y"":0},{""cat"":""28"",""src"":""0"",""x"":0,""y"":0}]","[{""cat"":30,""src"":7,""loc"":5},{""cat"":28,""src"":17,""loc"":4},{""cat"":0,""src"":15,""loc"":3},{""cat"":30,""src"":16,""loc"":7},{""cat"":0,""src"":13,""loc"":0},{""cat"":30,""src"":1,""loc"":2},{""cat"":0,""src"":12,""loc"":1},{""cat"":28,""src"":18,""loc"":6},{""cat"":28,""src"":0,""loc"":8}]","5","0,0,30,0,28,30,28,30,28,13,12,1,15,17,7,18,16,0,0,1,2,3,4,5,6,7,8,4,6,5,2,1,0,7,3,8",NA
"1855","sort_feedback","13","html-keyboard-response","163","1341881","0.0-3.0-100.0","3","2020-1-8 9:24:15","OTTER",NA,NA,NA,NA,NA,NA,NA,NA,NA,NA,NA,NA,NA,NA
NA,"breakStart",NA,"html-keyboard-response","164","1371882","0.0-4.0-0.0","3","2020-1-8 9:24:15","OTTER",NA,NA,NA,NA,NA,NA,NA,NA,NA,NA,NA,NA,NA,NA
"3734","breakEnd",NA,"html-button-response","165","1375618","0.0-4.0-1.0","3","2020-1-8 9:24:15","OTTER","0",NA,NA,NA,NA,NA,NA,NA,NA,NA,NA,NA,NA,NA
"19915","setup1",NA,"animation","166","1395533","0.0-5.0-0.0","3","2020-1-8 9:24:15","OTTER",NA,NA,"[{""cat"":7,""src"":7,""loc"":8},{""cat"":7,""src"":2,""loc"":7},{""cat"":7,""src"":0,""loc"":6},{""cat"":14,""src"":12,""loc"":0},{""cat"":14,""src"":1,""loc"":2},{""cat"":14,""src"":15,""loc"":1},{""cat"":5,""src"":5,""loc"":5},{""cat"":5,""src"":13,""loc"":4},{""cat"":5,""src"":12,""loc"":3}]","1","1102,1102,1102,1101,1101,1102,1101,1101,1102,10001",NA,NA,NA,NA,NA,NA,NA,NA,NA
"1803","flanker_instructions","39","html-keyboard-response","167","1397337","0.0-5.0-1.0","3","2020-1-8 9:24:15","OTTER",NA,NA,NA,NA,NA,NA,NA,NA,NA,NA,NA,NA,NA,NA
"646","flanker_test","39","image-keyboard-response","168","1398985","0.0-5.0-2.0-0.0","3","2020-1-8 9:24:15","OTTER",NA,NA,NA,NA,NA,"incongruent","right","TRUE",NA,NA,NA,NA,NA,NA
"525","flanker_test","37","image-keyboard-response","169","1400641","0.0-5.0-2.0-0.1","3","2020-1-8 9:24:15","OTTER",NA,NA,NA,NA,NA,"congruent","left","TRUE",NA,NA,NA,NA,NA,NA
"535","flanker_test","39","image-keyboard-response","170","1402073","0.0-5.0-2.0-0.2","3","2020-1-8 9:24:15","OTTER",NA,NA,NA,NA,NA,"congruent","right","TRUE",NA,NA,NA,NA,NA,NA
"630","flanker_test","37","image-keyboard-response","171","1403409","0.0-5.0-2.0-0.3","3","2020-1-8 9:24:15","OTTER",NA,NA,NA,NA,NA,"incongruent","left","TRUE",NA,NA,NA,NA,NA,NA
"24236","sort_trial",NA,"free-sort","172","1428416","0.0-5.0-3.0","3","2020-1-8 9:24:15","OTTER",NA,NA,NA,NA,NA,NA,NA,NA,"[{""cat"":7,""src"":7,""x"":53,""y"":18},{""cat"":7,""src"":2,""x"":76,""y"":85},{""cat"":7,""src"":0,""x"":12,""y"":304},{""cat"":14,""src"":12,""x"":49,""y"":491},{""cat"":14,""src"":1,""x"":70,""y"":122},{""cat"":14,""src"":15,""x"":3,""y"":186},{""cat"":5,""src"":5,""x"":3,""y"":421},{""cat"":5,""src"":13,""x"":71,""y"":367},{""cat"":5,""src"":12,""x"":62,""y"":241}]","[{""cat"":""5"",""src"":""5"",""x"":0,""y"":0},{""cat"":""5"",""src"":""13"",""x"":0,""y"":0},{""cat"":""5"",""src"":""12"",""x"":0,""y"":0},{""cat"":""14"",""src"":""12"",""x"":0,""y"":0},{""cat"":""14"",""src"":""15"",""x"":0,""y"":0},{""cat"":""14"",""src"":""1"",""x"":0,""y"":0},{""cat"":""7"",""src"":""7"",""x"":0,""y"":0},{""cat"":""7"",""src"":""0"",""x"":0,""y"":0},{""cat"":""7"",""src"":""2"",""x"":0,""y"":0}]","[{""cat"":5,""src"":5,""loc"":5},{""cat"":5,""src"":13,""loc"":4},{""cat"":5,""src"":12,""loc"":3},{""cat"":14,""src"":12,""loc"":0},{""cat"":14,""src"":15,""loc"":1},{""cat"":14,""src"":1,""loc"":2},{""cat"":7,""src"":7,""loc"":7},{""cat"":7,""src"":0,""loc"":8},{""cat"":7,""src"":2,""loc"":6}]","6","14,14,14,5,5,5,7,7,7,12,15,1,12,13,5,2,7,0,0,1,2,3,4,5,6,7,8,3,4,5,2,1,0,8,6,7",NA
"2825","sort_feedback","13","html-keyboard-response","173","1431241","0.0-5.0-4.0","3","2020-1-8 9:24:15","OTTER",NA,NA,NA,NA,NA,NA,NA,NA,NA,NA,NA,NA,NA,NA
"19914","setup2",NA,"animation","174","1451156","0.0-5.0-5.0","3","2020-1-8 9:24:15","OTTER",NA,NA,"[{""cat"":25,""src"":14,""loc"":5},{""cat"":3,""src"":7,""loc"":4},{""cat"":11,""src"":15,""loc"":3},{""cat"":3,""src"":0,""loc"":1},{""cat"":25,""src"":12,""loc"":0},{""cat"":11,""src"":13,""loc"":2},{""cat"":3,""src"":18,""loc"":6},{""cat"":11,""src"":1,""loc"":7},{""cat"":25,""src"":17,""loc"":8}]","2","1102,1102,1102,1101,1100,1102,1101,1101,1102,10001",NA,NA,NA,NA,NA,NA,NA,NA,NA
"1492","flanker_instructions","39","html-keyboard-response","175","1452649","0.0-5.0-6.0","3","2020-1-8 9:24:15","OTTER",NA,NA,NA,NA,NA,NA,NA,NA,NA,NA,NA,NA,NA,NA
"806","flanker_test","37","image-keyboard-response","176","1454457","0.0-5.0-7.0-0.0","3","2020-1-8 9:24:15","OTTER",NA,NA,NA,NA,NA,"incongruent","left","TRUE",NA,NA,NA,NA,NA,NA
"593","flanker_test","39","image-keyboard-response","177","1456040","0.0-5.0-7.0-0.1","3","2020-1-8 9:24:15","OTTER",NA,NA,NA,NA,NA,"incongruent","right","TRUE",NA,NA,NA,NA,NA,NA
"604","flanker_test","37","image-keyboard-response","178","1457184","0.0-5.0-7.0-0.2","3","2020-1-8 9:24:15","OTTER",NA,NA,NA,NA,NA,"congruent","left","TRUE",NA,NA,NA,NA,NA,NA
"593","flanker_test","39","image-keyboard-response","179","1458337","0.0-5.0-7.0-0.3","3","2020-1-8 9:24:15","OTTER",NA,NA,NA,NA,NA,"congruent","right","TRUE",NA,NA,NA,NA,NA,NA
"30172","sort_trial",NA,"free-sort","180","1488975","0.0-5.0-8.0","3","2020-1-8 9:24:15","OTTER",NA,NA,NA,NA,NA,NA,NA,NA,"[{""cat"":25,""src"":14,""x"":31,""y"":130},{""cat"":3,""src"":7,""x"":33,""y"":315},{""cat"":11,""src"":15,""x"":70,""y"":85},{""cat"":3,""src"":0,""x"":43,""y"":506},{""cat"":25,""src"":12,""x"":40,""y"":239},{""cat"":11,""src"":13,""x"":52,""y"":373},{""cat"":3,""src"":18,""x"":48,""y"":181},{""cat"":11,""src"":1,""x"":69,""y"":444},{""cat"":25,""src"":17,""x"":41,""y"":15}]","[{""cat"":""11"",""src"":""1"",""x"":0,""y"":0},{""cat"":""3"",""src"":""18"",""x"":48,""y"":181},{""cat"":""3"",""src"":""18"",""x"":0,""y"":0},{""cat"":""25"",""src"":""17"",""x"":0,""y"":0},{""cat"":""11"",""src"":""13"",""x"":0,""y"":0},{""cat"":""3"",""src"":""0"",""x"":0,""y"":0},{""cat"":""25"",""src"":""12"",""x"":0,""y"":0},{""cat"":""3"",""src"":""7"",""x"":0,""y"":0},{""cat"":""25"",""src"":""14"",""x"":0,""y"":0},{""cat"":""11"",""src"":""15"",""x"":0,""y"":0}]","[{""cat"":11,""src"":1,""loc"":7},{""cat"":3,""src"":18,""loc"":6},{""cat"":25,""src"":17,""loc"":8},{""cat"":11,""src"":13,""loc"":2},{""cat"":3,""src"":0,""loc"":1},{""cat"":25,""src"":12,""loc"":0},{""cat"":3,""src"":7,""loc"":4},{""cat"":25,""src"":14,""loc"":5},{""cat"":11,""src"":15,""loc"":3}]","9","25,3,11,11,3,25,3,11,25,12,0,13,15,7,14,18,1,17,0,1,2,3,4,5,6,7,8,5,4,3,8,6,7,1,0,2",NA
"4394","sort_feedback","13","html-keyboard-response","181","1493369","0.0-5.0-9.0","3","2020-1-8 9:24:15","OTTER",NA,NA,NA,NA,NA,NA,NA,NA,NA,NA,NA,NA,NA,NA
"19916","setup5",NA,"animation","182","1513285","0.0-5.0-10.0","3","2020-1-8 9:24:15","OTTER",NA,NA,"[{""cat"":5,""src"":13,""loc"":0},{""cat"":10,""src"":13,""loc"":5},{""cat"":8,""src"":18,""loc"":8},{""cat"":10,""src"":1,""loc"":2},{""cat"":8,""src"":2,""loc"":3},{""cat"":5,""src"":9,""loc"":6},{""cat"":8,""src"":12,""loc"":1},{""cat"":10,""src"":0,""loc"":7},{""cat"":5,""src"":4,""loc"":4}]","5","1102,1102,1102,1102,1101,1101,1101,1101,1102,10002",NA,NA,NA,NA,NA,NA,NA,NA,NA
"1507","flanker_instructions","39","html-keyboard-response","183","1514793","0.0-5.0-11.0","3","2020-1-8 9:24:15","OTTER",NA,NA,NA,NA,NA,NA,NA,NA,NA,NA,NA,NA,NA,NA
"638","flanker_test","39","image-keyboard-response","184","1516433","0.0-5.0-12.0-0.0","3","2020-1-8 9:24:15","OTTER",NA,NA,NA,NA,NA,"incongruent","right","TRUE",NA,NA,NA,NA,NA,NA
"550","flanker_test","37","image-keyboard-response","185","1517521","0.0-5.0-12.0-0.1","3","2020-1-8 9:24:15","OTTER",NA,NA,NA,NA,NA,"congruent","left","TRUE",NA,NA,NA,NA,NA,NA
"478","flanker_test","37","image-keyboard-response","186","1518433","0.0-5.0-12.0-0.2","3","2020-1-8 9:24:15","OTTER",NA,NA,NA,NA,NA,"incongruent","left","TRUE",NA,NA,NA,NA,NA,NA
"646","flanker_test","39","image-keyboard-response","187","1519872","0.0-5.0-12.0-0.3","3","2020-1-8 9:24:15","OTTER",NA,NA,NA,NA,NA,"congruent","right","TRUE",NA,NA,NA,NA,NA,NA
"43183","sort_trial",NA,"free-sort","188","1563913","0.0-5.0-13.0","3","2020-1-8 9:24:15","OTTER",NA,NA,NA,NA,NA,NA,NA,NA,"[{""cat"":5,""src"":13,""x"":61,""y"":369},{""cat"":10,""src"":13,""x"":82,""y"":309},{""cat"":8,""src"":18,""x"":11,""y"":427},{""cat"":10,""src"":1,""x"":42,""y"":132},{""cat"":8,""src"":2,""x"":46,""y"":489},{""cat"":5,""src"":9,""x"":3,""y"":192},{""cat"":8,""src"":12,""x"":24,""y"":87},{""cat"":10,""src"":0,""x"":6,""y"":268},{""cat"":5,""src"":4,""x"":39,""y"":26}]","[{""cat"":""5"",""src"":""9"",""x"":0,""y"":0},{""cat"":""10"",""src"":""0"",""x"":414,""y"":335},{""cat"":""10"",""src"":""0"",""x"":0,""y"":0},{""cat"":""8"",""src"":""18"",""x"":0,""y"":0},{""cat"":""10"",""src"":""13"",""x"":0,""y"":0},{""cat"":""5"",""src"":""4"",""x"":0,""y"":0},{""cat"":""8"",""src"":""12"",""x"":0,""y"":0},{""cat"":""10"",""src"":""1"",""x"":0,""y"":0},{""cat"":""8"",""src"":""2"",""x"":0,""y"":0},{""cat"":""5"",""src"":""13"",""x"":0,""y"":0}]","[{""cat"":5,""src"":9,""loc"":7},{""cat"":10,""src"":0,""loc"":6},{""cat"":8,""src"":18,""loc"":8},{""cat"":10,""src"":13,""loc"":5},{""cat"":5,""src"":4,""loc"":4},{""cat"":8,""src"":12,""loc"":1},{""cat"":10,""src"":1,""loc"":2},{""cat"":8,""src"":2,""loc"":0},{""cat"":5,""src"":13,""loc"":3}]","5","8,8,10,5,5,10,10,5,8,2,12,1,13,4,13,0,9,18,0,1,2,3,4,5,6,7,8,7,5,6,8,4,3,1,0,2",NA
"2015","sort_feedback","16","html-keyboard-response","189","1565929","0.0-5.0-14.0","3","2020-1-8 9:24:15","OTTER",NA,NA,NA,NA,NA,NA,NA,NA,NA,NA,NA,NA,NA,NA
"19915","setup3",NA,"animation","190","1585845","0.0-5.0-15.0","3","2020-1-8 9:24:15","OTTER",NA,NA,"[{""cat"":6,""src"":2,""loc"":5},{""cat"":11,""src"":6,""loc"":2},{""cat"":16,""src"":18,""loc"":8},{""cat"":11,""src"":8,""loc"":1},{""cat"":16,""src"":2,""loc"":6},{""cat"":6,""src"":0,""loc"":4},{""cat"":16,""src"":5,""loc"":7},{""cat"":6,""src"":10,""loc"":3},{""cat"":11,""src"":9,""loc"":0}]","3","1102,1102,1101,1101,1103,1101,1101,1101,1101,10002",NA,NA,NA,NA,NA,NA,NA,NA,NA
"1540","flanker_instructions","39","html-keyboard-response","191","1587386","0.0-5.0-16.0","3","2020-1-8 9:24:15","OTTER",NA,NA,NA,NA,NA,NA,NA,NA,NA,NA,NA,NA,NA,NA
"782","flanker_test","37","image-keyboard-response","192","1589170","0.0-5.0-17.0-0.0","3","2020-1-8 9:24:15","OTTER",NA,NA,NA,NA,NA,"incongruent","left","TRUE",NA,NA,NA,NA,NA,NA
"536","flanker_test","39","image-keyboard-response","193","1590730","0.0-5.0-17.0-0.1","3","2020-1-8 9:24:15","OTTER",NA,NA,NA,NA,NA,"congruent","right","TRUE",NA,NA,NA,NA,NA,NA
"623","flanker_test","39","image-keyboard-response","194","1592122","0.0-5.0-17.0-0.2","3","2020-1-8 9:24:15","OTTER",NA,NA,NA,NA,NA,"incongruent","right","TRUE",NA,NA,NA,NA,NA,NA
"570","flanker_test","37","image-keyboard-response","195","1593330","0.0-5.0-17.0-0.3","3","2020-1-8 9:24:15","OTTER",NA,NA,NA,NA,NA,"congruent","left","TRUE",NA,NA,NA,NA,NA,NA
"25850","sort_trial",NA,"free-sort","196","1620130","0.0-5.0-18.0","3","2020-1-8 9:24:15","OTTER",NA,NA,NA,NA,NA,NA,NA,NA,"[{""cat"":6,""src"":2,""x"":37,""y"":181},{""cat"":11,""src"":6,""x"":13,""y"":252},{""cat"":16,""src"":18,""x"":65,""y"":443},{""cat"":11,""src"":8,""x"":49,""y"":5},{""cat"":16,""src"":2,""x"":71,""y"":304},{""cat"":6,""src"":0,""x"":4,""y"":139},{""cat"":16,""src"":5,""x"":49,""y"":69},{""cat"":6,""src"":10,""x"":71,""y"":501},{""cat"":11,""src"":9,""x"":62,""y"":365}]","[{""cat"":""6"",""src"":""2"",""x"":0,""y"":0},{""cat"":""6"",""src"":""0"",""x"":0,""y"":0},{""cat"":""6"",""src"":""10"",""x"":0,""y"":0},{""cat"":""11"",""src"":""8"",""x"":0,""y"":0},{""cat"":""11"",""src"":""6"",""x"":0,""y"":0},{""cat"":""11"",""src"":""9"",""x"":0,""y"":0},{""cat"":""16"",""src"":""18"",""x"":0,""y"":0},{""cat"":""16"",""src"":""2"",""x"":0,""y"":0},{""cat"":""16"",""src"":""5"",""x"":0,""y"":0}]","[{""cat"":6,""src"":2,""loc"":5},{""cat"":6,""src"":0,""loc"":4},{""cat"":6,""src"":10,""loc"":3},{""cat"":11,""src"":8,""loc"":1},{""cat"":11,""src"":6,""loc"":2},{""cat"":11,""src"":9,""loc"":0},{""cat"":16,""src"":18,""loc"":7},{""cat"":16,""src"":2,""loc"":6},{""cat"":16,""src"":5,""loc"":8}]","7","11,11,11,6,6,6,16,16,16,9,8,6,10,0,2,2,18,5,0,1,2,3,4,5,6,7,8,5,3,4,2,1,0,7,6,8",NA
"1759","sort_feedback","13","html-keyboard-response","197","1621889","0.0-5.0-19.0","3","2020-1-8 9:24:15","OTTER",NA,NA,NA,NA,NA,NA,NA,NA,NA,NA,NA,NA,NA,NA
"19912","setup4",NA,"animation","198","1641802","0.0-5.0-20.0","3","2020-1-8 9:24:15","OTTER",NA,NA,"[{""cat"":28,""src"":14,""loc"":8},{""cat"":28,""src"":7,""loc"":3},{""cat"":28,""src"":9,""loc"":0},{""cat"":24,""src"":15,""loc"":6},{""cat"":24,""src"":19,""loc"":5},{""cat"":24,""src"":5,""loc"":2},{""cat"":1,""src"":14,""loc"":4},{""cat"":1,""src"":2,""loc"":1},{""cat"":1,""src"":0,""loc"":7}]","4","1102,1101,1101,1101,1101,1102,1100,1102,1100,10002",NA,NA,NA,NA,NA,NA,NA,NA,NA
"1967","flanker_instructions","39","html-keyboard-response","199","1643769","0.0-5.0-21.0","3","2020-1-8 9:24:15","OTTER",NA,NA,NA,NA,NA,NA,NA,NA,NA,NA,NA,NA,NA,NA
"663","flanker_test","39","image-keyboard-response","200","1645434","0.0-5.0-22.0-0.0","3","2020-1-8 9:24:15","OTTER",NA,NA,NA,NA,NA,"incongruent","right","TRUE",NA,NA,NA,NA,NA,NA
"588","flanker_test","37","image-keyboard-response","201","1647025","0.0-5.0-22.0-0.1","3","2020-1-8 9:24:15","OTTER",NA,NA,NA,NA,NA,"congruent","left","TRUE",NA,NA,NA,NA,NA,NA
"570","flanker_test","37","image-keyboard-response","202","1648041","0.0-5.0-22.0-0.2","3","2020-1-8 9:24:15","OTTER",NA,NA,NA,NA,NA,"incongruent","left","TRUE",NA,NA,NA,NA,NA,NA
"532","flanker_test","39","image-keyboard-response","203","1649641","0.0-5.0-22.0-0.3","3","2020-1-8 9:24:15","OTTER",NA,NA,NA,NA,NA,"congruent","right","TRUE",NA,NA,NA,NA,NA,NA
"30819","sort_trial",NA,"free-sort","204","1680853","0.0-5.0-23.0","3","2020-1-8 9:24:15","OTTER",NA,NA,NA,NA,NA,NA,NA,NA,"[{""cat"":28,""src"":14,""x"":28,""y"":310},{""cat"":28,""src"":7,""x"":71,""y"":22},{""cat"":28,""src"":9,""x"":58,""y"":132},{""cat"":24,""src"":15,""x"":65,""y"":248},{""cat"":24,""src"":19,""x"":37,""y"":208},{""cat"":24,""src"":5,""x"":66,""y"":429},{""cat"":1,""src"":14,""x"":75,""y"":504},{""cat"":1,""src"":2,""x"":18,""y"":60},{""cat"":1,""src"":0,""x"":59,""y"":378}]","[{""cat"":""24"",""src"":""19"",""x"":0,""y"":0},{""cat"":""1"",""src"":""14"",""x"":0,""y"":0},{""cat"":""28"",""src"":""7"",""x"":0,""y"":0},{""cat"":""24"",""src"":""15"",""x"":0,""y"":0},{""cat"":""24"",""src"":""5"",""x"":0,""y"":0},{""cat"":""1"",""src"":""0"",""x"":0,""y"":0},{""cat"":""28"",""src"":""14"",""x"":0,""y"":0},{""cat"":""28"",""src"":""9"",""x"":0,""y"":0},{""cat"":""1"",""src"":""2"",""x"":0,""y"":0}]","[{""cat"":24,""src"":19,""loc"":5},{""cat"":1,""src"":14,""loc"":4},{""cat"":28,""src"":7,""loc"":3},{""cat"":24,""src"":15,""loc"":6},{""cat"":24,""src"":5,""loc"":2},{""cat"":1,""src"":0,""loc"":7},{""cat"":28,""src"":14,""loc"":8},{""cat"":28,""src"":9,""loc"":0},{""cat"":1,""src"":2,""loc"":1}]","9","28,1,24,28,1,24,24,1,28,9,2,5,7,14,19,15,0,14,0,1,2,3,4,5,6,7,8,7,8,4,2,1,0,3,5,6",NA
"5643","sort_feedback","13","html-keyboard-response","205","1686498","0.0-5.0-24.0","3","2020-1-8 9:24:15","OTTER",NA,NA,NA,NA,NA,NA,NA,NA,NA,NA,NA,NA,NA,NA
"19910","setup5",NA,"animation","206","1706408","0.0-5.0-25.0","3","2020-1-8 9:24:15","OTTER",NA,NA,"[{""cat"":20,""src"":14,""loc"":8},{""cat"":2,""src"":13,""loc"":1},{""cat"":19,""src"":5,""loc"":5},{""cat"":2,""src"":7,""loc"":6},{""cat"":20,""src"":19,""loc"":3},{""cat"":19,""src"":18,""loc"":2},{""cat"":19,""src"":17,""loc"":7},{""cat"":2,""src"":1,""loc"":4},{""cat"":20,""src"":18,""loc"":0}]","5","1101,1101,1102,1101,1101,1101,1101,1101,1100,10001",NA,NA,NA,NA,NA,NA,NA,NA,NA
"1584","flanker_instructions","39","html-keyboard-response","207","1707994","0.0-5.0-26.0","3","2020-1-8 9:24:15","OTTER",NA,NA,NA,NA,NA,NA,NA,NA,NA,NA,NA,NA,NA,NA
"845","flanker_test","37","image-keyboard-response","208","1709841","0.0-5.0-27.0-0.0","3","2020-1-8 9:24:15","OTTER",NA,NA,NA,NA,NA,"incongruent","left","TRUE",NA,NA,NA,NA,NA,NA
"521","flanker_test","39","image-keyboard-response","209","1710913","0.0-5.0-27.0-0.1","3","2020-1-8 9:24:15","OTTER",NA,NA,NA,NA,NA,"congruent","right","TRUE",NA,NA,NA,NA,NA,NA
"464","flanker_test","39","image-keyboard-response","210","1712153","0.0-5.0-27.0-0.2","3","2020-1-8 9:24:15","OTTER",NA,NA,NA,NA,NA,"incongruent","right","TRUE",NA,NA,NA,NA,NA,NA
"524","flanker_test","37","image-keyboard-response","211","1713313","0.0-5.0-27.0-0.3","3","2020-1-8 9:24:15","OTTER",NA,NA,NA,NA,NA,"congruent","left","TRUE",NA,NA,NA,NA,NA,NA
"31538","sort_trial",NA,"free-sort","212","1745549","0.0-5.0-28.0","3","2020-1-8 9:24:15","OTTER",NA,NA,NA,NA,NA,NA,NA,NA,"[{""cat"":20,""src"":14,""x"":30,""y"":304},{""cat"":2,""src"":13,""x"":26,""y"":380},{""cat"":19,""src"":5,""x"":49,""y"":424},{""cat"":2,""src"":7,""x"":54,""y"":263},{""cat"":20,""src"":19,""x"":45,""y"":499},{""cat"":19,""src"":18,""x"":54,""y"":11},{""cat"":19,""src"":17,""x"":16,""y"":84},{""cat"":2,""src"":1,""x"":23,""y"":188},{""cat"":20,""src"":18,""x"":31,""y"":149}]","[{""cat"":""2"",""src"":""1"",""x"":0,""y"":0},{""cat"":""19"",""src"":""5"",""x"":0,""y"":0},{""cat"":""20"",""src"":""19"",""x"":0,""y"":0},{""cat"":""2"",""src"":""13"",""x"":0,""y"":0},{""cat"":""20"",""src"":""18"",""x"":0,""y"":0},{""cat"":""20"",""src"":""14"",""x"":0,""y"":0},{""cat"":""2"",""src"":""7"",""x"":0,""y"":0},{""cat"":""19"",""src"":""17"",""x"":0,""y"":0},{""cat"":""19"",""src"":""18"",""x"":0,""y"":0}]","[{""cat"":2,""src"":1,""loc"":4},{""cat"":19,""src"":5,""loc"":5},{""cat"":20,""src"":19,""loc"":3},{""cat"":2,""src"":13,""loc"":1},{""cat"":20,""src"":18,""loc"":7},{""cat"":20,""src"":14,""loc"":8},{""cat"":2,""src"":7,""loc"":0},{""cat"":19,""src"":17,""loc"":2},{""cat"":19,""src"":18,""loc"":6}]","5","2,2,19,20,2,19,19,20,20,7,13,17,19,1,5,18,18,14,0,1,2,3,4,5,6,7,8,6,3,7,2,0,1,8,4,5",NA
"2667","sort_feedback","13","html-keyboard-response","213","1748217","0.0-5.0-29.0","3","2020-1-8 9:24:15","OTTER",NA,NA,NA,NA,NA,NA,NA,NA,NA,NA,NA,NA,NA,NA
"19910","setup1",NA,"animation","214","1768127","0.0-5.0-30.0","3","2020-1-8 9:24:15","OTTER",NA,NA,"[{""cat"":16,""src"":3,""loc"":1},{""cat"":16,""src"":11,""loc"":2},{""cat"":16,""src"":10,""loc"":0},{""cat"":12,""src"":18,""loc"":3},{""cat"":12,""src"":3,""loc"":4},{""cat"":12,""src"":7,""loc"":5},{""cat"":22,""src"":18,""loc"":7},{""cat"":22,""src"":1,""loc"":6},{""cat"":22,""src"":12,""loc"":8}]","1","1102,1101,1100,1102,1101,1100,1101,1101,1101,10001",NA,NA,NA,NA,NA,NA,NA,NA,NA
"1267","flanker_instructions","39","html-keyboard-response","215","1769394","0.0-5.0-31.0","3","2020-1-8 9:24:15","OTTER",NA,NA,NA,NA,NA,NA,NA,NA,NA,NA,NA,NA,NA,NA
"806","flanker_test","37","image-keyboard-response","216","1771202","0.0-5.0-32.0-0.0","3","2020-1-8 9:24:15","OTTER",NA,NA,NA,NA,NA,"incongruent","left","TRUE",NA,NA,NA,NA,NA,NA
"582","flanker_test","39","image-keyboard-response","217","1772218","0.0-5.0-32.0-0.1","3","2020-1-8 9:24:15","OTTER",NA,NA,NA,NA,NA,"congruent","right","TRUE",NA,NA,NA,NA,NA,NA
"540","flanker_test","37","image-keyboard-response","218","1773538","0.0-5.0-32.0-0.2","3","2020-1-8 9:24:15","OTTER",NA,NA,NA,NA,NA,"congruent","left","TRUE",NA,NA,NA,NA,NA,NA
"663","flanker_test","39","image-keyboard-response","219","1775199","0.0-5.0-32.0-0.3","3","2020-1-8 9:24:15","OTTER",NA,NA,NA,NA,NA,"incongruent","right","TRUE",NA,NA,NA,NA,NA,NA
"26315","sort_trial",NA,"free-sort","220","1802584","0.0-5.0-33.0","3","2020-1-8 9:24:15","OTTER",NA,NA,NA,NA,NA,NA,NA,NA,"[{""cat"":16,""src"":3,""x"":7,""y"":266},{""cat"":16,""src"":11,""x"":24,""y"":375},{""cat"":16,""src"":10,""x"":42,""y"":201},{""cat"":12,""src"":18,""x"":40,""y"":28},{""cat"":12,""src"":3,""x"":61,""y"":430},{""cat"":12,""src"":7,""x"":70,""y"":77},{""cat"":22,""src"":18,""x"":55,""y"":480},{""cat"":22,""src"":1,""x"":78,""y"":145},{""cat"":22,""src"":12,""x"":31,""y"":321}]","[{""cat"":""12"",""src"":""7"",""x"":0,""y"":0},{""cat"":""12"",""src"":""3"",""x"":0,""y"":0},{""cat"":""12"",""src"":""18"",""x"":0,""y"":0},{""cat"":""16"",""src"":""10"",""x"":268,""y"":156},{""cat"":""16"",""src"":""10"",""x"":0,""y"":0},{""cat"":""16"",""src"":""3"",""x"":0,""y"":0},{""cat"":""16"",""src"":""11"",""x"":0,""y"":0},{""cat"":""22"",""src"":""1"",""x"":0,""y"":0},{""cat"":""22"",""src"":""12"",""x"":0,""y"":0},{""cat"":""22"",""src"":""18"",""x"":0,""y"":0}]","[{""cat"":12,""src"":7,""loc"":5},{""cat"":12,""src"":3,""loc"":4},{""cat"":12,""src"":18,""loc"":3},{""cat"":16,""src"":10,""loc"":0},{""cat"":16,""src"":3,""loc"":2},{""cat"":16,""src"":11,""loc"":1},{""cat"":22,""src"":1,""loc"":6},{""cat"":22,""src"":12,""loc"":8},{""cat"":22,""src"":18,""loc"":7}]","7","16,16,16,12,12,12,22,22,22,10,11,3,18,3,7,1,18,12,0,1,2,3,4,5,6,7,8,3,5,4,2,1,0,6,8,7",NA
"2266","sort_feedback","16","html-keyboard-response","221","1804850","0.0-5.0-34.0","3","2020-1-8 9:24:15","OTTER",NA,NA,NA,NA,NA,NA,NA,NA,NA,NA,NA,NA,NA,NA
"19915","setup3",NA,"animation","222","1824766","0.0-5.0-35.0","3","2020-1-8 9:24:15","OTTER",NA,NA,"[{""cat"":11,""src"":0,""loc"":5},{""cat"":0,""src"":11,""loc"":0},{""cat"":3,""src"":8,""loc"":8},{""cat"":11,""src"":15,""loc"":4},{""cat"":0,""src"":3,""loc"":2},{""cat"":3,""src"":6,""loc"":7},{""cat"":11,""src"":18,""loc"":3},{""cat"":0,""src"":4,""loc"":1},{""cat"":3,""src"":9,""loc"":6}]","3","1103,1101,1101,1102,1103,1102,1100,1101,1101,10001",NA,NA,NA,NA,NA,NA,NA,NA,NA
"3387","flanker_instructions","39","html-keyboard-response","223","1828153","0.0-5.0-36.0","3","2020-1-8 9:24:15","OTTER",NA,NA,NA,NA,NA,NA,NA,NA,NA,NA,NA,NA,NA,NA
NA,"flanker_test",NA,"image-keyboard-response","224","1830056","0.0-5.0-37.0-0.0","3","2020-1-8 9:24:15","OTTER",NA,NA,NA,NA,NA,"congruent","left","FALSE",NA,NA,NA,NA,NA,NA
"642","flanker_test","39","image-keyboard-response","225","1831817","0.0-5.0-37.0-0.1","3","2020-1-8 9:24:15","OTTER",NA,NA,NA,NA,NA,"incongruent","right","TRUE",NA,NA,NA,NA,NA,NA
"705","flanker_test","37","image-keyboard-response","226","1833265","0.0-5.0-37.0-0.2","3","2020-1-8 9:24:15","OTTER",NA,NA,NA,NA,NA,"incongruent","left","TRUE",NA,NA,NA,NA,NA,NA
"637","flanker_test","39","image-keyboard-response","227","1834522","0.0-5.0-37.0-0.3","3","2020-1-8 9:24:15","OTTER",NA,NA,NA,NA,NA,"congruent","right","TRUE",NA,NA,NA,NA,NA,NA
"33434","sort_trial",NA,"free-sort","228","1868711","0.0-5.0-38.0","3","2020-1-8 9:24:15","OTTER",NA,NA,NA,NA,NA,NA,NA,NA,"[{""cat"":11,""src"":0,""x"":40,""y"":491},{""cat"":0,""src"":11,""x"":5,""y"":312},{""cat"":3,""src"":8,""x"":12,""y"":258},{""cat"":11,""src"":15,""x"":56,""y"":361},{""cat"":0,""src"":3,""x"":16,""y"":431},{""cat"":3,""src"":6,""x"":32,""y"":184},{""cat"":11,""src"":18,""x"":56,""y"":84},{""cat"":0,""src"":4,""x"":31,""y"":14},{""cat"":3,""src"":9,""x"":55,""y"":120}]","[{""cat"":""11"",""src"":""0"",""x"":0,""y"":0},{""cat"":""11"",""src"":""15"",""x"":0,""y"":0},{""cat"":""11"",""src"":""18"",""x"":0,""y"":0},{""cat"":""0"",""src"":""11"",""x"":0,""y"":0},{""cat"":""0"",""src"":""4"",""x"":0,""y"":0},{""cat"":""0"",""src"":""3"",""x"":0,""y"":0},{""cat"":""3"",""src"":""8"",""x"":0,""y"":0},{""cat"":""3"",""src"":""6"",""x"":0,""y"":0},{""cat"":""3"",""src"":""9"",""x"":0,""y"":0}]","[{""cat"":11,""src"":0,""loc"":5},{""cat"":11,""src"":15,""loc"":4},{""cat"":11,""src"":18,""loc"":3},{""cat"":0,""src"":11,""loc"":0},{""cat"":0,""src"":4,""loc"":1},{""cat"":0,""src"":3,""loc"":2},{""cat"":3,""src"":8,""loc"":7},{""cat"":3,""src"":6,""loc"":6},{""cat"":3,""src"":9,""loc"":8}]","6","0,0,0,11,11,11,3,3,3,11,4,3,18,15,0,6,8,9,0,1,2,3,4,5,6,7,8,3,4,5,2,1,0,7,6,8",NA
"3170","sort_feedback","13","html-keyboard-response","229","1871882","0.0-5.0-39.0","3","2020-1-8 9:24:15","OTTER",NA,NA,NA,NA,NA,NA,NA,NA,NA,NA,NA,NA,NA,NA
"19915","setup2",NA,"animation","230","1891797","0.0-5.0-40.0","3","2020-1-8 9:24:15","OTTER",NA,NA,"[{""cat"":9,""src"":10,""loc"":6},{""cat"":21,""src"":11,""loc"":8},{""cat"":15,""src"":16,""loc"":7},{""cat"":9,""src"":16,""loc"":3},{""cat"":15,""src"":15,""loc"":4},{""cat"":21,""src"":10,""loc"":5},{""cat"":9,""src"":4,""loc"":0},{""cat"":15,""src"":5,""loc"":1},{""cat"":21,""src"":4,""loc"":2}]","2","1102,1102,1101,1101,1102,1102,1101,1102,1100,10002",NA,NA,NA,NA,NA,NA,NA,NA,NA
"867","flanker_instructions","39","html-keyboard-response","231","1892666","0.0-5.0-41.0","3","2020-1-8 9:24:15","OTTER",NA,NA,NA,NA,NA,NA,NA,NA,NA,NA,NA,NA,NA,NA
"712","flanker_test","39","image-keyboard-response","232","1894378","0.0-5.0-42.0-0.0","3","2020-1-8 9:24:15","OTTER",NA,NA,NA,NA,NA,"congruent","right","TRUE",NA,NA,NA,NA,NA,NA
"567","flanker_test","37","image-keyboard-response","233","1895465","0.0-5.0-42.0-0.1","3","2020-1-8 9:24:15","OTTER",NA,NA,NA,NA,NA,"congruent","left","TRUE",NA,NA,NA,NA,NA,NA
"495","flanker_test","37","image-keyboard-response","234","1896306","0.0-5.0-42.0-0.2","3","2020-1-8 9:24:15","OTTER",NA,NA,NA,NA,NA,"incongruent","left","TRUE",NA,NA,NA,NA,NA,NA
"649","flanker_test","39","image-keyboard-response","235","1897618","0.0-5.0-42.0-0.3","3","2020-1-8 9:24:15","OTTER",NA,NA,NA,NA,NA,"incongruent","right","TRUE",NA,NA,NA,NA,NA,NA
"29525","sort_trial",NA,"free-sort","236","1928096","0.0-5.0-43.0","3","2020-1-8 9:24:15","OTTER",NA,NA,NA,NA,NA,NA,NA,NA,"[{""cat"":9,""src"":10,""x"":82,""y"":360},{""cat"":21,""src"":11,""x"":76,""y"":247},{""cat"":15,""src"":16,""x"":82,""y"":316},{""cat"":9,""src"":16,""x"":36,""y"":75},{""cat"":15,""src"":15,""x"":24,""y"":184},{""cat"":21,""src"":10,""x"":62,""y"":147},{""cat"":9,""src"":4,""x"":39,""y"":492},{""cat"":15,""src"":5,""x"":38,""y"":448},{""cat"":21,""src"":4,""x"":55,""y"":21}]","[{""cat"":""21"",""src"":""10"",""x"":0,""y"":0},{""cat"":""15"",""src"":""15"",""x"":0,""y"":0},{""cat"":""9"",""src"":""16"",""x"":0,""y"":0},{""cat"":""9"",""src"":""4"",""x"":0,""y"":0},{""cat"":""15"",""src"":""5"",""x"":0,""y"":0},{""cat"":""21"",""src"":""4"",""x"":0,""y"":0},{""cat"":""21"",""src"":""11"",""x"":0,""y"":0},{""cat"":""9"",""src"":""10"",""x"":0,""y"":0},{""cat"":""15"",""src"":""16"",""x"":84,""y"":319},{""cat"":""15"",""src"":""16"",""x"":83,""y"":314},{""cat"":""15"",""src"":""16"",""x"":453,""y"":301},{""cat"":""15"",""src"":""16"",""x"":0,""y"":0}]","[{""cat"":21,""src"":10,""loc"":5},{""cat"":15,""src"":15,""loc"":4},{""cat"":9,""src"":16,""loc"":3},{""cat"":9,""src"":4,""loc"":0},{""cat"":15,""src"":5,""loc"":2},{""cat"":21,""src"":4,""loc"":1},{""cat"":21,""src"":11,""loc"":7},{""cat"":9,""src"":10,""loc"":8},{""cat"":15,""src"":16,""loc"":6}]","4","9,21,15,9,15,21,15,21,9,4,4,5,16,15,10,16,11,10,0,1,2,3,4,5,6,7,8,3,5,4,2,1,0,8,6,7",NA
"5297","sort_feedback","13","html-keyboard-response","237","1933394","0.0-5.0-44.0","3","2020-1-8 9:24:15","OTTER",NA,NA,NA,NA,NA,NA,NA,NA,NA,NA,NA,NA,NA,NA
"19916","setup4",NA,"animation","238","1953310","0.0-5.0-45.0","3","2020-1-8 9:24:15","OTTER",NA,NA,"[{""cat"":2,""src"":17,""loc"":0},{""cat"":2,""src"":0,""loc"":3},{""cat"":2,""src"":15,""loc"":6},{""cat"":32,""src"":17,""loc"":1},{""cat"":32,""src"":12,""loc"":4},{""cat"":32,""src"":3,""loc"":7},{""cat"":27,""src"":0,""loc"":2},{""cat"":27,""src"":2,""loc"":8},{""cat"":27,""src"":14,""loc"":5}]","4","1102,1103,1102,1101,1101,1101,1101,1101,1103,10001",NA,NA,NA,NA,NA,NA,NA,NA,NA
"1723","flanker_instructions","39","html-keyboard-response","239","1955034","0.0-5.0-46.0","3","2020-1-8 9:24:15","OTTER",NA,NA,NA,NA,NA,NA,NA,NA,NA,NA,NA,NA,NA,NA
"615","flanker_test","39","image-keyboard-response","240","1956650","0.0-5.0-47.0-0.0","3","2020-1-8 9:24:15","OTTER",NA,NA,NA,NA,NA,"congruent","right","TRUE",NA,NA,NA,NA,NA,NA
"718","flanker_test","39","image-keyboard-response","241","1958426","0.0-5.0-47.0-0.1","3","2020-1-8 9:24:15","OTTER",NA,NA,NA,NA,NA,"incongruent","right","TRUE",NA,NA,NA,NA,NA,NA
"756","flanker_test","37","image-keyboard-response","242","1959498","0.0-5.0-47.0-0.2","3","2020-1-8 9:24:15","OTTER",NA,NA,NA,NA,NA,"congruent","left","TRUE",NA,NA,NA,NA,NA,NA
"667","flanker_test","37","image-keyboard-response","243","1961218","0.0-5.0-47.0-0.3","3","2020-1-8 9:24:15","OTTER",NA,NA,NA,NA,NA,"incongruent","left","TRUE",NA,NA,NA,NA,NA,NA
"32089","sort_trial",NA,"free-sort","244","1994118","0.0-5.0-48.0","3","2020-1-8 9:24:15","OTTER",NA,NA,NA,NA,NA,NA,NA,NA,"[{""cat"":2,""src"":17,""x"":23,""y"":299},{""cat"":2,""src"":0,""x"":65,""y"":261},{""cat"":2,""src"":15,""x"":27,""y"":5},{""cat"":32,""src"":17,""x"":60,""y"":433},{""cat"":32,""src"":12,""x"":55,""y"":488},{""cat"":32,""src"":3,""x"":40,""y"":71},{""cat"":27,""src"":0,""x"":2,""y"":379},{""cat"":27,""src"":2,""x"":10,""y"":203},{""cat"":27,""src"":14,""x"":58,""y"":148}]","[{""cat"":""32"",""src"":""17"",""x"":0,""y"":0},{""cat"":""27"",""src"":""0"",""x"":0,""y"":0},{""cat"":""2"",""src"":""17"",""x"":0,""y"":0},{""cat"":""32"",""src"":""12"",""x"":0,""y"":0},{""cat"":""2"",""src"":""0"",""x"":0,""y"":0},{""cat"":""27"",""src"":""14"",""x"":0,""y"":0},{""cat"":""2"",""src"":""15"",""x"":0,""y"":0},{""cat"":""27"",""src"":""2"",""x"":0,""y"":0},{""cat"":""32"",""src"":""3"",""x"":579,""y"":333},{""cat"":""32"",""src"":""3"",""x"":0,""y"":0}]","[{""cat"":32,""src"":17,""loc"":1},{""cat"":27,""src"":0,""loc"":2},{""cat"":2,""src"":17,""loc"":0},{""cat"":32,""src"":12,""loc"":3},{""cat"":2,""src"":0,""loc"":4},{""cat"":27,""src"":14,""loc"":5},{""cat"":2,""src"":15,""loc"":6},{""cat"":27,""src"":2,""loc"":7},{""cat"":32,""src"":3,""loc"":8}]","5","2,32,27,32,2,27,2,27,32,17,17,0,12,0,14,15,2,3,0,1,2,3,4,5,6,7,8,2,0,1,3,4,5,6,7,8",NA
"2963","sort_feedback","13","html-keyboard-response","245","1997082","0.0-5.0-49.0","3","2020-1-8 9:24:15","OTTER",NA,NA,NA,NA,NA,NA,NA,NA,NA,NA,NA,NA,NA,NA
"11602","demographics",NA,"html-button-response","246","2008684","0.0-6.0-0.0","3","2020-1-8 9:24:15","OTTER","0",NA,NA,NA,NA,NA,NA,NA,NA,NA,NA,NA,NA,NA
"8894","workerID",NA,"survey-text","247","2017580","0.0-6.0-1.0","3","2020-1-8 9:24:15","OTTER",NA,NA,NA,NA,NA,NA,NA,NA,NA,NA,NA,NA,NA,"{""Q0"":""A2APG8MSLJ6G2K""}"
"18323","attn_check",NA,"survey-multi-choice","248","2035906","0.0-6.0-2.0","3","2020-1-8 9:24:15","OTTER",NA,NA,NA,NA,NA,NA,NA,NA,NA,NA,NA,NA,NA,"{""Q0"":""OTTER""}"
"4655","age",NA,"survey-text","249","2040563","0.0-6.0-3.0","3","2020-1-8 9:24:15","OTTER",NA,NA,NA,NA,NA,NA,NA,NA,NA,NA,NA,NA,NA,"{""Q0"":""69""}"
"2875","gender",NA,"survey-multi-choice","250","2043440","0.0-6.0-4.0","3","2020-1-8 9:24:15","OTTER",NA,NA,NA,NA,NA,NA,NA,NA,NA,NA,NA,NA,NA,"{""Q0"":""Female""}"
"4548","ethnic",NA,"survey-multi-choice","251","2047989","0.0-6.0-5.0","3","2020-1-8 9:24:15","OTTER",NA,NA,NA,NA,NA,NA,NA,NA,NA,NA,NA,NA,NA,"{""Q0"":""Not Hispanic or Latino""}"
"2809","race",NA,"survey-multi-select","252","2050802","0.0-6.0-6.0","3","2020-1-8 9:24:15","OTTER",NA,NA,NA,NA,NA,NA,NA,NA,NA,NA,NA,NA,NA,"{""Q0"":[""White""]}"
"3500","english",NA,"survey-multi-choice","253","2054304","0.0-6.0-7.0","3","2020-1-8 9:24:15","OTTER",NA,NA,NA,NA,NA,NA,NA,NA,NA,NA,NA,NA,NA,"{""Q0"":""Yes""}"
"3558","understand",NA,"survey-multi-choice","254","2057864","0.0-6.0-8.0","3","2020-1-8 9:24:15","OTTER",NA,NA,NA,NA,NA,NA,NA,NA,NA,NA,NA,NA,NA,"{""Q0"":""No""}"
"72643","strategies",NA,"survey-text","255","2130507","0.0-6.0-9.0","3","2020-1-8 9:24:15","OTTER",NA,NA,NA,NA,NA,NA,NA,NA,NA,NA,NA,NA,NA,"{""Q0"":""I'm tired this morning. This time I tried to remember one museum. Sometimes the other words came to me after that. Had a hard time today remembering, sorry. And I totally forgot that one word at the beginning. Bad day.""}"
"6072","comments",NA,"survey-text","256","2136580","0.0-6.0-10.0","3","2020-1-8 9:24:15","OTTER",NA,NA,NA,NA,NA,NA,NA,NA,NA,NA,NA,NA,NA,"{""Q0"":""none. thank you.""}"
"2477","study_end",NA,"html-button-response","257","2139057","0.0-7.0","3","2020-1-8 9:24:15","OTTER","0",NA,NA,NA,NA,NA,NA,NA,NA,NA,NA,NA,NA,NA
