"rt","stimulus","key_press","trial_type","trial_index","time_elapsed","internal_node_id","session","startTime","attn_word","button_pressed","view_history","animation_sequence","condition","time_sequence","stim_type","direction","correct","init_locations","moves","final_locations","sort_correct","finalLocations","responses"
"3244","welcome","32","html-keyboard-response","0","3257","0.0-0.0","3","2020-1-8 9:0:57","LION",NA,NA,NA,NA,NA,NA,NA,NA,NA,NA,NA,NA,NA,NA
"25192","consent",NA,"html-button-response","1","28455","0.0-1.0","3","2020-1-8 9:0:57","LION","0",NA,NA,NA,NA,NA,NA,NA,NA,NA,NA,NA,NA,NA
"74362","instructions",NA,"instructions","2","102821","0.0-2.0","3","2020-1-8 9:0:57","LION",NA,"[{""page_index"":0,""viewing_time"":5420},{""page_index"":1,""viewing_time"":4287},{""page_index"":2,""viewing_time"":6366},{""page_index"":3,""viewing_time"":25191},{""page_index"":4,""viewing_time"":6286},{""page_index"":5,""viewing_time"":26811}]",NA,NA,NA,NA,NA,NA,NA,NA,NA,NA,NA,NA
"7846","finalInstructions",NA,"html-button-response","3","110672","0.0-3.0-0.0","3","2020-1-8 9:0:57","LION","0",NA,NA,NA,NA,NA,NA,NA,NA,NA,NA,NA,NA,NA
"19939","setup3",NA,"animation","4","130617","0.0-3.0-1.0","3","2020-1-8 9:0:57","LION",NA,NA,"[{""cat"":7,""src"":3,""loc"":8},{""cat"":26,""src"":16,""loc"":3},{""cat"":30,""src"":6,""loc"":1},{""cat"":30,""src"":15,""loc"":2},{""cat"":7,""src"":8,""loc"":6},{""cat"":26,""src"":18,""loc"":4},{""cat"":7,""src"":16,""loc"":7},{""cat"":30,""src"":17,""loc"":0},{""cat"":26,""src"":6,""loc"":5}]","3","1108,1103,1103,1104,1102,1103,1106,1103,1104,10003",NA,NA,NA,NA,NA,NA,NA,NA,NA
"6769","flanker_instructions","37","html-keyboard-response","5","137393","0.0-3.0-2.0","3","2020-1-8 9:0:57","LION",NA,NA,NA,NA,NA,NA,NA,NA,NA,NA,NA,NA,NA,NA
NA,"flanker_test",NA,"image-keyboard-response","6","139301","0.0-3.0-3.0-0.0","3","2020-1-8 9:0:57","LION",NA,NA,NA,NA,NA,"incongruent","left","FALSE",NA,NA,NA,NA,NA,NA
"674","flanker_test","37","image-keyboard-response","7","140968","0.0-3.0-3.0-0.1","3","2020-1-8 9:0:57","LION",NA,NA,NA,NA,NA,"congruent","left","TRUE",NA,NA,NA,NA,NA,NA
"689","flanker_test","39","image-keyboard-response","8","142524","0.0-3.0-3.0-0.2","3","2020-1-8 9:0:57","LION",NA,NA,NA,NA,NA,"incongruent","right","TRUE",NA,NA,NA,NA,NA,NA
"611","flanker_test","39","image-keyboard-response","9","143446","0.0-3.0-3.0-0.3","3","2020-1-8 9:0:57","LION",NA,NA,NA,NA,NA,"congruent","right","TRUE",NA,NA,NA,NA,NA,NA
"43985","sort_trial",NA,"free-sort","10","188109","0.0-3.0-4.0","3","2020-1-8 9:0:57","LION",NA,NA,NA,NA,NA,NA,NA,NA,"[{""cat"":7,""src"":3,""x"":48,""y"":264},{""cat"":26,""src"":16,""x"":79,""y"":135},{""cat"":30,""src"":6,""x"":16,""y"":2},{""cat"":30,""src"":15,""x"":8,""y"":493},{""cat"":7,""src"":8,""x"":5,""y"":446},{""cat"":26,""src"":18,""x"":62,""y"":302},{""cat"":7,""src"":16,""x"":11,""y"":85},{""cat"":30,""src"":17,""x"":79,""y"":185},{""cat"":26,""src"":6,""x"":11,""y"":387}]","[{""cat"":""26"",""src"":""16"",""x"":0,""y"":0},{""cat"":""26"",""src"":""6"",""x"":0,""y"":0},{""cat"":""26"",""src"":""18"",""x"":0,""y"":0},{""cat"":""7"",""src"":""8"",""x"":0,""y"":0},{""cat"":""7"",""src"":""3"",""x"":0,""y"":0},{""cat"":""7"",""src"":""16"",""x"":0,""y"":0},{""cat"":""30"",""src"":""6"",""x"":0,""y"":0},{""cat"":""30"",""src"":""17"",""x"":0,""y"":0},{""cat"":""30"",""src"":""15"",""x"":0,""y"":0}]","[{""cat"":26,""src"":16,""loc"":3},{""cat"":26,""src"":6,""loc"":5},{""cat"":26,""src"":18,""loc"":4},{""cat"":7,""src"":8,""loc"":6},{""cat"":7,""src"":3,""loc"":8},{""cat"":7,""src"":16,""loc"":7},{""cat"":30,""src"":6,""loc"":1},{""cat"":30,""src"":17,""loc"":0},{""cat"":30,""src"":15,""loc"":2}]","9","30,30,30,26,26,26,7,7,7,17,6,15,16,18,6,8,16,3,0,1,2,3,4,5,6,7,8,7,6,8,0,2,1,3,5,4",NA
"2450","sort_feedback","32","html-keyboard-response","11","190566","0.0-3.0-5.0","3","2020-1-8 9:0:57","LION",NA,NA,NA,NA,NA,NA,NA,NA,NA,NA,NA,NA,NA,NA
"19939","setup4",NA,"animation","12","210507","0.0-3.0-6.0","3","2020-1-8 9:0:57","LION",NA,NA,"[{""cat"":22,""src"":13,""loc"":2},{""cat"":22,""src"":10,""loc"":5},{""cat"":22,""src"":0,""loc"":8},{""cat"":15,""src"":18,""loc"":3},{""cat"":15,""src"":9,""loc"":1},{""cat"":15,""src"":16,""loc"":6},{""cat"":14,""src"":10,""loc"":7},{""cat"":14,""src"":3,""loc"":4},{""cat"":14,""src"":14,""loc"":0}]","4","1104,1103,1103,1103,1104,1107,1104,1105,1104,10002",NA,NA,NA,NA,NA,NA,NA,NA,NA
"1250","flanker_instructions","37","html-keyboard-response","13","211762","0.0-3.0-7.0","3","2020-1-8 9:0:57","LION",NA,NA,NA,NA,NA,NA,NA,NA,NA,NA,NA,NA,NA,NA
NA,"flanker_test",NA,"image-keyboard-response","14","213668","0.0-3.0-8.0-0.0","3","2020-1-8 9:0:57","LION",NA,NA,NA,NA,NA,"incongruent","left","FALSE",NA,NA,NA,NA,NA,NA
"663","flanker_test","39","image-keyboard-response","15","215099","0.0-3.0-8.0-0.1","3","2020-1-8 9:0:57","LION",NA,NA,NA,NA,NA,"incongruent","right","TRUE",NA,NA,NA,NA,NA,NA
"774","flanker_test","39","image-keyboard-response","16","216644","0.0-3.0-8.0-0.2","3","2020-1-8 9:0:57","LION",NA,NA,NA,NA,NA,"congruent","right","TRUE",NA,NA,NA,NA,NA,NA
"639","flanker_test","37","image-keyboard-response","17","218471","0.0-3.0-8.0-0.3","3","2020-1-8 9:0:57","LION",NA,NA,NA,NA,NA,"congruent","left","TRUE",NA,NA,NA,NA,NA,NA
"53878","sort_trial",NA,"free-sort","18","273230","0.0-3.0-9.0","3","2020-1-8 9:0:57","LION",NA,NA,NA,NA,NA,NA,NA,NA,"[{""cat"":22,""src"":13,""x"":74,""y"":320},{""cat"":22,""src"":10,""x"":62,""y"":247},{""cat"":22,""src"":0,""x"":72,""y"":201},{""cat"":15,""src"":18,""x"":21,""y"":483},{""cat"":15,""src"":9,""x"":8,""y"":436},{""cat"":15,""src"":16,""x"":72,""y"":71},{""cat"":14,""src"":10,""x"":77,""y"":131},{""cat"":14,""src"":3,""x"":19,""y"":8},{""cat"":14,""src"":14,""x"":44,""y"":366}]","[{""cat"":""15"",""src"":""16"",""x"":0,""y"":0},{""cat"":""14"",""src"":""3"",""x"":138,""y"":44},{""cat"":""14"",""src"":""14"",""x"":0,""y"":0},{""cat"":""15"",""src"":""9"",""x"":0,""y"":0},{""cat"":""15"",""src"":""18"",""x"":0,""y"":0},{""cat"":""14"",""src"":""3"",""x"":0,""y"":0},{""cat"":""22"",""src"":""10"",""x"":62,""y"":247},{""cat"":""22"",""src"":""0"",""x"":0,""y"":0},{""cat"":""14"",""src"":""10"",""x"":0,""y"":0},{""cat"":""22"",""src"":""10"",""x"":0,""y"":0},{""cat"":""22"",""src"":""13"",""x"":0,""y"":0}]","[{""cat"":15,""src"":16,""loc"":6},{""cat"":14,""src"":14,""loc"":0},{""cat"":15,""src"":9,""loc"":1},{""cat"":15,""src"":18,""loc"":3},{""cat"":14,""src"":3,""loc"":4},{""cat"":22,""src"":0,""loc"":8},{""cat"":14,""src"":10,""loc"":7},{""cat"":22,""src"":10,""loc"":5},{""cat"":22,""src"":13,""loc"":2}]","9","14,15,22,15,14,22,15,14,22,14,9,13,18,3,10,16,10,0,0,1,2,3,4,5,6,7,8,1,2,8,3,4,7,0,6,5",NA
"4292","sort_feedback","32","html-keyboard-response","19","277526","0.0-3.0-10.0","3","2020-1-8 9:0:57","LION",NA,NA,NA,NA,NA,NA,NA,NA,NA,NA,NA,NA,NA,NA
"19937","setup5",NA,"animation","20","297466","0.0-3.0-11.0","3","2020-1-8 9:0:57","LION",NA,NA,"[{""cat"":9,""src"":16,""loc"":0},{""cat"":11,""src"":13,""loc"":6},{""cat"":3,""src"":7,""loc"":4},{""cat"":3,""src"":15,""loc"":1},{""cat"":11,""src"":0,""loc"":3},{""cat"":9,""src"":4,""loc"":8},{""cat"":3,""src"":17,""loc"":7},{""cat"":9,""src"":13,""loc"":5},{""cat"":11,""src"":2,""loc"":2}]","5","1107,1102,1103,1104,1103,1104,1103,1104,1105,10002",NA,NA,NA,NA,NA,NA,NA,NA,NA
"1509","flanker_instructions","37","html-keyboard-response","21","298978","0.0-3.0-12.0","3","2020-1-8 9:0:57","LION",NA,NA,NA,NA,NA,NA,NA,NA,NA,NA,NA,NA,NA,NA
"735","flanker_test","39","image-keyboard-response","22","300718","0.0-3.0-13.0-0.0","3","2020-1-8 9:0:57","LION",NA,NA,NA,NA,NA,"incongruent","right","TRUE",NA,NA,NA,NA,NA,NA
"751","flanker_test","37","image-keyboard-response","23","302183","0.0-3.0-13.0-0.1","3","2020-1-8 9:0:57","LION",NA,NA,NA,NA,NA,"incongruent","left","TRUE",NA,NA,NA,NA,NA,NA
"540","flanker_test","39","image-keyboard-response","24","303778","0.0-3.0-13.0-0.2","3","2020-1-8 9:0:57","LION",NA,NA,NA,NA,NA,"congruent","right","TRUE",NA,NA,NA,NA,NA,NA
"519","flanker_test","37","image-keyboard-response","25","305238","0.0-3.0-13.0-0.3","3","2020-1-8 9:0:57","LION",NA,NA,NA,NA,NA,"congruent","left","TRUE",NA,NA,NA,NA,NA,NA
"44435","sort_trial",NA,"free-sort","26","350037","0.0-3.0-14.0","3","2020-1-8 9:0:57","LION",NA,NA,NA,NA,NA,NA,NA,NA,"[{""cat"":9,""src"":16,""x"":24,""y"":28},{""cat"":11,""src"":13,""x"":12,""y"":385},{""cat"":3,""src"":7,""x"":78,""y"":127},{""cat"":3,""src"":15,""x"":79,""y"":443},{""cat"":11,""src"":0,""x"":0,""y"":260},{""cat"":9,""src"":4,""x"":74,""y"":66},{""cat"":3,""src"":17,""x"":28,""y"":307},{""cat"":9,""src"":13,""x"":53,""y"":508},{""cat"":11,""src"":2,""x"":17,""y"":199}]","[{""cat"":""11"",""src"":""13"",""x"":0,""y"":0},{""cat"":""3"",""src"":""15"",""x"":0,""y"":0},{""cat"":""9"",""src"":""13"",""x"":0,""y"":0},{""cat"":""9"",""src"":""16"",""x"":0,""y"":0},{""cat"":""11"",""src"":""2"",""x"":0,""y"":0},{""cat"":""11"",""src"":""0"",""x"":0,""y"":0},{""cat"":""3"",""src"":""17"",""x"":0,""y"":0},{""cat"":""3"",""src"":""7"",""x"":0,""y"":0},{""cat"":""9"",""src"":""4"",""x"":0,""y"":0}]","[{""cat"":11,""src"":13,""loc"":6},{""cat"":3,""src"":15,""loc"":1},{""cat"":9,""src"":13,""loc"":5},{""cat"":9,""src"":16,""loc"":0},{""cat"":11,""src"":2,""loc"":2},{""cat"":11,""src"":0,""loc"":3},{""cat"":3,""src"":17,""loc"":7},{""cat"":3,""src"":7,""loc"":4},{""cat"":9,""src"":4,""loc"":8}]","9","9,3,11,11,3,9,11,3,9,16,15,2,0,7,13,13,17,4,0,1,2,3,4,5,6,7,8,3,1,4,5,7,2,0,6,8",NA
"1854","sort_feedback","32","html-keyboard-response","27","351897","0.0-3.0-15.0","3","2020-1-8 9:0:57","LION",NA,NA,NA,NA,NA,NA,NA,NA,NA,NA,NA,NA,NA,NA
"19934","setup2",NA,"animation","28","371834","0.0-3.0-16.0","3","2020-1-8 9:0:57","LION",NA,NA,"[{""cat"":24,""src"":18,""loc"":7},{""cat"":27,""src"":2,""loc"":8},{""cat"":14,""src"":17,""loc"":6},{""cat"":24,""src"":5,""loc"":2},{""cat"":14,""src"":5,""loc"":0},{""cat"":27,""src"":17,""loc"":1},{""cat"":27,""src"":12,""loc"":4},{""cat"":14,""src"":19,""loc"":3},{""cat"":24,""src"":4,""loc"":5}]","2","1105,1102,1104,1104,1102,1104,1105,1103,1102,10003",NA,NA,NA,NA,NA,NA,NA,NA,NA
"1777","flanker_instructions","37","html-keyboard-response","29","373615","0.0-3.0-17.0","3","2020-1-8 9:0:57","LION",NA,NA,NA,NA,NA,NA,NA,NA,NA,NA,NA,NA,NA,NA
"819","flanker_test","37","image-keyboard-response","30","375440","0.0-3.0-18.0-0.0","3","2020-1-8 9:0:57","LION",NA,NA,NA,NA,NA,"incongruent","left","TRUE",NA,NA,NA,NA,NA,NA
"757","flanker_test","39","image-keyboard-response","31","376513","0.0-3.0-18.0-0.1","3","2020-1-8 9:0:57","LION",NA,NA,NA,NA,NA,"incongruent","right","TRUE",NA,NA,NA,NA,NA,NA
"584","flanker_test","37","image-keyboard-response","32","377891","0.0-3.0-18.0-0.2","3","2020-1-8 9:0:57","LION",NA,NA,NA,NA,NA,"congruent","left","TRUE",NA,NA,NA,NA,NA,NA
"604","flanker_test","39","image-keyboard-response","33","379593","0.0-3.0-18.0-0.3","3","2020-1-8 9:0:57","LION",NA,NA,NA,NA,NA,"congruent","right","TRUE",NA,NA,NA,NA,NA,NA
"30631","sort_trial",NA,"free-sort","34","411400","0.0-3.0-19.0","3","2020-1-8 9:0:57","LION",NA,NA,NA,NA,NA,NA,NA,NA,"[{""cat"":24,""src"":18,""x"":55,""y"":83},{""cat"":27,""src"":2,""x"":25,""y"":501},{""cat"":14,""src"":17,""x"":75,""y"":313},{""cat"":24,""src"":5,""x"":70,""y"":132},{""cat"":14,""src"":5,""x"":41,""y"":373},{""cat"":27,""src"":17,""x"":56,""y"":444},{""cat"":27,""src"":12,""x"":18,""y"":1},{""cat"":14,""src"":19,""x"":56,""y"":256},{""cat"":24,""src"":4,""x"":52,""y"":202}]","[{""cat"":""27"",""src"":""12"",""x"":0,""y"":0},{""cat"":""24"",""src"":""4"",""x"":0,""y"":0},{""cat"":""27"",""src"":""17"",""x"":0,""y"":0},{""cat"":""27"",""src"":""2"",""x"":0,""y"":0},{""cat"":""14"",""src"":""17"",""x"":0,""y"":0},{""cat"":""24"",""src"":""5"",""x"":0,""y"":0},{""cat"":""14"",""src"":""19"",""x"":0,""y"":0},{""cat"":""24"",""src"":""18"",""x"":0,""y"":0},{""cat"":""14"",""src"":""5"",""x"":0,""y"":0}]","[{""cat"":27,""src"":12,""loc"":4},{""cat"":24,""src"":4,""loc"":5},{""cat"":27,""src"":17,""loc"":1},{""cat"":27,""src"":2,""loc"":8},{""cat"":14,""src"":17,""loc"":0},{""cat"":24,""src"":5,""loc"":2},{""cat"":14,""src"":19,""loc"":3},{""cat"":24,""src"":18,""loc"":7},{""cat"":14,""src"":5,""loc"":6}]","7","14,27,24,14,27,24,14,24,27,17,17,5,19,12,4,5,18,2,0,1,2,3,4,5,6,7,8,4,2,5,6,0,1,8,7,3",NA
"2427","sort_feedback","32","html-keyboard-response","35","413832","0.0-3.0-20.0","3","2020-1-8 9:0:57","LION",NA,NA,NA,NA,NA,NA,NA,NA,NA,NA,NA,NA,NA,NA
"19940","setup1",NA,"animation","36","433774","0.0-3.0-21.0","3","2020-1-8 9:0:57","LION",NA,NA,"[{""cat"":18,""src"":17,""loc"":2},{""cat"":18,""src"":12,""loc"":1},{""cat"":18,""src"":0,""loc"":0},{""cat"":30,""src"":19,""loc"":3},{""cat"":30,""src"":7,""loc"":4},{""cat"":30,""src"":10,""loc"":5},{""cat"":3,""src"":18,""loc"":8},{""cat"":3,""src"":15,""loc"":7},{""cat"":3,""src"":5,""loc"":6}]","1","1106,1103,1105,1104,1103,1106,1104,1104,1104,10001",NA,NA,NA,NA,NA,NA,NA,NA,NA
"1304","flanker_instructions","37","html-keyboard-response","37","435082","0.0-3.0-22.0","3","2020-1-8 9:0:57","LION",NA,NA,NA,NA,NA,NA,NA,NA,NA,NA,NA,NA,NA,NA
"707","flanker_test","39","image-keyboard-response","38","436794","0.0-3.0-23.0-0.0","3","2020-1-8 9:0:57","LION",NA,NA,NA,NA,NA,"congruent","right","TRUE",NA,NA,NA,NA,NA,NA
"670","flanker_test","37","image-keyboard-response","39","438005","0.0-3.0-23.0-0.1","3","2020-1-8 9:0:57","LION",NA,NA,NA,NA,NA,"incongruent","left","TRUE",NA,NA,NA,NA,NA,NA
"582","flanker_test","39","image-keyboard-response","40","439192","0.0-3.0-23.0-0.2","3","2020-1-8 9:0:57","LION",NA,NA,NA,NA,NA,"incongruent","right","TRUE",NA,NA,NA,NA,NA,NA
"467","flanker_test","37","image-keyboard-response","41","440376","0.0-3.0-23.0-0.3","3","2020-1-8 9:0:57","LION",NA,NA,NA,NA,NA,"congruent","left","TRUE",NA,NA,NA,NA,NA,NA
"27398","sort_trial",NA,"free-sort","42","468785","0.0-3.0-24.0","3","2020-1-8 9:0:57","LION",NA,NA,NA,NA,NA,NA,NA,NA,"[{""cat"":18,""src"":17,""x"":11,""y"":493},{""cat"":18,""src"":12,""x"":18,""y"":368},{""cat"":18,""src"":0,""x"":30,""y"":180},{""cat"":30,""src"":19,""x"":73,""y"":314},{""cat"":30,""src"":7,""x"":66,""y"":448},{""cat"":30,""src"":10,""x"":0,""y"":129},{""cat"":3,""src"":18,""x"":55,""y"":16},{""cat"":3,""src"":15,""x"":47,""y"":257},{""cat"":3,""src"":5,""x"":63,""y"":87}]","[{""cat"":""30"",""src"":""10"",""x"":0,""y"":0},{""cat"":""18"",""src"":""12"",""x"":0,""y"":0},{""cat"":""3"",""src"":""5"",""x"":0,""y"":0},{""cat"":""3"",""src"":""18"",""x"":0,""y"":0},{""cat"":""3"",""src"":""15"",""x"":0,""y"":0},{""cat"":""30"",""src"":""7"",""x"":0,""y"":0},{""cat"":""30"",""src"":""19"",""x"":0,""y"":0},{""cat"":""18"",""src"":""0"",""x"":0,""y"":0},{""cat"":""18"",""src"":""17"",""x"":0,""y"":0}]","[{""cat"":30,""src"":10,""loc"":5},{""cat"":18,""src"":12,""loc"":1},{""cat"":3,""src"":5,""loc"":6},{""cat"":3,""src"":18,""loc"":8},{""cat"":3,""src"":15,""loc"":7},{""cat"":30,""src"":7,""loc"":4},{""cat"":30,""src"":19,""loc"":3},{""cat"":18,""src"":0,""loc"":0},{""cat"":18,""src"":17,""loc"":2}]","9","18,18,18,30,30,30,3,3,3,0,12,17,19,7,10,5,15,18,0,1,2,3,4,5,6,7,8,7,1,8,6,5,0,2,4,3",NA
"1693","sort_feedback","32","html-keyboard-response","43","470483","0.0-3.0-25.0","3","2020-1-8 9:0:57","LION",NA,NA,NA,NA,NA,NA,NA,NA,NA,NA,NA,NA,NA,NA
"19949","setup4",NA,"animation","44","490433","0.0-3.0-26.0","3","2020-1-8 9:0:57","LION",NA,NA,"[{""cat"":5,""src"":10,""loc"":7},{""cat"":5,""src"":0,""loc"":5},{""cat"":5,""src"":13,""loc"":2},{""cat"":6,""src"":18,""loc"":8},{""cat"":6,""src"":19,""loc"":0},{""cat"":6,""src"":11,""loc"":4},{""cat"":10,""src"":8,""loc"":3},{""cat"":10,""src"":4,""loc"":1},{""cat"":10,""src"":13,""loc"":6}]","4","1105,1115,1103,1103,1103,1104,1104,1105,1105,10002",NA,NA,NA,NA,NA,NA,NA,NA,NA
"1660","flanker_instructions","37","html-keyboard-response","45","492098","0.0-3.0-27.0","3","2020-1-8 9:0:57","LION",NA,NA,NA,NA,NA,NA,NA,NA,NA,NA,NA,NA,NA,NA
"741","flanker_test","39","image-keyboard-response","46","493844","0.0-3.0-28.0-0.0","3","2020-1-8 9:0:57","LION",NA,NA,NA,NA,NA,"congruent","right","TRUE",NA,NA,NA,NA,NA,NA
"594","flanker_test","37","image-keyboard-response","47","495392","0.0-3.0-28.0-0.1","3","2020-1-8 9:0:57","LION",NA,NA,NA,NA,NA,"congruent","left","TRUE",NA,NA,NA,NA,NA,NA
"872","flanker_test","37","image-keyboard-response","48","496989","0.0-3.0-28.0-0.2","3","2020-1-8 9:0:57","LION",NA,NA,NA,NA,NA,"incongruent","left","TRUE",NA,NA,NA,NA,NA,NA
"725","flanker_test","39","image-keyboard-response","49","498327","0.0-3.0-28.0-0.3","3","2020-1-8 9:0:57","LION",NA,NA,NA,NA,NA,"incongruent","right","TRUE",NA,NA,NA,NA,NA,NA
"32773","sort_trial",NA,"free-sort","50","531810","0.0-3.0-29.0","3","2020-1-8 9:0:57","LION",NA,NA,NA,NA,NA,NA,NA,NA,"[{""cat"":5,""src"":10,""x"":11,""y"":318},{""cat"":5,""src"":0,""x"":0,""y"":7},{""cat"":5,""src"":13,""x"":48,""y"":179},{""cat"":6,""src"":18,""x"":40,""y"":88},{""cat"":6,""src"":19,""x"":58,""y"":147},{""cat"":6,""src"":11,""x"":57,""y"":367},{""cat"":10,""src"":8,""x"":76,""y"":420},{""cat"":10,""src"":4,""x"":71,""y"":506},{""cat"":10,""src"":13,""x"":47,""y"":242}]","[{""cat"":""10"",""src"":""4"",""x"":414,""y"":39},{""cat"":""10"",""src"":""4"",""x"":0,""y"":0},{""cat"":""6"",""src"":""19"",""x"":0,""y"":0},{""cat"":""5"",""src"":""13"",""x"":0,""y"":0},{""cat"":""10"",""src"":""13"",""x"":0,""y"":0},{""cat"":""5"",""src"":""10"",""x"":0,""y"":0},{""cat"":""5"",""src"":""0"",""x"":0,""y"":0},{""cat"":""6"",""src"":""18"",""x"":0,""y"":0},{""cat"":""6"",""src"":""11"",""x"":0,""y"":0},{""cat"":""10"",""src"":""8"",""x"":0,""y"":0}]","[{""cat"":10,""src"":4,""loc"":1},{""cat"":6,""src"":19,""loc"":0},{""cat"":5,""src"":13,""loc"":2},{""cat"":10,""src"":13,""loc"":6},{""cat"":5,""src"":10,""loc"":7},{""cat"":5,""src"":0,""loc"":5},{""cat"":6,""src"":18,""loc"":8},{""cat"":6,""src"":11,""loc"":4},{""cat"":10,""src"":8,""loc"":3}]","9","6,10,5,10,6,5,10,5,6,19,4,13,8,11,0,13,10,18,0,1,2,3,4,5,6,7,8,1,0,2,8,7,5,3,4,6",NA
"1729","sort_feedback","32","html-keyboard-response","51","533542","0.0-3.0-30.0","3","2020-1-8 9:0:57","LION",NA,NA,NA,NA,NA,NA,NA,NA,NA,NA,NA,NA,NA,NA
"19937","setup3",NA,"animation","52","553482","0.0-3.0-31.0","3","2020-1-8 9:0:57","LION",NA,NA,"[{""cat"":18,""src"":11,""loc"":5},{""cat"":4,""src"":18,""loc"":6},{""cat"":24,""src"":0,""loc"":2},{""cat"":4,""src"":12,""loc"":8},{""cat"":24,""src"":3,""loc"":0},{""cat"":18,""src"":0,""loc"":4},{""cat"":24,""src"":9,""loc"":1},{""cat"":4,""src"":0,""loc"":7},{""cat"":18,""src"":13,""loc"":3}]","3","1105,1103,1103,1103,1107,1104,1102,1104,1104,10002",NA,NA,NA,NA,NA,NA,NA,NA,NA
"1767","flanker_instructions","37","html-keyboard-response","53","555254","0.0-3.0-32.0","3","2020-1-8 9:0:57","LION",NA,NA,NA,NA,NA,NA,NA,NA,NA,NA,NA,NA,NA,NA
"754","flanker_test","39","image-keyboard-response","54","557011","0.0-3.0-33.0-0.0","3","2020-1-8 9:0:57","LION",NA,NA,NA,NA,NA,"incongruent","right","TRUE",NA,NA,NA,NA,NA,NA
"540","flanker_test","39","image-keyboard-response","55","558510","0.0-3.0-33.0-0.1","3","2020-1-8 9:0:57","LION",NA,NA,NA,NA,NA,"congruent","right","TRUE",NA,NA,NA,NA,NA,NA
"644","flanker_test","37","image-keyboard-response","56","559865","0.0-3.0-33.0-0.2","3","2020-1-8 9:0:57","LION",NA,NA,NA,NA,NA,"incongruent","left","TRUE",NA,NA,NA,NA,NA,NA
"602","flanker_test","37","image-keyboard-response","57","561629","0.0-3.0-33.0-0.3","3","2020-1-8 9:0:57","LION",NA,NA,NA,NA,NA,"congruent","left","TRUE",NA,NA,NA,NA,NA,NA
"24667","sort_trial",NA,"free-sort","58","587410","0.0-3.0-34.0","3","2020-1-8 9:0:57","LION",NA,NA,NA,NA,NA,NA,NA,NA,"[{""cat"":18,""src"":11,""x"":31,""y"":262},{""cat"":4,""src"":18,""x"":65,""y"":315},{""cat"":24,""src"":0,""x"":29,""y"":184},{""cat"":4,""src"":12,""x"":64,""y"":501},{""cat"":24,""src"":3,""x"":38,""y"":132},{""cat"":18,""src"":0,""x"":28,""y"":421},{""cat"":24,""src"":9,""x"":59,""y"":378},{""cat"":4,""src"":0,""x"":22,""y"":76},{""cat"":18,""src"":13,""x"":79,""y"":16}]","[{""cat"":""24"",""src"":""9"",""x"":0,""y"":0},{""cat"":""24"",""src"":""3"",""x"":0,""y"":0},{""cat"":""24"",""src"":""0"",""x"":0,""y"":0},{""cat"":""4"",""src"":""18"",""x"":0,""y"":0},{""cat"":""18"",""src"":""11"",""x"":0,""y"":0},{""cat"":""18"",""src"":""13"",""x"":0,""y"":0},{""cat"":""18"",""src"":""0"",""x"":0,""y"":0},{""cat"":""4"",""src"":""12"",""x"":0,""y"":0},{""cat"":""4"",""src"":""0"",""x"":0,""y"":0}]","[{""cat"":24,""src"":9,""loc"":1},{""cat"":24,""src"":3,""loc"":0},{""cat"":24,""src"":0,""loc"":2},{""cat"":4,""src"":18,""loc"":6},{""cat"":18,""src"":11,""loc"":5},{""cat"":18,""src"":13,""loc"":3},{""cat"":18,""src"":0,""loc"":4},{""cat"":4,""src"":12,""loc"":8},{""cat"":4,""src"":0,""loc"":7}]","9","24,24,24,18,18,18,4,4,4,3,9,0,13,0,11,18,0,12,0,1,2,3,4,5,6,7,8,1,0,2,5,6,4,3,8,7",NA
"1661","sort_feedback","32","html-keyboard-response","59","589076","0.0-3.0-35.0","3","2020-1-8 9:0:57","LION",NA,NA,NA,NA,NA,NA,NA,NA,NA,NA,NA,NA,NA,NA
"19935","setup5",NA,"animation","60","609012","0.0-3.0-36.0","3","2020-1-8 9:0:57","LION",NA,NA,"[{""cat"":27,""src"":3,""loc"":0},{""cat"":9,""src"":11,""loc"":6},{""cat"":0,""src"":0,""loc"":5},{""cat"":0,""src"":6,""loc"":7},{""cat"":27,""src"":13,""loc"":4},{""cat"":9,""src"":13,""loc"":1},{""cat"":27,""src"":5,""loc"":8},{""cat"":9,""src"":4,""loc"":3},{""cat"":0,""src"":19,""loc"":2}]","5","1108,1102,1105,1102,1103,1103,1103,1103,1104,10002",NA,NA,NA,NA,NA,NA,NA,NA,NA
"1468","flanker_instructions","37","html-keyboard-response","61","610485","0.0-3.0-37.0","3","2020-1-8 9:0:57","LION",NA,NA,NA,NA,NA,NA,NA,NA,NA,NA,NA,NA,NA,NA
"701","flanker_test","39","image-keyboard-response","62","612194","0.0-3.0-38.0-0.0","3","2020-1-8 9:0:57","LION",NA,NA,NA,NA,NA,"congruent","right","TRUE",NA,NA,NA,NA,NA,NA
"619","flanker_test","37","image-keyboard-response","63","613383","0.0-3.0-38.0-0.1","3","2020-1-8 9:0:57","LION",NA,NA,NA,NA,NA,"congruent","left","TRUE",NA,NA,NA,NA,NA,NA
"740","flanker_test","39","image-keyboard-response","64","615110","0.0-3.0-38.0-0.2","3","2020-1-8 9:0:57","LION",NA,NA,NA,NA,NA,"incongruent","right","TRUE",NA,NA,NA,NA,NA,NA
"744","flanker_test","37","image-keyboard-response","65","616448","0.0-3.0-38.0-0.3","3","2020-1-8 9:0:57","LION",NA,NA,NA,NA,NA,"incongruent","left","TRUE",NA,NA,NA,NA,NA,NA
"37201","sort_trial",NA,"free-sort","66","654196","0.0-3.0-39.0","3","2020-1-8 9:0:57","LION",NA,NA,NA,NA,NA,NA,NA,NA,"[{""cat"":27,""src"":3,""x"":49,""y"":443},{""cat"":9,""src"":11,""x"":40,""y"":313},{""cat"":0,""src"":0,""x"":64,""y"":85},{""cat"":0,""src"":6,""x"":60,""y"":131},{""cat"":27,""src"":13,""x"":63,""y"":361},{""cat"":9,""src"":13,""x"":16,""y"":499},{""cat"":27,""src"":5,""x"":81,""y"":189},{""cat"":9,""src"":4,""x"":10,""y"":10},{""cat"":0,""src"":19,""x"":7,""y"":268}]","[{""cat"":""9"",""src"":""13"",""x"":0,""y"":0},{""cat"":""27"",""src"":""3"",""x"":0,""y"":0},{""cat"":""0"",""src"":""19"",""x"":0,""y"":0},{""cat"":""9"",""src"":""11"",""x"":0,""y"":0},{""cat"":""0"",""src"":""0"",""x"":0,""y"":0},{""cat"":""27"",""src"":""13"",""x"":0,""y"":0},{""cat"":""9"",""src"":""4"",""x"":10,""y"":10},{""cat"":""0"",""src"":""6"",""x"":0,""y"":0},{""cat"":""27"",""src"":""5"",""x"":0,""y"":0},{""cat"":""9"",""src"":""4"",""x"":0,""y"":0}]","[{""cat"":9,""src"":13,""loc"":1},{""cat"":27,""src"":3,""loc"":0},{""cat"":0,""src"":19,""loc"":2},{""cat"":9,""src"":11,""loc"":6},{""cat"":0,""src"":0,""loc"":5},{""cat"":27,""src"":13,""loc"":4},{""cat"":0,""src"":6,""loc"":7},{""cat"":27,""src"":5,""loc"":8},{""cat"":9,""src"":4,""loc"":3}]","9","27,9,0,9,27,0,9,0,27,3,13,19,4,13,0,11,6,5,0,1,2,3,4,5,6,7,8,1,0,2,8,5,4,3,6,7",NA
"1598","sort_feedback","32","html-keyboard-response","67","655800","0.0-3.0-40.0","3","2020-1-8 9:0:57","LION",NA,NA,NA,NA,NA,NA,NA,NA,NA,NA,NA,NA,NA,NA
"19936","setup1",NA,"animation","68","675737","0.0-3.0-41.0","3","2020-1-8 9:0:57","LION",NA,NA,"[{""cat"":33,""src"":15,""loc"":3},{""cat"":33,""src"":6,""loc"":5},{""cat"":33,""src"":10,""loc"":4},{""cat"":18,""src"":15,""loc"":1},{""cat"":18,""src"":10,""loc"":0},{""cat"":18,""src"":12,""loc"":2},{""cat"":26,""src"":16,""loc"":6},{""cat"":26,""src"":9,""loc"":8},{""cat"":26,""src"":14,""loc"":7}]","1","1105,1104,1103,1104,1102,1105,1104,1104,1103,10001",NA,NA,NA,NA,NA,NA,NA,NA,NA
"1238","flanker_instructions","37","html-keyboard-response","69","676979","0.0-3.0-42.0","3","2020-1-8 9:0:57","LION",NA,NA,NA,NA,NA,NA,NA,NA,NA,NA,NA,NA,NA,NA
NA,"flanker_test",NA,"image-keyboard-response","70","678885","0.0-3.0-43.0-0.0","3","2020-1-8 9:0:57","LION",NA,NA,NA,NA,NA,"incongruent","left","FALSE",NA,NA,NA,NA,NA,NA
"650","flanker_test","39","image-keyboard-response","71","680212","0.0-3.0-43.0-0.1","3","2020-1-8 9:0:57","LION",NA,NA,NA,NA,NA,"incongruent","right","TRUE",NA,NA,NA,NA,NA,NA
"683","flanker_test","37","image-keyboard-response","72","681199","0.0-3.0-43.0-0.2","3","2020-1-8 9:0:57","LION",NA,NA,NA,NA,NA,"congruent","left","TRUE",NA,NA,NA,NA,NA,NA
"627","flanker_test","39","image-keyboard-response","73","682183","0.0-3.0-43.0-0.3","3","2020-1-8 9:0:57","LION",NA,NA,NA,NA,NA,"congruent","right","TRUE",NA,NA,NA,NA,NA,NA
"40648","sort_trial",NA,"free-sort","74","723186","0.0-3.0-44.0","3","2020-1-8 9:0:57","LION",NA,NA,NA,NA,NA,NA,NA,NA,"[{""cat"":33,""src"":15,""x"":43,""y"":82},{""cat"":33,""src"":6,""x"":70,""y"":328},{""cat"":33,""src"":10,""x"":53,""y"":422},{""cat"":18,""src"":15,""x"":47,""y"":206},{""cat"":18,""src"":10,""x"":36,""y"":18},{""cat"":18,""src"":12,""x"":30,""y"":492},{""cat"":26,""src"":16,""x"":55,""y"":142},{""cat"":26,""src"":9,""x"":32,""y"":265},{""cat"":26,""src"":14,""x"":24,""y"":383}]","[{""cat"":""33"",""src"":""6"",""x"":0,""y"":0},{""cat"":""18"",""src"":""15"",""x"":0,""y"":0},{""cat"":""18"",""src"":""10"",""x"":0,""y"":0},{""cat"":""18"",""src"":""12"",""x"":0,""y"":0},{""cat"":""26"",""src"":""16"",""x"":0,""y"":0},{""cat"":""26"",""src"":""9"",""x"":0,""y"":0},{""cat"":""33"",""src"":""15"",""x"":0,""y"":0},{""cat"":""26"",""src"":""14"",""x"":0,""y"":0},{""cat"":""33"",""src"":""10"",""x"":0,""y"":0}]","[{""cat"":33,""src"":6,""loc"":5},{""cat"":18,""src"":15,""loc"":1},{""cat"":18,""src"":10,""loc"":0},{""cat"":18,""src"":12,""loc"":2},{""cat"":26,""src"":16,""loc"":6},{""cat"":26,""src"":9,""loc"":8},{""cat"":33,""src"":15,""loc"":3},{""cat"":26,""src"":14,""loc"":7},{""cat"":33,""src"":10,""loc"":4}]","9","18,18,18,33,33,33,26,26,26,10,15,12,15,10,6,16,14,9,0,1,2,3,4,5,6,7,8,2,1,3,6,8,0,4,7,5",NA
"1627","sort_feedback","32","html-keyboard-response","75","724818","0.0-3.0-45.0","3","2020-1-8 9:0:57","LION",NA,NA,NA,NA,NA,NA,NA,NA,NA,NA,NA,NA,NA,NA
"19936","setup2",NA,"animation","76","744755","0.0-3.0-46.0","3","2020-1-8 9:0:57","LION",NA,NA,"[{""cat"":4,""src"":10,""loc"":7},{""cat"":26,""src"":17,""loc"":6},{""cat"":32,""src"":5,""loc"":8},{""cat"":26,""src"":0,""loc"":4},{""cat"":4,""src"":6,""loc"":3},{""cat"":32,""src"":8,""loc"":5},{""cat"":4,""src"":14,""loc"":1},{""cat"":32,""src"":19,""loc"":2},{""cat"":26,""src"":11,""loc"":0}]","2","1104,1103,1104,1102,1103,1105,1104,1104,1104,10002",NA,NA,NA,NA,NA,NA,NA,NA,NA
"973","flanker_instructions","37","html-keyboard-response","77","745732","0.0-3.0-47.0","3","2020-1-8 9:0:57","LION",NA,NA,NA,NA,NA,NA,NA,NA,NA,NA,NA,NA,NA,NA
"770","flanker_test","39","image-keyboard-response","78","747505","0.0-3.0-48.0-0.0","3","2020-1-8 9:0:57","LION",NA,NA,NA,NA,NA,"incongruent","right","TRUE",NA,NA,NA,NA,NA,NA
"582","flanker_test","37","image-keyboard-response","79","748971","0.0-3.0-48.0-0.1","3","2020-1-8 9:0:57","LION",NA,NA,NA,NA,NA,"congruent","left","TRUE",NA,NA,NA,NA,NA,NA
"698","flanker_test","37","image-keyboard-response","80","750225","0.0-3.0-48.0-0.2","3","2020-1-8 9:0:57","LION",NA,NA,NA,NA,NA,"incongruent","left","TRUE",NA,NA,NA,NA,NA,NA
"587","flanker_test","39","image-keyboard-response","81","751914","0.0-3.0-48.0-0.3","3","2020-1-8 9:0:57","LION",NA,NA,NA,NA,NA,"congruent","right","TRUE",NA,NA,NA,NA,NA,NA
"30991","sort_trial",NA,"free-sort","82","783231","0.0-3.0-49.0","3","2020-1-8 9:0:57","LION",NA,NA,NA,NA,NA,NA,NA,NA,"[{""cat"":4,""src"":10,""x"":44,""y"":446},{""cat"":26,""src"":17,""x"":35,""y"":360},{""cat"":32,""src"":5,""x"":8,""y"":87},{""cat"":26,""src"":0,""x"":69,""y"":241},{""cat"":4,""src"":6,""x"":5,""y"":27},{""cat"":32,""src"":8,""x"":46,""y"":198},{""cat"":4,""src"":14,""x"":46,""y"":482},{""cat"":32,""src"":19,""x"":34,""y"":120},{""cat"":26,""src"":11,""x"":77,""y"":327}]","[{""cat"":""26"",""src"":""0"",""x"":0,""y"":0},{""cat"":""4"",""src"":""10"",""x"":0,""y"":0},{""cat"":""4"",""src"":""14"",""x"":0,""y"":0},{""cat"":""26"",""src"":""11"",""x"":0,""y"":0},{""cat"":""32"",""src"":""19"",""x"":0,""y"":0},{""cat"":""26"",""src"":""17"",""x"":0,""y"":0},{""cat"":""32"",""src"":""5"",""x"":0,""y"":0},{""cat"":""32"",""src"":""8"",""x"":0,""y"":0},{""cat"":""4"",""src"":""6"",""x"":734,""y"":256},{""cat"":""4"",""src"":""6"",""x"":734,""y"":254},{""cat"":""4"",""src"":""6"",""x"":0,""y"":0}]","[{""cat"":26,""src"":0,""loc"":4},{""cat"":4,""src"":10,""loc"":7},{""cat"":4,""src"":14,""loc"":1},{""cat"":26,""src"":11,""loc"":0},{""cat"":32,""src"":19,""loc"":2},{""cat"":26,""src"":17,""loc"":6},{""cat"":32,""src"":5,""loc"":8},{""cat"":32,""src"":8,""loc"":5},{""cat"":4,""src"":6,""loc"":3}]","9","26,4,32,4,26,32,26,4,32,11,14,19,6,0,8,17,10,5,0,1,2,3,4,5,6,7,8,3,2,4,8,0,7,5,1,6",NA
"1605","sort_feedback","32","html-keyboard-response","83","784840","0.0-3.0-50.0","3","2020-1-8 9:0:57","LION",NA,NA,NA,NA,NA,NA,NA,NA,NA,NA,NA,NA,NA,NA
"19935","setup1",NA,"animation","84","804776","0.0-3.0-51.0","3","2020-1-8 9:0:57","LION",NA,NA,"[{""cat"":4,""src"":12,""loc"":3},{""cat"":4,""src"":13,""loc"":5},{""cat"":4,""src"":3,""loc"":4},{""cat"":16,""src"":17,""loc"":1},{""cat"":16,""src"":0,""loc"":2},{""cat"":16,""src"":6,""loc"":0},{""cat"":0,""src"":16,""loc"":8},{""cat"":0,""src"":0,""loc"":6},{""cat"":0,""src"":5,""loc"":7}]","1","1105,1103,1104,1102,1105,1103,1102,1106,1104,10001",NA,NA,NA,NA,NA,NA,NA,NA,NA
"1676","flanker_instructions","37","html-keyboard-response","85","806457","0.0-3.0-52.0","3","2020-1-8 9:0:57","LION",NA,NA,NA,NA,NA,NA,NA,NA,NA,NA,NA,NA,NA,NA
NA,"flanker_test",NA,"image-keyboard-response","86","808362","0.0-3.0-53.0-0.0","3","2020-1-8 9:0:57","LION",NA,NA,NA,NA,NA,"incongruent","left","FALSE",NA,NA,NA,NA,NA,NA
"702","flanker_test","39","image-keyboard-response","87","809465","0.0-3.0-53.0-0.1","3","2020-1-8 9:0:57","LION",NA,NA,NA,NA,NA,"incongruent","right","TRUE",NA,NA,NA,NA,NA,NA
"607","flanker_test","39","image-keyboard-response","88","810657","0.0-3.0-53.0-0.2","3","2020-1-8 9:0:57","LION",NA,NA,NA,NA,NA,"congruent","right","TRUE",NA,NA,NA,NA,NA,NA
"515","flanker_test","37","image-keyboard-response","89","812173","0.0-3.0-53.0-0.3","3","2020-1-8 9:0:57","LION",NA,NA,NA,NA,NA,"congruent","left","TRUE",NA,NA,NA,NA,NA,NA
"30066","sort_trial",NA,"free-sort","90","842575","0.0-3.0-54.0","3","2020-1-8 9:0:57","LION",NA,NA,NA,NA,NA,NA,NA,NA,"[{""cat"":4,""src"":12,""x"":56,""y"":422},{""cat"":4,""src"":13,""x"":27,""y"":325},{""cat"":4,""src"":3,""x"":37,""y"":136},{""cat"":16,""src"":17,""x"":57,""y"":264},{""cat"":16,""src"":0,""x"":39,""y"":487},{""cat"":16,""src"":6,""x"":48,""y"":195},{""cat"":0,""src"":16,""x"":71,""y"":381},{""cat"":0,""src"":0,""x"":15,""y"":20},{""cat"":0,""src"":5,""x"":61,""y"":76}]","[{""cat"":""16"",""src"":""17"",""x"":0,""y"":0},{""cat"":""16"",""src"":""6"",""x"":0,""y"":0},{""cat"":""16"",""src"":""0"",""x"":0,""y"":0},{""cat"":""0"",""src"":""0"",""x"":0,""y"":0},{""cat"":""0"",""src"":""16"",""x"":0,""y"":0},{""cat"":""4"",""src"":""3"",""x"":0,""y"":0},{""cat"":""4"",""src"":""12"",""x"":0,""y"":0},{""cat"":""0"",""src"":""5"",""x"":0,""y"":0},{""cat"":""4"",""src"":""13"",""x"":0,""y"":0}]","[{""cat"":16,""src"":17,""loc"":1},{""cat"":16,""src"":6,""loc"":0},{""cat"":16,""src"":0,""loc"":2},{""cat"":0,""src"":0,""loc"":6},{""cat"":0,""src"":16,""loc"":8},{""cat"":4,""src"":3,""loc"":4},{""cat"":4,""src"":12,""loc"":5},{""cat"":0,""src"":5,""loc"":7},{""cat"":4,""src"":13,""loc"":3}]","7","16,16,16,4,4,4,0,0,0,6,17,0,13,3,12,0,5,16,0,1,2,3,4,5,6,7,8,1,0,2,8,5,6,3,7,4",NA
"1963","sort_feedback","32","html-keyboard-response","91","844543","0.0-3.0-55.0","3","2020-1-8 9:0:57","LION",NA,NA,NA,NA,NA,NA,NA,NA,NA,NA,NA,NA,NA,NA
"19937","setup2",NA,"animation","92","864481","0.0-3.0-56.0","3","2020-1-8 9:0:57","LION",NA,NA,"[{""cat"":29,""src"":14,""loc"":7},{""cat"":16,""src"":0,""loc"":6},{""cat"":31,""src"":18,""loc"":8},{""cat"":16,""src"":13,""loc"":1},{""cat"":29,""src"":15,""loc"":0},{""cat"":31,""src"":14,""loc"":2},{""cat"":29,""src"":16,""loc"":3},{""cat"":16,""src"":19,""loc"":5},{""cat"":31,""src"":13,""loc"":4}]","2","1105,1102,1102,1103,1102,1104,1104,1106,1105,10004",NA,NA,NA,NA,NA,NA,NA,NA,NA
"1870","flanker_instructions","37","html-keyboard-response","93","866355","0.0-3.0-57.0","3","2020-1-8 9:0:57","LION",NA,NA,NA,NA,NA,NA,NA,NA,NA,NA,NA,NA,NA,NA
"632","flanker_test","39","image-keyboard-response","94","867993","0.0-3.0-58.0-0.0","3","2020-1-8 9:0:57","LION",NA,NA,NA,NA,NA,"congruent","right","TRUE",NA,NA,NA,NA,NA,NA
"586","flanker_test","37","image-keyboard-response","95","868962","0.0-3.0-58.0-0.1","3","2020-1-8 9:0:57","LION",NA,NA,NA,NA,NA,"congruent","left","TRUE",NA,NA,NA,NA,NA,NA
"827","flanker_test","37","image-keyboard-response","96","870868","0.0-3.0-58.0-0.2","3","2020-1-8 9:0:57","LION",NA,NA,NA,NA,NA,"incongruent","left","TRUE",NA,NA,NA,NA,NA,NA
"778","flanker_test","39","image-keyboard-response","97","872052","0.0-3.0-58.0-0.3","3","2020-1-8 9:0:57","LION",NA,NA,NA,NA,NA,"incongruent","right","TRUE",NA,NA,NA,NA,NA,NA
"45351","sort_trial",NA,"free-sort","98","918005","0.0-3.0-59.0","3","2020-1-8 9:0:57","LION",NA,NA,NA,NA,NA,NA,NA,NA,"[{""cat"":29,""src"":14,""x"":54,""y"":16},{""cat"":16,""src"":0,""x"":76,""y"":204},{""cat"":31,""src"":18,""x"":53,""y"":310},{""cat"":16,""src"":13,""x"":64,""y"":245},{""cat"":29,""src"":15,""x"":35,""y"":430},{""cat"":31,""src"":14,""x"":42,""y"":135},{""cat"":29,""src"":16,""x"":37,""y"":492},{""cat"":16,""src"":19,""x"":10,""y"":69},{""cat"":31,""src"":13,""x"":37,""y"":371}]","[{""cat"":""16"",""src"":""13"",""x"":0,""y"":0},{""cat"":""31"",""src"":""14"",""x"":0,""y"":0},{""cat"":""16"",""src"":""0"",""x"":0,""y"":0},{""cat"":""31"",""src"":""18"",""x"":0,""y"":0},{""cat"":""29"",""src"":""15"",""x"":0,""y"":0},{""cat"":""31"",""src"":""13"",""x"":0,""y"":0},{""cat"":""29"",""src"":""14"",""x"":0,""y"":0},{""cat"":""29"",""src"":""16"",""x"":0,""y"":0},{""cat"":""16"",""src"":""19"",""x"":0,""y"":0}]","[{""cat"":16,""src"":13,""loc"":1},{""cat"":31,""src"":14,""loc"":2},{""cat"":16,""src"":0,""loc"":6},{""cat"":31,""src"":18,""loc"":8},{""cat"":29,""src"":15,""loc"":0},{""cat"":31,""src"":13,""loc"":7},{""cat"":29,""src"":14,""loc"":3},{""cat"":29,""src"":16,""loc"":5},{""cat"":16,""src"":19,""loc"":4}]","5","29,16,31,29,16,29,16,31,31,15,13,14,14,19,16,0,13,18,0,1,2,3,4,5,6,7,8,4,0,1,6,8,7,2,5,3",NA
"2000","sort_feedback","32","html-keyboard-response","99","920011","0.0-3.0-60.0","3","2020-1-8 9:0:57","LION",NA,NA,NA,NA,NA,NA,NA,NA,NA,NA,NA,NA,NA,NA
"19934","setup3",NA,"animation","100","939946","0.0-3.0-61.0","3","2020-1-8 9:0:57","LION",NA,NA,"[{""cat"":31,""src"":18,""loc"":4},{""cat"":4,""src"":19,""loc"":8},{""cat"":29,""src"":4,""loc"":1},{""cat"":4,""src"":5,""loc"":7},{""cat"":29,""src"":2,""loc"":0},{""cat"":31,""src"":0,""loc"":5},{""cat"":29,""src"":13,""loc"":2},{""cat"":31,""src"":12,""loc"":3},{""cat"":4,""src"":6,""loc"":6}]","3","1106,1103,1104,1103,1103,1103,1102,1104,1104,10002",NA,NA,NA,NA,NA,NA,NA,NA,NA
"1747","flanker_instructions","37","html-keyboard-response","101","941698","0.0-3.0-62.0","3","2020-1-8 9:0:57","LION",NA,NA,NA,NA,NA,NA,NA,NA,NA,NA,NA,NA,NA,NA
NA,"flanker_test",NA,"image-keyboard-response","102","943606","0.0-3.0-63.0-0.0","3","2020-1-8 9:0:57","LION",NA,NA,NA,NA,NA,"incongruent","left","FALSE",NA,NA,NA,NA,NA,NA
"586","flanker_test","37","image-keyboard-response","103","944818","0.0-3.0-63.0-0.1","3","2020-1-8 9:0:57","LION",NA,NA,NA,NA,NA,"congruent","left","TRUE",NA,NA,NA,NA,NA,NA
"705","flanker_test","39","image-keyboard-response","104","945988","0.0-3.0-63.0-0.2","3","2020-1-8 9:0:57","LION",NA,NA,NA,NA,NA,"incongruent","right","TRUE",NA,NA,NA,NA,NA,NA
"838","flanker_test","39","image-keyboard-response","105","947158","0.0-3.0-63.0-0.3","3","2020-1-8 9:0:57","LION",NA,NA,NA,NA,NA,"congruent","right","TRUE",NA,NA,NA,NA,NA,NA
"24519","sort_trial",NA,"free-sort","106","972348","0.0-3.0-64.0","3","2020-1-8 9:0:57","LION",NA,NA,NA,NA,NA,NA,NA,NA,"[{""cat"":31,""src"":18,""x"":69,""y"":300},{""cat"":4,""src"":19,""x"":54,""y"":363},{""cat"":29,""src"":4,""x"":2,""y"":62},{""cat"":4,""src"":5,""x"":44,""y"":29},{""cat"":29,""src"":2,""x"":18,""y"":132},{""cat"":31,""src"":0,""x"":48,""y"":490},{""cat"":29,""src"":13,""x"":5,""y"":247},{""cat"":31,""src"":12,""x"":5,""y"":438},{""cat"":4,""src"":6,""x"":72,""y"":189}]","[{""cat"":""29"",""src"":""4"",""x"":0,""y"":0},{""cat"":""29"",""src"":""2"",""x"":0,""y"":0},{""cat"":""29"",""src"":""13"",""x"":0,""y"":0},{""cat"":""4"",""src"":""6"",""x"":0,""y"":0},{""cat"":""31"",""src"":""0"",""x"":0,""y"":0},{""cat"":""31"",""src"":""12"",""x"":0,""y"":0},{""cat"":""31"",""src"":""18"",""x"":0,""y"":0},{""cat"":""4"",""src"":""5"",""x"":0,""y"":0},{""cat"":""4"",""src"":""19"",""x"":0,""y"":0}]","[{""cat"":29,""src"":4,""loc"":1},{""cat"":29,""src"":2,""loc"":0},{""cat"":29,""src"":13,""loc"":2},{""cat"":4,""src"":6,""loc"":6},{""cat"":31,""src"":0,""loc"":5},{""cat"":31,""src"":12,""loc"":3},{""cat"":31,""src"":18,""loc"":4},{""cat"":4,""src"":5,""loc"":7},{""cat"":4,""src"":19,""loc"":8}]","9","29,29,29,31,31,31,4,4,4,2,4,13,12,18,0,6,5,19,0,1,2,3,4,5,6,7,8,1,0,2,5,6,4,3,7,8",NA
"1713","sort_feedback","32","html-keyboard-response","107","974066","0.0-3.0-65.0","3","2020-1-8 9:0:57","LION",NA,NA,NA,NA,NA,NA,NA,NA,NA,NA,NA,NA,NA,NA
"19939","setup4",NA,"animation","108","994006","0.0-3.0-66.0","3","2020-1-8 9:0:57","LION",NA,NA,"[{""cat"":11,""src"":17,""loc"":3},{""cat"":11,""src"":7,""loc"":0},{""cat"":11,""src"":6,""loc"":8},{""cat"":8,""src"":0,""loc"":7},{""cat"":8,""src"":9,""loc"":1},{""cat"":8,""src"":6,""loc"":4},{""cat"":16,""src"":4,""loc"":6},{""cat"":16,""src"":16,""loc"":2},{""cat"":16,""src"":12,""loc"":5}]","4","1107,1104,1105,1103,1102,1106,1104,1103,1103,10001",NA,NA,NA,NA,NA,NA,NA,NA,NA
"953","flanker_instructions","37","html-keyboard-response","109","994964","0.0-3.0-67.0","3","2020-1-8 9:0:57","LION",NA,NA,NA,NA,NA,NA,NA,NA,NA,NA,NA,NA,NA,NA
"657","flanker_test","37","image-keyboard-response","110","996627","0.0-3.0-68.0-0.0","3","2020-1-8 9:0:57","LION",NA,NA,NA,NA,NA,"congruent","left","TRUE",NA,NA,NA,NA,NA,NA
"662","flanker_test","39","image-keyboard-response","111","997849","0.0-3.0-68.0-0.1","3","2020-1-8 9:0:57","LION",NA,NA,NA,NA,NA,"incongruent","right","TRUE",NA,NA,NA,NA,NA,NA
"588","flanker_test","39","image-keyboard-response","112","999460","0.0-3.0-68.0-0.2","3","2020-1-8 9:0:57","LION",NA,NA,NA,NA,NA,"congruent","right","TRUE",NA,NA,NA,NA,NA,NA
"603","flanker_test","37","image-keyboard-response","113","1001162","0.0-3.0-68.0-0.3","3","2020-1-8 9:0:57","LION",NA,NA,NA,NA,NA,"incongruent","left","TRUE",NA,NA,NA,NA,NA,NA
"31081","sort_trial",NA,"free-sort","114","1032639","0.0-3.0-69.0","3","2020-1-8 9:0:57","LION",NA,NA,NA,NA,NA,NA,NA,NA,"[{""cat"":11,""src"":17,""x"":63,""y"":4},{""cat"":11,""src"":7,""x"":82,""y"":68},{""cat"":11,""src"":6,""x"":14,""y"":128},{""cat"":8,""src"":0,""x"":59,""y"":201},{""cat"":8,""src"":9,""x"":77,""y"":385},{""cat"":8,""src"":6,""x"":71,""y"":322},{""cat"":16,""src"":4,""x"":23,""y"":435},{""cat"":16,""src"":16,""x"":54,""y"":506},{""cat"":16,""src"":12,""x"":4,""y"":258}]","[{""cat"":""8"",""src"":""9"",""x"":0,""y"":0},{""cat"":""11"",""src"":""7"",""x"":0,""y"":0},{""cat"":""16"",""src"":""16"",""x"":0,""y"":0},{""cat"":""16"",""src"":""4"",""x"":0,""y"":0},{""cat"":""8"",""src"":""0"",""x"":0,""y"":0},{""cat"":""11"",""src"":""17"",""x"":63,""y"":4},{""cat"":""16"",""src"":""12"",""x"":0,""y"":0},{""cat"":""8"",""src"":""6"",""x"":0,""y"":0},{""cat"":""11"",""src"":""17"",""x"":0,""y"":0},{""cat"":""11"",""src"":""6"",""x"":0,""y"":0}]","[{""cat"":8,""src"":9,""loc"":1},{""cat"":11,""src"":7,""loc"":0},{""cat"":16,""src"":16,""loc"":2},{""cat"":16,""src"":4,""loc"":6},{""cat"":8,""src"":0,""loc"":7},{""cat"":16,""src"":12,""loc"":5},{""cat"":8,""src"":6,""loc"":4},{""cat"":11,""src"":17,""loc"":3},{""cat"":11,""src"":6,""loc"":8}]","9","11,8,16,11,8,16,16,8,11,7,9,16,17,6,12,4,0,6,0,1,2,3,4,5,6,7,8,1,0,2,7,6,5,3,4,8",NA
"1545","sort_feedback","32","html-keyboard-response","115","1034189","0.0-3.0-70.0","3","2020-1-8 9:0:57","LION",NA,NA,NA,NA,NA,NA,NA,NA,NA,NA,NA,NA,NA,NA
"19935","setup5",NA,"animation","116","1054127","0.0-3.0-71.0","3","2020-1-8 9:0:57","LION",NA,NA,"[{""cat"":1,""src"":5,""loc"":0},{""cat"":7,""src"":18,""loc"":5},{""cat"":9,""src"":3,""loc"":6},{""cat"":7,""src"":12,""loc"":8},{""cat"":1,""src"":17,""loc"":4},{""cat"":9,""src"":7,""loc"":2},{""cat"":9,""src"":18,""loc"":3},{""cat"":1,""src"":14,""loc"":7},{""cat"":7,""src"":11,""loc"":1}]","5","1107,1102,1104,1104,1102,1104,1103,1104,1103,10002",NA,NA,NA,NA,NA,NA,NA,NA,NA
"1095","flanker_instructions","37","html-keyboard-response","117","1055227","0.0-3.0-72.0","3","2020-1-8 9:0:57","LION",NA,NA,NA,NA,NA,NA,NA,NA,NA,NA,NA,NA,NA,NA
"780","flanker_test","37","image-keyboard-response","118","1057012","0.0-3.0-73.0-0.0","3","2020-1-8 9:0:57","LION",NA,NA,NA,NA,NA,"congruent","left","TRUE",NA,NA,NA,NA,NA,NA
"620","flanker_test","39","image-keyboard-response","119","1058824","0.0-3.0-73.0-0.1","3","2020-1-8 9:0:57","LION",NA,NA,NA,NA,NA,"incongruent","right","TRUE",NA,NA,NA,NA,NA,NA
"573","flanker_test","39","image-keyboard-response","120","1060184","0.0-3.0-73.0-0.2","3","2020-1-8 9:0:57","LION",NA,NA,NA,NA,NA,"congruent","right","TRUE",NA,NA,NA,NA,NA,NA
"836","flanker_test","37","image-keyboard-response","121","1061413","0.0-3.0-73.0-0.3","3","2020-1-8 9:0:57","LION",NA,NA,NA,NA,NA,"incongruent","left","TRUE",NA,NA,NA,NA,NA,NA
"27963","sort_trial",NA,"free-sort","122","1089895","0.0-3.0-74.0","3","2020-1-8 9:0:57","LION",NA,NA,NA,NA,NA,NA,NA,NA,"[{""cat"":1,""src"":5,""x"":47,""y"":374},{""cat"":7,""src"":18,""x"":4,""y"":81},{""cat"":9,""src"":3,""x"":56,""y"":425},{""cat"":7,""src"":12,""x"":49,""y"":263},{""cat"":1,""src"":17,""x"":78,""y"":182},{""cat"":9,""src"":7,""x"":64,""y"":136},{""cat"":9,""src"":18,""x"":12,""y"":484},{""cat"":1,""src"":14,""x"":20,""y"":306},{""cat"":7,""src"":11,""x"":46,""y"":19}]","[{""cat"":""7"",""src"":""11"",""x"":0,""y"":0},{""cat"":""1"",""src"":""5"",""x"":0,""y"":0},{""cat"":""9"",""src"":""7"",""x"":0,""y"":0},{""cat"":""9"",""src"":""3"",""x"":0,""y"":0},{""cat"":""7"",""src"":""12"",""x"":0,""y"":0},{""cat"":""9"",""src"":""18"",""x"":0,""y"":0},{""cat"":""7"",""src"":""18"",""x"":0,""y"":0},{""cat"":""1"",""src"":""14"",""x"":0,""y"":0},{""cat"":""1"",""src"":""17"",""x"":0,""y"":0}]","[{""cat"":7,""src"":11,""loc"":1},{""cat"":1,""src"":5,""loc"":0},{""cat"":9,""src"":7,""loc"":2},{""cat"":9,""src"":3,""loc"":6},{""cat"":7,""src"":12,""loc"":8},{""cat"":9,""src"":18,""loc"":3},{""cat"":7,""src"":18,""loc"":5},{""cat"":1,""src"":14,""loc"":7},{""cat"":1,""src"":17,""loc"":4}]","9","1,7,9,9,1,7,9,1,7,5,11,7,18,17,18,3,14,12,0,1,2,3,4,5,6,7,8,1,0,2,5,8,6,3,7,4",NA
"1412","sort_feedback","32","html-keyboard-response","123","1091311","0.0-3.0-75.0","3","2020-1-8 9:0:57","LION",NA,NA,NA,NA,NA,NA,NA,NA,NA,NA,NA,NA,NA,NA
"19942","setup4",NA,"animation","124","1111255","0.0-3.0-76.0","3","2020-1-8 9:0:57","LION",NA,NA,"[{""cat"":13,""src"":4,""loc"":0},{""cat"":13,""src"":19,""loc"":7},{""cat"":13,""src"":12,""loc"":3},{""cat"":32,""src"":17,""loc"":8},{""cat"":32,""src"":16,""loc"":4},{""cat"":32,""src"":10,""loc"":2},{""cat"":9,""src"":9,""loc"":6},{""cat"":9,""src"":11,""loc"":5},{""cat"":9,""src"":7,""loc"":1}]","4","1104,1103,1103,1101,1103,1103,1104,1112,1104,10004",NA,NA,NA,NA,NA,NA,NA,NA,NA
"896","flanker_instructions","37","html-keyboard-response","125","1112156","0.0-3.0-77.0","3","2020-1-8 9:0:57","LION",NA,NA,NA,NA,NA,NA,NA,NA,NA,NA,NA,NA,NA,NA
"806","flanker_test","37","image-keyboard-response","126","1113974","0.0-3.0-78.0-0.0","3","2020-1-8 9:0:57","LION",NA,NA,NA,NA,NA,"incongruent","left","TRUE",NA,NA,NA,NA,NA,NA
"649","flanker_test","39","image-keyboard-response","127","1114963","0.0-3.0-78.0-0.1","3","2020-1-8 9:0:57","LION",NA,NA,NA,NA,NA,"congruent","right","TRUE",NA,NA,NA,NA,NA,NA
"759","flanker_test","39","image-keyboard-response","128","1116531","0.0-3.0-78.0-0.2","3","2020-1-8 9:0:57","LION",NA,NA,NA,NA,NA,"incongruent","right","TRUE",NA,NA,NA,NA,NA,NA
"539","flanker_test","37","image-keyboard-response","129","1118101","0.0-3.0-78.0-0.3","3","2020-1-8 9:0:57","LION",NA,NA,NA,NA,NA,"congruent","left","TRUE",NA,NA,NA,NA,NA,NA
"31260","sort_trial",NA,"free-sort","130","1150317","0.0-3.0-79.0","3","2020-1-8 9:0:57","LION",NA,NA,NA,NA,NA,NA,NA,NA,"[{""cat"":13,""src"":4,""x"":26,""y"":143},{""cat"":13,""src"":19,""x"":2,""y"":83},{""cat"":13,""src"":12,""x"":66,""y"":16},{""cat"":32,""src"":17,""x"":3,""y"":241},{""cat"":32,""src"":16,""x"":52,""y"":446},{""cat"":32,""src"":10,""x"":83,""y"":500},{""cat"":9,""src"":9,""x"":41,""y"":305},{""cat"":9,""src"":11,""x"":6,""y"":381},{""cat"":9,""src"":7,""x"":57,""y"":208}]","[{""cat"":""9"",""src"":""7"",""x"":0,""y"":0},{""cat"":""13"",""src"":""4"",""x"":0,""y"":0},{""cat"":""32"",""src"":""10"",""x"":0,""y"":0},{""cat"":""9"",""src"":""9"",""x"":0,""y"":0},{""cat"":""32"",""src"":""17"",""x"":0,""y"":0},{""cat"":""9"",""src"":""11"",""x"":0,""y"":0},{""cat"":""13"",""src"":""19"",""x"":0,""y"":0},{""cat"":""32"",""src"":""16"",""x"":0,""y"":0},{""cat"":""13"",""src"":""12"",""x"":0,""y"":0}]","[{""cat"":9,""src"":7,""loc"":1},{""cat"":13,""src"":4,""loc"":0},{""cat"":32,""src"":10,""loc"":2},{""cat"":9,""src"":9,""loc"":6},{""cat"":32,""src"":17,""loc"":8},{""cat"":9,""src"":11,""loc"":3},{""cat"":13,""src"":19,""loc"":7},{""cat"":32,""src"":16,""loc"":4},{""cat"":13,""src"":12,""loc"":5}]","7","13,9,32,9,32,13,9,13,32,4,7,10,11,16,12,9,19,17,0,1,2,3,4,5,6,7,8,1,0,2,5,7,8,3,6,4",NA
"1672","sort_feedback","32","html-keyboard-response","131","1151994","0.0-3.0-80.0","3","2020-1-8 9:0:57","LION",NA,NA,NA,NA,NA,NA,NA,NA,NA,NA,NA,NA,NA,NA
"19935","setup1",NA,"animation","132","1171931","0.0-3.0-81.0","3","2020-1-8 9:0:57","LION",NA,NA,"[{""cat"":25,""src"":9,""loc"":3},{""cat"":25,""src"":19,""loc"":5},{""cat"":25,""src"":2,""loc"":4},{""cat"":29,""src"":11,""loc"":6},{""cat"":29,""src"":7,""loc"":8},{""cat"":29,""src"":1,""loc"":7},{""cat"":14,""src"":5,""loc"":1},{""cat"":14,""src"":12,""loc"":0},{""cat"":14,""src"":3,""loc"":2}]","1","1107,1102,1105,1103,1104,1102,1102,1104,1104,10002",NA,NA,NA,NA,NA,NA,NA,NA,NA
"1634","flanker_instructions","37","html-keyboard-response","133","1173569","0.0-3.0-82.0","3","2020-1-8 9:0:57","LION",NA,NA,NA,NA,NA,NA,NA,NA,NA,NA,NA,NA,NA,NA
"893","flanker_test","37","image-keyboard-response","134","1175467","0.0-3.0-83.0-0.0","3","2020-1-8 9:0:57","LION",NA,NA,NA,NA,NA,"incongruent","left","TRUE",NA,NA,NA,NA,NA,NA
"605","flanker_test","37","image-keyboard-response","135","1176473","0.0-3.0-83.0-0.1","3","2020-1-8 9:0:57","LION",NA,NA,NA,NA,NA,"congruent","left","TRUE",NA,NA,NA,NA,NA,NA
"581","flanker_test","39","image-keyboard-response","136","1177474","0.0-3.0-83.0-0.2","3","2020-1-8 9:0:57","LION",NA,NA,NA,NA,NA,"congruent","right","TRUE",NA,NA,NA,NA,NA,NA
"845","flanker_test","39","image-keyboard-response","137","1179082","0.0-3.0-83.0-0.3","3","2020-1-8 9:0:57","LION",NA,NA,NA,NA,NA,"incongruent","right","TRUE",NA,NA,NA,NA,NA,NA
"29303","sort_trial",NA,"free-sort","138","1209352","0.0-3.0-84.0","3","2020-1-8 9:0:57","LION",NA,NA,NA,NA,NA,NA,NA,NA,"[{""cat"":25,""src"":9,""x"":19,""y"":125},{""cat"":25,""src"":19,""x"":35,""y"":68},{""cat"":25,""src"":2,""x"":8,""y"":209},{""cat"":29,""src"":11,""x"":9,""y"":490},{""cat"":29,""src"":7,""x"":29,""y"":306},{""cat"":29,""src"":1,""x"":42,""y"":373},{""cat"":14,""src"":5,""x"":59,""y"":437},{""cat"":14,""src"":12,""x"":46,""y"":17},{""cat"":14,""src"":3,""x"":20,""y"":247}]","[{""cat"":""14"",""src"":""5"",""x"":0,""y"":0},{""cat"":""14"",""src"":""12"",""x"":0,""y"":0},{""cat"":""14"",""src"":""3"",""x"":0,""y"":0},{""cat"":""29"",""src"":""11"",""x"":0,""y"":0},{""cat"":""29"",""src"":""7"",""x"":0,""y"":0},{""cat"":""29"",""src"":""1"",""x"":0,""y"":0},{""cat"":""25"",""src"":""9"",""x"":0,""y"":0},{""cat"":""25"",""src"":""19"",""x"":0,""y"":0},{""cat"":""25"",""src"":""2"",""x"":0,""y"":0}]","[{""cat"":14,""src"":5,""loc"":1},{""cat"":14,""src"":12,""loc"":0},{""cat"":14,""src"":3,""loc"":2},{""cat"":29,""src"":11,""loc"":6},{""cat"":29,""src"":7,""loc"":8},{""cat"":29,""src"":1,""loc"":7},{""cat"":25,""src"":9,""loc"":3},{""cat"":25,""src"":19,""loc"":5},{""cat"":25,""src"":2,""loc"":4}]","9","14,14,14,25,25,25,29,29,29,12,5,3,9,2,19,11,1,7,0,1,2,3,4,5,6,7,8,1,0,2,6,8,7,3,5,4",NA
"2346","sort_feedback","32","html-keyboard-response","139","1211708","0.0-3.0-85.0","3","2020-1-8 9:0:57","LION",NA,NA,NA,NA,NA,NA,NA,NA,NA,NA,NA,NA,NA,NA
"19941","setup5",NA,"animation","140","1231650","0.0-3.0-86.0","3","2020-1-8 9:0:57","LION",NA,NA,"[{""cat"":17,""src"":15,""loc"":5},{""cat"":13,""src"":14,""loc"":0},{""cat"":33,""src"":10,""loc"":8},{""cat"":33,""src"":8,""loc"":4},{""cat"":17,""src"":2,""loc"":1},{""cat"":13,""src"":18,""loc"":7},{""cat"":13,""src"":2,""loc"":3},{""cat"":33,""src"":18,""loc"":2},{""cat"":17,""src"":11,""loc"":6}]","5","1104,1105,1105,1104,1103,1103,1105,1103,1104,10005",NA,NA,NA,NA,NA,NA,NA,NA,NA
"1131","flanker_instructions","37","html-keyboard-response","141","1232785","0.0-3.0-87.0","3","2020-1-8 9:0:57","LION",NA,NA,NA,NA,NA,NA,NA,NA,NA,NA,NA,NA,NA,NA
NA,"flanker_test",NA,"image-keyboard-response","142","1234692","0.0-3.0-88.0-0.0","3","2020-1-8 9:0:57","LION",NA,NA,NA,NA,NA,"incongruent","right","FALSE",NA,NA,NA,NA,NA,NA
"511","flanker_test","37","image-keyboard-response","143","1236146","0.0-3.0-88.0-0.1","3","2020-1-8 9:0:57","LION",NA,NA,NA,NA,NA,"congruent","left","TRUE",NA,NA,NA,NA,NA,NA
"529","flanker_test","39","image-keyboard-response","144","1237670","0.0-3.0-88.0-0.2","3","2020-1-8 9:0:57","LION",NA,NA,NA,NA,NA,"incongruent","left","FALSE",NA,NA,NA,NA,NA,NA
"667","flanker_test","39","image-keyboard-response","145","1239252","0.0-3.0-88.0-0.3","3","2020-1-8 9:0:57","LION",NA,NA,NA,NA,NA,"congruent","right","TRUE",NA,NA,NA,NA,NA,NA
"28932","sort_trial",NA,"free-sort","146","1268657","0.0-3.0-89.0","3","2020-1-8 9:0:57","LION",NA,NA,NA,NA,NA,NA,NA,NA,"[{""cat"":17,""src"":15,""x"":77,""y"":121},{""cat"":13,""src"":14,""x"":46,""y"":497},{""cat"":33,""src"":10,""x"":68,""y"":249},{""cat"":33,""src"":8,""x"":81,""y"":2},{""cat"":17,""src"":2,""x"":44,""y"":67},{""cat"":13,""src"":18,""x"":78,""y"":195},{""cat"":13,""src"":2,""x"":59,""y"":445},{""cat"":33,""src"":18,""x"":20,""y"":320},{""cat"":17,""src"":11,""x"":59,""y"":373}]","[{""cat"":""13"",""src"":""18"",""x"":0,""y"":0},{""cat"":""17"",""src"":""2"",""x"":0,""y"":0},{""cat"":""17"",""src"":""15"",""x"":0,""y"":0},{""cat"":""13"",""src"":""14"",""x"":0,""y"":0},{""cat"":""33"",""src"":""18"",""x"":0,""y"":0},{""cat"":""33"",""src"":""8"",""x"":0,""y"":0},{""cat"":""17"",""src"":""11"",""x"":0,""y"":0},{""cat"":""13"",""src"":""2"",""x"":0,""y"":0},{""cat"":""33"",""src"":""10"",""x"":0,""y"":0}]","[{""cat"":13,""src"":18,""loc"":7},{""cat"":17,""src"":2,""loc"":1},{""cat"":17,""src"":15,""loc"":5},{""cat"":13,""src"":14,""loc"":0},{""cat"":33,""src"":18,""loc"":2},{""cat"":33,""src"":8,""loc"":4},{""cat"":17,""src"":11,""loc"":6},{""cat"":13,""src"":2,""loc"":3},{""cat"":33,""src"":10,""loc"":8}]","9","13,17,33,13,33,17,17,13,33,14,2,18,2,8,15,11,18,10,0,1,2,3,4,5,6,7,8,3,1,4,7,5,2,6,0,8",NA
"1393","sort_feedback","32","html-keyboard-response","147","1270055","0.0-3.0-90.0","3","2020-1-8 9:0:57","LION",NA,NA,NA,NA,NA,NA,NA,NA,NA,NA,NA,NA,NA,NA
"19937","setup3",NA,"animation","148","1289994","0.0-3.0-91.0","3","2020-1-8 9:0:57","LION",NA,NA,"[{""cat"":14,""src"":2,""loc"":1},{""cat"":22,""src"":19,""loc"":3},{""cat"":6,""src"":15,""loc"":6},{""cat"":6,""src"":2,""loc"":7},{""cat"":14,""src"":13,""loc"":2},{""cat"":22,""src"":12,""loc"":4},{""cat"":22,""src"":2,""loc"":5},{""cat"":14,""src"":1,""loc"":0},{""cat"":6,""src"":14,""loc"":8}]","3","1106,1103,1104,1104,1105,1102,1104,1103,1103,10003",NA,NA,NA,NA,NA,NA,NA,NA,NA
"1329","flanker_instructions","37","html-keyboard-response","149","1291328","0.0-3.0-92.0","3","2020-1-8 9:0:57","LION",NA,NA,NA,NA,NA,NA,NA,NA,NA,NA,NA,NA,NA,NA
"593","flanker_test","37","image-keyboard-response","150","1292926","0.0-3.0-93.0-0.0","3","2020-1-8 9:0:57","LION",NA,NA,NA,NA,NA,"congruent","left","TRUE",NA,NA,NA,NA,NA,NA
"667","flanker_test","39","image-keyboard-response","151","1294210","0.0-3.0-93.0-0.1","3","2020-1-8 9:0:57","LION",NA,NA,NA,NA,NA,"incongruent","right","TRUE",NA,NA,NA,NA,NA,NA
"567","flanker_test","39","image-keyboard-response","152","1295952","0.0-3.0-93.0-0.2","3","2020-1-8 9:0:57","LION",NA,NA,NA,NA,NA,"congruent","right","TRUE",NA,NA,NA,NA,NA,NA
"743","flanker_test","37","image-keyboard-response","153","1297100","0.0-3.0-93.0-0.3","3","2020-1-8 9:0:57","LION",NA,NA,NA,NA,NA,"incongruent","left","TRUE",NA,NA,NA,NA,NA,NA
"23645","sort_trial",NA,"free-sort","154","1321945","0.0-3.0-94.0","3","2020-1-8 9:0:57","LION",NA,NA,NA,NA,NA,NA,NA,NA,"[{""cat"":14,""src"":2,""x"":58,""y"":66},{""cat"":22,""src"":19,""x"":28,""y"":366},{""cat"":6,""src"":15,""x"":69,""y"":489},{""cat"":6,""src"":2,""x"":39,""y"":0},{""cat"":14,""src"":13,""x"":69,""y"":253},{""cat"":22,""src"":12,""x"":75,""y"":437},{""cat"":22,""src"":2,""x"":63,""y"":209},{""cat"":14,""src"":1,""x"":78,""y"":319},{""cat"":6,""src"":14,""x"":25,""y"":144}]","[{""cat"":""14"",""src"":""2"",""x"":0,""y"":0},{""cat"":""14"",""src"":""1"",""x"":0,""y"":0},{""cat"":""14"",""src"":""13"",""x"":0,""y"":0},{""cat"":""6"",""src"":""15"",""x"":0,""y"":0},{""cat"":""22"",""src"":""2"",""x"":0,""y"":0},{""cat"":""22"",""src"":""12"",""x"":0,""y"":0},{""cat"":""22"",""src"":""19"",""x"":0,""y"":0},{""cat"":""6"",""src"":""2"",""x"":0,""y"":0},{""cat"":""6"",""src"":""14"",""x"":0,""y"":0}]","[{""cat"":14,""src"":2,""loc"":1},{""cat"":14,""src"":1,""loc"":0},{""cat"":14,""src"":13,""loc"":2},{""cat"":6,""src"":15,""loc"":6},{""cat"":22,""src"":2,""loc"":5},{""cat"":22,""src"":12,""loc"":4},{""cat"":22,""src"":19,""loc"":3},{""cat"":6,""src"":2,""loc"":7},{""cat"":6,""src"":14,""loc"":8}]","9","14,14,14,22,22,22,6,6,6,1,2,13,19,12,2,15,2,14,0,1,2,3,4,5,6,7,8,1,0,2,6,5,4,3,7,8",NA
"1508","sort_feedback","32","html-keyboard-response","155","1323458","0.0-3.0-95.0","3","2020-1-8 9:0:57","LION",NA,NA,NA,NA,NA,NA,NA,NA,NA,NA,NA,NA,NA,NA
"19935","setup2",NA,"animation","156","1343394","0.0-3.0-96.0","3","2020-1-8 9:0:57","LION",NA,NA,"[{""cat"":13,""src"":0,""loc"":6},{""cat"":23,""src"":14,""loc"":8},{""cat"":22,""src"":2,""loc"":7},{""cat"":13,""src"":7,""loc"":2},{""cat"":22,""src"":16,""loc"":1},{""cat"":23,""src"":10,""loc"":0},{""cat"":13,""src"":6,""loc"":4},{""cat"":22,""src"":6,""loc"":3},{""cat"":23,""src"":0,""loc"":5}]","2","1104,1104,1102,1103,1103,1104,1105,1103,1103,10004",NA,NA,NA,NA,NA,NA,NA,NA,NA
"1280","flanker_instructions","37","html-keyboard-response","157","1344679","0.0-3.0-97.0","3","2020-1-8 9:0:57","LION",NA,NA,NA,NA,NA,NA,NA,NA,NA,NA,NA,NA,NA,NA
"575","flanker_test","39","image-keyboard-response","158","1346263","0.0-3.0-98.0-0.0","3","2020-1-8 9:0:57","LION",NA,NA,NA,NA,NA,"congruent","right","TRUE",NA,NA,NA,NA,NA,NA
"721","flanker_test","39","image-keyboard-response","159","1347500","0.0-3.0-98.0-0.1","3","2020-1-8 9:0:57","LION",NA,NA,NA,NA,NA,"incongruent","right","TRUE",NA,NA,NA,NA,NA,NA
"601","flanker_test","37","image-keyboard-response","160","1349292","0.0-3.0-98.0-0.2","3","2020-1-8 9:0:57","LION",NA,NA,NA,NA,NA,"congruent","left","TRUE",NA,NA,NA,NA,NA,NA
"845","flanker_test","37","image-keyboard-response","161","1350833","0.0-3.0-98.0-0.3","3","2020-1-8 9:0:57","LION",NA,NA,NA,NA,NA,"incongruent","left","TRUE",NA,NA,NA,NA,NA,NA
"29013","sort_trial",NA,"free-sort","162","1381006","0.0-3.0-99.0","3","2020-1-8 9:0:57","LION",NA,NA,NA,NA,NA,NA,NA,NA,"[{""cat"":13,""src"":0,""x"":51,""y"":194},{""cat"":23,""src"":14,""x"":56,""y"":432},{""cat"":22,""src"":2,""x"":50,""y"":11},{""cat"":13,""src"":7,""x"":13,""y"":489},{""cat"":22,""src"":16,""x"":53,""y"":378},{""cat"":23,""src"":10,""x"":33,""y"":84},{""cat"":13,""src"":6,""x"":8,""y"":260},{""cat"":22,""src"":6,""x"":80,""y"":144},{""cat"":23,""src"":0,""x"":77,""y"":301}]","[{""cat"":""22"",""src"":""16"",""x"":0,""y"":0},{""cat"":""23"",""src"":""10"",""x"":0,""y"":0},{""cat"":""13"",""src"":""0"",""x"":0,""y"":0},{""cat"":""13"",""src"":""7"",""x"":0,""y"":0},{""cat"":""23"",""src"":""14"",""x"":0,""y"":0},{""cat"":""13"",""src"":""6"",""x"":0,""y"":0},{""cat"":""22"",""src"":""2"",""x"":0,""y"":0},{""cat"":""23"",""src"":""0"",""x"":0,""y"":0},{""cat"":""22"",""src"":""6"",""x"":0,""y"":0}]","[{""cat"":22,""src"":16,""loc"":1},{""cat"":23,""src"":10,""loc"":0},{""cat"":13,""src"":0,""loc"":6},{""cat"":13,""src"":7,""loc"":2},{""cat"":23,""src"":14,""loc"":8},{""cat"":13,""src"":6,""loc"":7},{""cat"":22,""src"":2,""loc"":5},{""cat"":23,""src"":0,""loc"":4},{""cat"":22,""src"":6,""loc"":3}]","6","23,22,13,22,23,22,13,13,23,10,16,7,6,0,2,0,6,14,0,1,2,3,4,5,6,7,8,1,0,3,8,7,6,2,5,4",NA
"3113","sort_feedback","32","html-keyboard-response","163","1384123","0.0-3.0-100.0","3","2020-1-8 9:0:57","LION",NA,NA,NA,NA,NA,NA,NA,NA,NA,NA,NA,NA,NA,NA
NA,"breakStart",NA,"html-keyboard-response","164","1414126","0.0-4.0-0.0","3","2020-1-8 9:0:57","LION",NA,NA,NA,NA,NA,NA,NA,NA,NA,NA,NA,NA,NA,NA
"3008","breakEnd",NA,"html-button-response","165","1417138","0.0-4.0-1.0","3","2020-1-8 9:0:57","LION","0",NA,NA,NA,NA,NA,NA,NA,NA,NA,NA,NA,NA,NA
"19938","setup4",NA,"animation","166","1437079","0.0-5.0-0.0","3","2020-1-8 9:0:57","LION",NA,NA,"[{""cat"":29,""src"":6,""loc"":8},{""cat"":29,""src"":15,""loc"":4},{""cat"":29,""src"":16,""loc"":1},{""cat"":12,""src"":18,""loc"":0},{""cat"":12,""src"":10,""loc"":3},{""cat"":12,""src"":11,""loc"":6},{""cat"":11,""src"":11,""loc"":5},{""cat"":11,""src"":16,""loc"":2},{""cat"":11,""src"":12,""loc"":7}]","4","1104,1103,1103,1104,1104,1104,1105,1103,1105,10002",NA,NA,NA,NA,NA,NA,NA,NA,NA
"893","flanker_instructions","37","html-keyboard-response","167","1437976","0.0-5.0-1.0","3","2020-1-8 9:0:57","LION",NA,NA,NA,NA,NA,NA,NA,NA,NA,NA,NA,NA,NA,NA
"762","flanker_test","39","image-keyboard-response","168","1439743","0.0-5.0-2.0-0.0","3","2020-1-8 9:0:57","LION",NA,NA,NA,NA,NA,"incongruent","right","TRUE",NA,NA,NA,NA,NA,NA
"568","flanker_test","39","image-keyboard-response","169","1440926","0.0-5.0-2.0-0.1","3","2020-1-8 9:0:57","LION",NA,NA,NA,NA,NA,"congruent","right","TRUE",NA,NA,NA,NA,NA,NA
"487","flanker_test","37","image-keyboard-response","170","1442379","0.0-5.0-2.0-0.2","3","2020-1-8 9:0:57","LION",NA,NA,NA,NA,NA,"congruent","left","TRUE",NA,NA,NA,NA,NA,NA
"828","flanker_test","37","image-keyboard-response","171","1444301","0.0-5.0-2.0-0.3","3","2020-1-8 9:0:57","LION",NA,NA,NA,NA,NA,"incongruent","left","TRUE",NA,NA,NA,NA,NA,NA
"28378","sort_trial",NA,"free-sort","172","1473159","0.0-5.0-3.0","3","2020-1-8 9:0:57","LION",NA,NA,NA,NA,NA,NA,NA,NA,"[{""cat"":29,""src"":6,""x"":4,""y"":266},{""cat"":29,""src"":15,""x"":73,""y"":481},{""cat"":29,""src"":16,""x"":75,""y"":180},{""cat"":12,""src"":18,""x"":52,""y"":320},{""cat"":12,""src"":10,""x"":83,""y"":130},{""cat"":12,""src"":11,""x"":61,""y"":443},{""cat"":11,""src"":11,""x"":82,""y"":10},{""cat"":11,""src"":16,""x"":68,""y"":84},{""cat"":11,""src"":12,""x"":2,""y"":368}]","[{""cat"":""11"",""src"":""11"",""x"":0,""y"":0},{""cat"":""29"",""src"":""16"",""x"":0,""y"":0},{""cat"":""12"",""src"":""18"",""x"":0,""y"":0},{""cat"":""11"",""src"":""16"",""x"":0,""y"":0},{""cat"":""12"",""src"":""11"",""x"":0,""y"":0},{""cat"":""29"",""src"":""6"",""x"":0,""y"":0},{""cat"":""12"",""src"":""10"",""x"":0,""y"":0},{""cat"":""29"",""src"":""15"",""x"":0,""y"":0},{""cat"":""11"",""src"":""12"",""x"":0,""y"":0}]","[{""cat"":11,""src"":11,""loc"":5},{""cat"":29,""src"":16,""loc"":1},{""cat"":12,""src"":18,""loc"":0},{""cat"":11,""src"":16,""loc"":2},{""cat"":12,""src"":11,""loc"":6},{""cat"":29,""src"":6,""loc"":8},{""cat"":12,""src"":10,""loc"":3},{""cat"":29,""src"":15,""loc"":4},{""cat"":11,""src"":12,""loc"":7}]","9","12,29,11,12,29,11,12,11,29,18,16,16,10,15,11,11,12,6,0,1,2,3,4,5,6,7,8,2,1,3,6,7,0,4,8,5",NA
"1470","sort_feedback","32","html-keyboard-response","173","1474634","0.0-5.0-4.0","3","2020-1-8 9:0:57","LION",NA,NA,NA,NA,NA,NA,NA,NA,NA,NA,NA,NA,NA,NA
"19938","setup3",NA,"animation","174","1494574","0.0-5.0-5.0","3","2020-1-8 9:0:57","LION",NA,NA,"[{""cat"":11,""src"":2,""loc"":4},{""cat"":21,""src"":17,""loc"":1},{""cat"":24,""src"":13,""loc"":7},{""cat"":24,""src"":15,""loc"":6},{""cat"":11,""src"":11,""loc"":5},{""cat"":21,""src"":7,""loc"":0},{""cat"":21,""src"":19,""loc"":2},{""cat"":24,""src"":7,""loc"":8},{""cat"":11,""src"":0,""loc"":3}]","3","1104,1102,1103,1105,1103,1104,1104,1104,1105,10003",NA,NA,NA,NA,NA,NA,NA,NA,NA
"1939","flanker_instructions","37","html-keyboard-response","175","1496517","0.0-5.0-6.0","3","2020-1-8 9:0:57","LION",NA,NA,NA,NA,NA,NA,NA,NA,NA,NA,NA,NA,NA,NA
"603","flanker_test","39","image-keyboard-response","176","1498126","0.0-5.0-7.0-0.0","3","2020-1-8 9:0:57","LION",NA,NA,NA,NA,NA,"congruent","right","TRUE",NA,NA,NA,NA,NA,NA
"580","flanker_test","37","image-keyboard-response","177","1499720","0.0-5.0-7.0-0.1","3","2020-1-8 9:0:57","LION",NA,NA,NA,NA,NA,"congruent","left","TRUE",NA,NA,NA,NA,NA,NA
"758","flanker_test","37","image-keyboard-response","178","1501115","0.0-5.0-7.0-0.2","3","2020-1-8 9:0:57","LION",NA,NA,NA,NA,NA,"incongruent","left","TRUE",NA,NA,NA,NA,NA,NA
"785","flanker_test","39","image-keyboard-response","179","1502657","0.0-5.0-7.0-0.3","3","2020-1-8 9:0:57","LION",NA,NA,NA,NA,NA,"incongruent","right","TRUE",NA,NA,NA,NA,NA,NA
"22887","sort_trial",NA,"free-sort","180","1526503","0.0-5.0-8.0","3","2020-1-8 9:0:57","LION",NA,NA,NA,NA,NA,NA,NA,NA,"[{""cat"":11,""src"":2,""x"":74,""y"":497},{""cat"":21,""src"":17,""x"":60,""y"":26},{""cat"":24,""src"":13,""x"":23,""y"":323},{""cat"":24,""src"":15,""x"":63,""y"":193},{""cat"":11,""src"":11,""x"":17,""y"":81},{""cat"":21,""src"":7,""x"":70,""y"":149},{""cat"":21,""src"":19,""x"":70,""y"":260},{""cat"":24,""src"":7,""x"":59,""y"":430},{""cat"":11,""src"":0,""x"":24,""y"":364}]","[{""cat"":""21"",""src"":""17"",""x"":0,""y"":0},{""cat"":""21"",""src"":""7"",""x"":0,""y"":0},{""cat"":""21"",""src"":""19"",""x"":0,""y"":0},{""cat"":""24"",""src"":""15"",""x"":0,""y"":0},{""cat"":""24"",""src"":""7"",""x"":0,""y"":0},{""cat"":""11"",""src"":""0"",""x"":0,""y"":0},{""cat"":""11"",""src"":""2"",""x"":0,""y"":0},{""cat"":""11"",""src"":""11"",""x"":0,""y"":0},{""cat"":""24"",""src"":""13"",""x"":0,""y"":0}]","[{""cat"":21,""src"":17,""loc"":1},{""cat"":21,""src"":7,""loc"":0},{""cat"":21,""src"":19,""loc"":2},{""cat"":24,""src"":15,""loc"":6},{""cat"":24,""src"":7,""loc"":8},{""cat"":11,""src"":0,""loc"":3},{""cat"":11,""src"":2,""loc"":5},{""cat"":11,""src"":11,""loc"":4},{""cat"":24,""src"":13,""loc"":7}]","7","21,21,21,11,11,11,24,24,24,7,17,19,0,11,2,15,13,7,0,1,2,3,4,5,6,7,8,1,0,2,5,7,6,3,8,4",NA
"2129","sort_feedback","32","html-keyboard-response","181","1528638","0.0-5.0-9.0","3","2020-1-8 9:0:57","LION",NA,NA,NA,NA,NA,NA,NA,NA,NA,NA,NA,NA,NA,NA
"19940","setup1",NA,"animation","182","1548579","0.0-5.0-10.0","3","2020-1-8 9:0:57","LION",NA,NA,"[{""cat"":14,""src"":0,""loc"":4},{""cat"":14,""src"":3,""loc"":5},{""cat"":14,""src"":10,""loc"":3},{""cat"":10,""src"":8,""loc"":1},{""cat"":10,""src"":18,""loc"":2},{""cat"":10,""src"":16,""loc"":0},{""cat"":21,""src"":1,""loc"":6},{""cat"":21,""src"":18,""loc"":7},{""cat"":21,""src"":6,""loc"":8}]","1","1105,1103,1104,1103,1104,1104,1104,1105,1104,10004",NA,NA,NA,NA,NA,NA,NA,NA,NA
"1343","flanker_instructions","37","html-keyboard-response","183","1549926","0.0-5.0-11.0","3","2020-1-8 9:0:57","LION",NA,NA,NA,NA,NA,NA,NA,NA,NA,NA,NA,NA,NA,NA
"901","flanker_test","37","image-keyboard-response","184","1551832","0.0-5.0-12.0-0.0","3","2020-1-8 9:0:57","LION",NA,NA,NA,NA,NA,"incongruent","left","TRUE",NA,NA,NA,NA,NA,NA
"749","flanker_test","39","image-keyboard-response","185","1553602","0.0-5.0-12.0-0.1","3","2020-1-8 9:0:57","LION",NA,NA,NA,NA,NA,"incongruent","right","TRUE",NA,NA,NA,NA,NA,NA
"649","flanker_test","39","image-keyboard-response","186","1555209","0.0-5.0-12.0-0.2","3","2020-1-8 9:0:57","LION",NA,NA,NA,NA,NA,"congruent","right","TRUE",NA,NA,NA,NA,NA,NA
"569","flanker_test","37","image-keyboard-response","187","1556265","0.0-5.0-12.0-0.3","3","2020-1-8 9:0:57","LION",NA,NA,NA,NA,NA,"congruent","left","TRUE",NA,NA,NA,NA,NA,NA
"23102","sort_trial",NA,"free-sort","188","1579970","0.0-5.0-13.0","3","2020-1-8 9:0:57","LION",NA,NA,NA,NA,NA,NA,NA,NA,"[{""cat"":14,""src"":0,""x"":63,""y"":428},{""cat"":14,""src"":3,""x"":9,""y"":359},{""cat"":14,""src"":10,""x"":17,""y"":303},{""cat"":10,""src"":8,""x"":64,""y"":78},{""cat"":10,""src"":18,""x"":64,""y"":192},{""cat"":10,""src"":16,""x"":15,""y"":147},{""cat"":21,""src"":1,""x"":18,""y"":255},{""cat"":21,""src"":18,""x"":4,""y"":11},{""cat"":21,""src"":6,""x"":61,""y"":487}]","[{""cat"":""10"",""src"":""8"",""x"":0,""y"":0},{""cat"":""10"",""src"":""16"",""x"":0,""y"":0},{""cat"":""10"",""src"":""18"",""x"":0,""y"":0},{""cat"":""21"",""src"":""1"",""x"":0,""y"":0},{""cat"":""14"",""src"":""3"",""x"":0,""y"":0},{""cat"":""21"",""src"":""6"",""x"":0,""y"":0},{""cat"":""14"",""src"":""0"",""x"":0,""y"":0},{""cat"":""21"",""src"":""18"",""x"":0,""y"":0},{""cat"":""14"",""src"":""10"",""x"":0,""y"":0}]","[{""cat"":10,""src"":8,""loc"":1},{""cat"":10,""src"":16,""loc"":0},{""cat"":10,""src"":18,""loc"":2},{""cat"":21,""src"":1,""loc"":6},{""cat"":14,""src"":3,""loc"":5},{""cat"":21,""src"":6,""loc"":8},{""cat"":14,""src"":0,""loc"":4},{""cat"":21,""src"":18,""loc"":7},{""cat"":14,""src"":10,""loc"":3}]","9","10,10,10,14,14,14,21,21,21,16,8,18,10,0,3,1,18,6,0,1,2,3,4,5,6,7,8,1,0,2,8,6,4,3,7,5",NA
"1813","sort_feedback","32","html-keyboard-response","189","1581787","0.0-5.0-14.0","3","2020-1-8 9:0:57","LION",NA,NA,NA,NA,NA,NA,NA,NA,NA,NA,NA,NA,NA,NA
"19943","setup2",NA,"animation","190","1601731","0.0-5.0-15.0","3","2020-1-8 9:0:57","LION",NA,NA,"[{""cat"":24,""src"":4,""loc"":4},{""cat"":3,""src"":5,""loc"":5},{""cat"":16,""src"":11,""loc"":3},{""cat"":24,""src"":13,""loc"":1},{""cat"":16,""src"":10,""loc"":0},{""cat"":3,""src"":6,""loc"":2},{""cat"":24,""src"":2,""loc"":8},{""cat"":3,""src"":14,""loc"":7},{""cat"":16,""src"":9,""loc"":6}]","2","1106,1103,1104,1104,1103,1104,1104,1109,1104,10001",NA,NA,NA,NA,NA,NA,NA,NA,NA
"2453","flanker_instructions","37","html-keyboard-response","191","1604188","0.0-5.0-16.0","3","2020-1-8 9:0:57","LION",NA,NA,NA,NA,NA,NA,NA,NA,NA,NA,NA,NA,NA,NA
"668","flanker_test","39","image-keyboard-response","192","1605859","0.0-5.0-17.0-0.0","3","2020-1-8 9:0:57","LION",NA,NA,NA,NA,NA,"congruent","right","TRUE",NA,NA,NA,NA,NA,NA
"825","flanker_test","37","image-keyboard-response","193","1607256","0.0-5.0-17.0-0.1","3","2020-1-8 9:0:57","LION",NA,NA,NA,NA,NA,"incongruent","left","TRUE",NA,NA,NA,NA,NA,NA
"660","flanker_test","39","image-keyboard-response","194","1608410","0.0-5.0-17.0-0.2","3","2020-1-8 9:0:57","LION",NA,NA,NA,NA,NA,"incongruent","right","TRUE",NA,NA,NA,NA,NA,NA
"543","flanker_test","37","image-keyboard-response","195","1609983","0.0-5.0-17.0-0.3","3","2020-1-8 9:0:57","LION",NA,NA,NA,NA,NA,"congruent","left","TRUE",NA,NA,NA,NA,NA,NA
"31292","sort_trial",NA,"free-sort","196","1641863","0.0-5.0-18.0","3","2020-1-8 9:0:57","LION",NA,NA,NA,NA,NA,NA,NA,NA,"[{""cat"":24,""src"":4,""x"":51,""y"":197},{""cat"":3,""src"":5,""x"":60,""y"":131},{""cat"":16,""src"":11,""x"":7,""y"":306},{""cat"":24,""src"":13,""x"":41,""y"":360},{""cat"":16,""src"":10,""x"":15,""y"":423},{""cat"":3,""src"":6,""x"":76,""y"":266},{""cat"":24,""src"":2,""x"":40,""y"":3},{""cat"":3,""src"":14,""x"":27,""y"":495},{""cat"":16,""src"":9,""x"":62,""y"":82}]","[{""cat"":""24"",""src"":""13"",""x"":0,""y"":0},{""cat"":""16"",""src"":""10"",""x"":0,""y"":0},{""cat"":""3"",""src"":""6"",""x"":0,""y"":0},{""cat"":""16"",""src"":""9"",""x"":0,""y"":0},{""cat"":""3"",""src"":""14"",""x"":0,""y"":0},{""cat"":""24"",""src"":""4"",""x"":0,""y"":0},{""cat"":""16"",""src"":""11"",""x"":0,""y"":0},{""cat"":""24"",""src"":""2"",""x"":0,""y"":0},{""cat"":""3"",""src"":""5"",""x"":0,""y"":0}]","[{""cat"":24,""src"":13,""loc"":1},{""cat"":16,""src"":10,""loc"":0},{""cat"":3,""src"":6,""loc"":2},{""cat"":16,""src"":9,""loc"":6},{""cat"":3,""src"":14,""loc"":7},{""cat"":24,""src"":4,""loc"":5},{""cat"":16,""src"":11,""loc"":8},{""cat"":24,""src"":2,""loc"":3},{""cat"":3,""src"":5,""loc"":4}]","5","16,24,3,24,3,24,16,3,16,10,13,6,2,5,4,9,14,11,0,1,2,3,4,5,6,7,8,1,0,2,7,8,5,3,4,6",NA
"2388","sort_feedback","32","html-keyboard-response","197","1644257","0.0-5.0-19.0","3","2020-1-8 9:0:57","LION",NA,NA,NA,NA,NA,NA,NA,NA,NA,NA,NA,NA,NA,NA
"19939","setup5",NA,"animation","198","1664197","0.0-5.0-20.0","3","2020-1-8 9:0:57","LION",NA,NA,"[{""cat"":20,""src"":3,""loc"":0},{""cat"":33,""src"":5,""loc"":8},{""cat"":19,""src"":10,""loc"":4},{""cat"":33,""src"":11,""loc"":2},{""cat"":19,""src"":7,""loc"":7},{""cat"":20,""src"":13,""loc"":3},{""cat"":33,""src"":9,""loc"":5},{""cat"":20,""src"":8,""loc"":6},{""cat"":19,""src"":12,""loc"":1}]","5","1107,1103,1102,1104,1104,1103,1103,1104,1104,10005",NA,NA,NA,NA,NA,NA,NA,NA,NA
"1384","flanker_instructions","37","html-keyboard-response","199","1665585","0.0-5.0-21.0","3","2020-1-8 9:0:57","LION",NA,NA,NA,NA,NA,NA,NA,NA,NA,NA,NA,NA,NA,NA
NA,"flanker_test",NA,"image-keyboard-response","200","1667491","0.0-5.0-22.0-0.0","3","2020-1-8 9:0:57","LION",NA,NA,NA,NA,NA,"incongruent","left","FALSE",NA,NA,NA,NA,NA,NA
"615","flanker_test","37","image-keyboard-response","201","1669107","0.0-5.0-22.0-0.1","3","2020-1-8 9:0:57","LION",NA,NA,NA,NA,NA,"congruent","left","TRUE",NA,NA,NA,NA,NA,NA
"577","flanker_test","39","image-keyboard-response","202","1670045","0.0-5.0-22.0-0.2","3","2020-1-8 9:0:57","LION",NA,NA,NA,NA,NA,"congruent","right","TRUE",NA,NA,NA,NA,NA,NA
"634","flanker_test","39","image-keyboard-response","203","1671357","0.0-5.0-22.0-0.3","3","2020-1-8 9:0:57","LION",NA,NA,NA,NA,NA,"incongruent","right","TRUE",NA,NA,NA,NA,NA,NA
"36740","sort_trial",NA,"free-sort","204","1708880","0.0-5.0-23.0","3","2020-1-8 9:0:57","LION",NA,NA,NA,NA,NA,NA,NA,NA,"[{""cat"":20,""src"":3,""x"":20,""y"":483},{""cat"":33,""src"":5,""x"":14,""y"":380},{""cat"":19,""src"":10,""x"":41,""y"":60},{""cat"":33,""src"":11,""x"":81,""y"":136},{""cat"":19,""src"":7,""x"":48,""y"":260},{""cat"":20,""src"":13,""x"":5,""y"":183},{""cat"":33,""src"":9,""x"":28,""y"":299},{""cat"":20,""src"":8,""x"":80,""y"":0},{""cat"":19,""src"":12,""x"":66,""y"":441}]","[{""cat"":""19"",""src"":""12"",""x"":0,""y"":0},{""cat"":""33"",""src"":""5"",""x"":0,""y"":0},{""cat"":""33"",""src"":""11"",""x"":0,""y"":0},{""cat"":""20"",""src"":""8"",""x"":0,""y"":0},{""cat"":""20"",""src"":""3"",""x"":0,""y"":0},{""cat"":""33"",""src"":""9"",""x"":0,""y"":0},{""cat"":""19"",""src"":""7"",""x"":0,""y"":0},{""cat"":""20"",""src"":""13"",""x"":0,""y"":0},{""cat"":""19"",""src"":""10"",""x"":0,""y"":0}]","[{""cat"":19,""src"":12,""loc"":1},{""cat"":33,""src"":5,""loc"":8},{""cat"":33,""src"":11,""loc"":2},{""cat"":20,""src"":8,""loc"":6},{""cat"":20,""src"":3,""loc"":0},{""cat"":33,""src"":9,""loc"":4},{""cat"":19,""src"":7,""loc"":7},{""cat"":20,""src"":13,""loc"":5},{""cat"":19,""src"":10,""loc"":3}]","6","20,19,33,19,33,20,20,19,33,3,12,11,10,9,13,8,7,5,0,1,2,3,4,5,6,7,8,4,0,2,8,5,7,3,6,1",NA
"1887","sort_feedback","32","html-keyboard-response","205","1710772","0.0-5.0-24.0","3","2020-1-8 9:0:57","LION",NA,NA,NA,NA,NA,NA,NA,NA,NA,NA,NA,NA,NA,NA
"19939","setup1",NA,"animation","206","1730713","0.0-5.0-25.0","3","2020-1-8 9:0:57","LION",NA,NA,"[{""cat"":13,""src"":12,""loc"":3},{""cat"":13,""src"":6,""loc"":4},{""cat"":13,""src"":17,""loc"":5},{""cat"":14,""src"":10,""loc"":6},{""cat"":14,""src"":1,""loc"":7},{""cat"":14,""src"":8,""loc"":8},{""cat"":23,""src"":12,""loc"":1},{""cat"":23,""src"":8,""loc"":0},{""cat"":23,""src"":13,""loc"":2}]","1","1105,1103,1104,1103,1104,1105,1104,1103,1106,10002",NA,NA,NA,NA,NA,NA,NA,NA,NA
"706","flanker_instructions","37","html-keyboard-response","207","1731422","0.0-5.0-26.0","3","2020-1-8 9:0:57","LION",NA,NA,NA,NA,NA,NA,NA,NA,NA,NA,NA,NA,NA,NA
"772","flanker_test","37","image-keyboard-response","208","1733198","0.0-5.0-27.0-0.0","3","2020-1-8 9:0:57","LION",NA,NA,NA,NA,NA,"incongruent","left","TRUE",NA,NA,NA,NA,NA,NA
"682","flanker_test","39","image-keyboard-response","209","1734844","0.0-5.0-27.0-0.1","3","2020-1-8 9:0:57","LION",NA,NA,NA,NA,NA,"incongruent","right","TRUE",NA,NA,NA,NA,NA,NA
"622","flanker_test","37","image-keyboard-response","210","1736310","0.0-5.0-27.0-0.2","3","2020-1-8 9:0:57","LION",NA,NA,NA,NA,NA,"congruent","left","TRUE",NA,NA,NA,NA,NA,NA
"604","flanker_test","39","image-keyboard-response","211","1737219","0.0-5.0-27.0-0.3","3","2020-1-8 9:0:57","LION",NA,NA,NA,NA,NA,"congruent","right","TRUE",NA,NA,NA,NA,NA,NA
"25565","sort_trial",NA,"free-sort","212","1763941","0.0-5.0-28.0","3","2020-1-8 9:0:57","LION",NA,NA,NA,NA,NA,NA,NA,NA,"[{""cat"":13,""src"":12,""x"":57,""y"":372},{""cat"":13,""src"":6,""x"":43,""y"":127},{""cat"":13,""src"":17,""x"":28,""y"":27},{""cat"":14,""src"":10,""x"":50,""y"":425},{""cat"":14,""src"":1,""x"":74,""y"":75},{""cat"":14,""src"":8,""x"":21,""y"":321},{""cat"":23,""src"":12,""x"":3,""y"":481},{""cat"":23,""src"":8,""x"":6,""y"":249},{""cat"":23,""src"":13,""x"":68,""y"":209}]","[{""cat"":""23"",""src"":""12"",""x"":0,""y"":0},{""cat"":""23"",""src"":""8"",""x"":0,""y"":0},{""cat"":""23"",""src"":""13"",""x"":0,""y"":0},{""cat"":""14"",""src"":""10"",""x"":0,""y"":0},{""cat"":""14"",""src"":""8"",""x"":0,""y"":0},{""cat"":""13"",""src"":""17"",""x"":0,""y"":0},{""cat"":""13"",""src"":""12"",""x"":0,""y"":0},{""cat"":""13"",""src"":""6"",""x"":0,""y"":0},{""cat"":""14"",""src"":""1"",""x"":0,""y"":0}]","[{""cat"":23,""src"":12,""loc"":1},{""cat"":23,""src"":8,""loc"":0},{""cat"":23,""src"":13,""loc"":2},{""cat"":14,""src"":10,""loc"":6},{""cat"":14,""src"":8,""loc"":8},{""cat"":13,""src"":17,""loc"":5},{""cat"":13,""src"":12,""loc"":3},{""cat"":13,""src"":6,""loc"":4},{""cat"":14,""src"":1,""loc"":7}]","9","23,23,23,13,13,13,14,14,14,8,12,13,12,6,17,10,1,8,0,1,2,3,4,5,6,7,8,1,0,2,6,7,5,3,8,4",NA
"1414","sort_feedback","32","html-keyboard-response","213","1765359","0.0-5.0-29.0","3","2020-1-8 9:0:57","LION",NA,NA,NA,NA,NA,NA,NA,NA,NA,NA,NA,NA,NA,NA
"19938","setup3",NA,"animation","214","1785299","0.0-5.0-30.0","3","2020-1-8 9:0:57","LION",NA,NA,"[{""cat"":22,""src"":8,""loc"":8},{""cat"":1,""src"":1,""loc"":4},{""cat"":6,""src"":5,""loc"":2},{""cat"":6,""src"":0,""loc"":1},{""cat"":22,""src"":18,""loc"":7},{""cat"":1,""src"":3,""loc"":5},{""cat"":22,""src"":19,""loc"":6},{""cat"":6,""src"":9,""loc"":0},{""cat"":1,""src"":17,""loc"":3}]","3","1106,1103,1102,1102,1103,1103,1106,1107,1105,10001",NA,NA,NA,NA,NA,NA,NA,NA,NA
"743","flanker_instructions","37","html-keyboard-response","215","1786045","0.0-5.0-31.0","3","2020-1-8 9:0:57","LION",NA,NA,NA,NA,NA,NA,NA,NA,NA,NA,NA,NA,NA,NA
"607","flanker_test","39","image-keyboard-response","216","1787659","0.0-5.0-32.0-0.0","3","2020-1-8 9:0:57","LION",NA,NA,NA,NA,NA,"congruent","right","TRUE",NA,NA,NA,NA,NA,NA
"677","flanker_test","37","image-keyboard-response","217","1789148","0.0-5.0-32.0-0.1","3","2020-1-8 9:0:57","LION",NA,NA,NA,NA,NA,"incongruent","left","TRUE",NA,NA,NA,NA,NA,NA
"765","flanker_test","37","image-keyboard-response","218","1790611","0.0-5.0-32.0-0.2","3","2020-1-8 9:0:57","LION",NA,NA,NA,NA,NA,"congruent","left","TRUE",NA,NA,NA,NA,NA,NA
"727","flanker_test","39","image-keyboard-response","219","1792473","0.0-5.0-32.0-0.3","3","2020-1-8 9:0:57","LION",NA,NA,NA,NA,NA,"incongruent","right","TRUE",NA,NA,NA,NA,NA,NA
"24929","sort_trial",NA,"free-sort","220","1818208","0.0-5.0-33.0","3","2020-1-8 9:0:57","LION",NA,NA,NA,NA,NA,NA,NA,NA,"[{""cat"":22,""src"":8,""x"":26,""y"":441},{""cat"":1,""src"":1,""x"":35,""y"":310},{""cat"":6,""src"":5,""x"":17,""y"":379},{""cat"":6,""src"":0,""x"":61,""y"":143},{""cat"":22,""src"":18,""x"":61,""y"":480},{""cat"":1,""src"":3,""x"":69,""y"":195},{""cat"":22,""src"":19,""x"":58,""y"":10},{""cat"":6,""src"":9,""x"":38,""y"":256},{""cat"":1,""src"":17,""x"":31,""y"":68}]","[{""cat"":""6"",""src"":""0"",""x"":0,""y"":0},{""cat"":""6"",""src"":""9"",""x"":0,""y"":0},{""cat"":""6"",""src"":""5"",""x"":0,""y"":0},{""cat"":""22"",""src"":""19"",""x"":0,""y"":0},{""cat"":""22"",""src"":""8"",""x"":0,""y"":0},{""cat"":""1"",""src"":""3"",""x"":0,""y"":0},{""cat"":""1"",""src"":""17"",""x"":0,""y"":0},{""cat"":""1"",""src"":""1"",""x"":0,""y"":0},{""cat"":""22"",""src"":""18"",""x"":0,""y"":0}]","[{""cat"":6,""src"":0,""loc"":1},{""cat"":6,""src"":9,""loc"":0},{""cat"":6,""src"":5,""loc"":2},{""cat"":22,""src"":19,""loc"":6},{""cat"":22,""src"":8,""loc"":8},{""cat"":1,""src"":3,""loc"":5},{""cat"":1,""src"":17,""loc"":3},{""cat"":1,""src"":1,""loc"":4},{""cat"":22,""src"":18,""loc"":7}]","9","6,6,6,1,1,1,22,22,22,9,0,5,17,1,3,19,18,8,0,1,2,3,4,5,6,7,8,1,0,2,6,7,5,3,8,4",NA
"1954","sort_feedback","32","html-keyboard-response","221","1820167","0.0-5.0-34.0","3","2020-1-8 9:0:57","LION",NA,NA,NA,NA,NA,NA,NA,NA,NA,NA,NA,NA,NA,NA
"19954","setup4",NA,"animation","222","1840123","0.0-5.0-35.0","3","2020-1-8 9:0:57","LION",NA,NA,"[{""cat"":27,""src"":8,""loc"":7},{""cat"":27,""src"":18,""loc"":5},{""cat"":27,""src"":12,""loc"":2},{""cat"":13,""src"":5,""loc"":6},{""cat"":13,""src"":4,""loc"":1},{""cat"":13,""src"":18,""loc"":3},{""cat"":32,""src"":14,""loc"":8},{""cat"":32,""src"":7,""loc"":4},{""cat"":32,""src"":18,""loc"":0}]","4","1120,1103,1104,1104,1104,1104,1103,1103,1105,10004",NA,NA,NA,NA,NA,NA,NA,NA,NA
"1032","flanker_instructions","37","html-keyboard-response","223","1841159","0.0-5.0-36.0","3","2020-1-8 9:0:57","LION",NA,NA,NA,NA,NA,NA,NA,NA,NA,NA,NA,NA,NA,NA
NA,"flanker_test",NA,"image-keyboard-response","224","1843067","0.0-5.0-37.0-0.0","3","2020-1-8 9:0:57","LION",NA,NA,NA,NA,NA,"incongruent","left","FALSE",NA,NA,NA,NA,NA,NA
"617","flanker_test","37","image-keyboard-response","225","1844810","0.0-5.0-37.0-0.1","3","2020-1-8 9:0:57","LION",NA,NA,NA,NA,NA,"congruent","left","TRUE",NA,NA,NA,NA,NA,NA
"591","flanker_test","39","image-keyboard-response","226","1846515","0.0-5.0-37.0-0.2","3","2020-1-8 9:0:57","LION",NA,NA,NA,NA,NA,"incongruent","right","TRUE",NA,NA,NA,NA,NA,NA
"546","flanker_test","39","image-keyboard-response","227","1847882","0.0-5.0-37.0-0.3","3","2020-1-8 9:0:57","LION",NA,NA,NA,NA,NA,"congruent","right","TRUE",NA,NA,NA,NA,NA,NA
"25037","sort_trial",NA,"free-sort","228","1873603","0.0-5.0-38.0","3","2020-1-8 9:0:57","LION",NA,NA,NA,NA,NA,NA,NA,NA,"[{""cat"":27,""src"":8,""x"":79,""y"":244},{""cat"":27,""src"":18,""x"":59,""y"":2},{""cat"":27,""src"":12,""x"":17,""y"":386},{""cat"":13,""src"":5,""x"":19,""y"":70},{""cat"":13,""src"":4,""x"":65,""y"":501},{""cat"":13,""src"":18,""x"":80,""y"":130},{""cat"":32,""src"":14,""x"":64,""y"":198},{""cat"":32,""src"":7,""x"":80,""y"":423},{""cat"":32,""src"":18,""x"":78,""y"":323}]","[{""cat"":""27"",""src"":""18"",""x"":0,""y"":0},{""cat"":""13"",""src"":""5"",""x"":0,""y"":0},{""cat"":""13"",""src"":""18"",""x"":0,""y"":0},{""cat"":""32"",""src"":""14"",""x"":0,""y"":0},{""cat"":""27"",""src"":""8"",""x"":0,""y"":0},{""cat"":""13"",""src"":""4"",""x"":0,""y"":0},{""cat"":""32"",""src"":""18"",""x"":0,""y"":0},{""cat"":""27"",""src"":""12"",""x"":0,""y"":0},{""cat"":""32"",""src"":""7"",""x"":0,""y"":0}]","[{""cat"":27,""src"":18,""loc"":5},{""cat"":13,""src"":5,""loc"":6},{""cat"":13,""src"":18,""loc"":3},{""cat"":32,""src"":14,""loc"":8},{""cat"":27,""src"":8,""loc"":7},{""cat"":13,""src"":4,""loc"":1},{""cat"":32,""src"":18,""loc"":0},{""cat"":27,""src"":12,""loc"":2},{""cat"":32,""src"":7,""loc"":4}]","9","32,13,27,13,32,27,13,27,32,18,4,12,18,7,18,5,8,14,0,1,2,3,4,5,6,7,8,6,5,7,2,8,0,1,4,3",NA
"1513","sort_feedback","32","html-keyboard-response","229","1875121","0.0-5.0-39.0","3","2020-1-8 9:0:57","LION",NA,NA,NA,NA,NA,NA,NA,NA,NA,NA,NA,NA,NA,NA
"19940","setup5",NA,"animation","230","1895063","0.0-5.0-40.0","3","2020-1-8 9:0:57","LION",NA,NA,"[{""cat"":5,""src"":19,""loc"":8},{""cat"":7,""src"":11,""loc"":0},{""cat"":25,""src"":10,""loc"":4},{""cat"":25,""src"":2,""loc"":1},{""cat"":5,""src"":7,""loc"":5},{""cat"":7,""src"":17,""loc"":6},{""cat"":25,""src"":12,""loc"":7},{""cat"":5,""src"":12,""loc"":2},{""cat"":7,""src"":19,""loc"":3}]","5","1106,1103,1103,1105,1104,1102,1105,1103,1104,10005",NA,NA,NA,NA,NA,NA,NA,NA,NA
"738","flanker_instructions","37","html-keyboard-response","231","1895806","0.0-5.0-41.0","3","2020-1-8 9:0:57","LION",NA,NA,NA,NA,NA,NA,NA,NA,NA,NA,NA,NA,NA,NA
"752","flanker_test","37","image-keyboard-response","232","1897562","0.0-5.0-42.0-0.0","3","2020-1-8 9:0:57","LION",NA,NA,NA,NA,NA,"incongruent","left","TRUE",NA,NA,NA,NA,NA,NA
"580","flanker_test","37","image-keyboard-response","233","1899033","0.0-5.0-42.0-0.1","3","2020-1-8 9:0:57","LION",NA,NA,NA,NA,NA,"congruent","left","TRUE",NA,NA,NA,NA,NA,NA
"692","flanker_test","39","image-keyboard-response","234","1900358","0.0-5.0-42.0-0.2","3","2020-1-8 9:0:57","LION",NA,NA,NA,NA,NA,"incongruent","right","TRUE",NA,NA,NA,NA,NA,NA
"562","flanker_test","39","image-keyboard-response","235","1901858","0.0-5.0-42.0-0.3","3","2020-1-8 9:0:57","LION",NA,NA,NA,NA,NA,"congruent","right","TRUE",NA,NA,NA,NA,NA,NA
"26475","sort_trial",NA,"free-sort","236","1929440","0.0-5.0-43.0","3","2020-1-8 9:0:57","LION",NA,NA,NA,NA,NA,NA,NA,NA,"[{""cat"":5,""src"":19,""x"":74,""y"":438},{""cat"":7,""src"":11,""x"":3,""y"":13},{""cat"":25,""src"":10,""x"":67,""y"":320},{""cat"":25,""src"":2,""x"":40,""y"":84},{""cat"":5,""src"":7,""x"":14,""y"":381},{""cat"":7,""src"":17,""x"":41,""y"":482},{""cat"":25,""src"":12,""x"":57,""y"":197},{""cat"":5,""src"":12,""x"":32,""y"":143},{""cat"":7,""src"":19,""x"":62,""y"":245}]","[{""cat"":""25"",""src"":""2"",""x"":0,""y"":0},{""cat"":""7"",""src"":""11"",""x"":0,""y"":0},{""cat"":""5"",""src"":""12"",""x"":0,""y"":0},{""cat"":""7"",""src"":""17"",""x"":0,""y"":0},{""cat"":""25"",""src"":""12"",""x"":0,""y"":0},{""cat"":""7"",""src"":""19"",""x"":0,""y"":0},{""cat"":""25"",""src"":""10"",""x"":0,""y"":0},{""cat"":""5"",""src"":""7"",""x"":0,""y"":0},{""cat"":""5"",""src"":""19"",""x"":0,""y"":0}]","[{""cat"":25,""src"":2,""loc"":1},{""cat"":7,""src"":11,""loc"":0},{""cat"":5,""src"":12,""loc"":2},{""cat"":7,""src"":17,""loc"":6},{""cat"":25,""src"":12,""loc"":7},{""cat"":7,""src"":19,""loc"":5},{""cat"":25,""src"":10,""loc"":4},{""cat"":5,""src"":7,""loc"":8},{""cat"":5,""src"":19,""loc"":3}]","6","7,25,5,5,25,7,7,25,5,11,2,12,19,10,19,17,12,7,0,1,2,3,4,5,6,7,8,1,0,2,8,6,5,3,4,7",NA
"2065","sort_feedback","32","html-keyboard-response","237","1931509","0.0-5.0-44.0","3","2020-1-8 9:0:57","LION",NA,NA,NA,NA,NA,NA,NA,NA,NA,NA,NA,NA,NA,NA
"19937","setup2",NA,"animation","238","1951448","0.0-5.0-45.0","3","2020-1-8 9:0:57","LION",NA,NA,"[{""cat"":11,""src"":1,""loc"":5},{""cat"":30,""src"":12,""loc"":3},{""cat"":10,""src"":6,""loc"":4},{""cat"":10,""src"":4,""loc"":8},{""cat"":30,""src"":13,""loc"":7},{""cat"":11,""src"":8,""loc"":6},{""cat"":11,""src"":7,""loc"":2},{""cat"":30,""src"":8,""loc"":0},{""cat"":10,""src"":14,""loc"":1}]","2","1105,1103,1103,1104,1102,1106,1105,1102,1104,10003",NA,NA,NA,NA,NA,NA,NA,NA,NA
"1208","flanker_instructions","37","html-keyboard-response","239","1952661","0.0-5.0-46.0","3","2020-1-8 9:0:57","LION",NA,NA,NA,NA,NA,NA,NA,NA,NA,NA,NA,NA,NA,NA
"663","flanker_test","39","image-keyboard-response","240","1954328","0.0-5.0-47.0-0.0","3","2020-1-8 9:0:57","LION",NA,NA,NA,NA,NA,"incongruent","right","TRUE",NA,NA,NA,NA,NA,NA
"670","flanker_test","37","image-keyboard-response","241","1955891","0.0-5.0-47.0-0.1","3","2020-1-8 9:0:57","LION",NA,NA,NA,NA,NA,"congruent","left","TRUE",NA,NA,NA,NA,NA,NA
"579","flanker_test","39","image-keyboard-response","242","1957429","0.0-5.0-47.0-0.2","3","2020-1-8 9:0:57","LION",NA,NA,NA,NA,NA,"congruent","right","TRUE",NA,NA,NA,NA,NA,NA
"734","flanker_test","37","image-keyboard-response","243","1958580","0.0-5.0-47.0-0.3","3","2020-1-8 9:0:57","LION",NA,NA,NA,NA,NA,"incongruent","left","TRUE",NA,NA,NA,NA,NA,NA
"31604","sort_trial",NA,"free-sort","244","1991040","0.0-5.0-48.0","3","2020-1-8 9:0:57","LION",NA,NA,NA,NA,NA,NA,NA,NA,"[{""cat"":11,""src"":1,""x"":34,""y"":0},{""cat"":30,""src"":12,""x"":22,""y"":193},{""cat"":10,""src"":6,""x"":38,""y"":257},{""cat"":10,""src"":4,""x"":62,""y"":89},{""cat"":30,""src"":13,""x"":39,""y"":147},{""cat"":11,""src"":8,""x"":34,""y"":323},{""cat"":11,""src"":7,""x"":22,""y"":438},{""cat"":30,""src"":8,""x"":22,""y"":499},{""cat"":10,""src"":14,""x"":26,""y"":384}]","[{""cat"":""11"",""src"":""1"",""x"":0,""y"":0},{""cat"":""10"",""src"":""14"",""x"":0,""y"":0},{""cat"":""30"",""src"":""8"",""x"":0,""y"":0},{""cat"":""11"",""src"":""7"",""x"":0,""y"":0},{""cat"":""11"",""src"":""8"",""x"":0,""y"":0},{""cat"":""30"",""src"":""13"",""x"":0,""y"":0},{""cat"":""10"",""src"":""4"",""x"":0,""y"":0},{""cat"":""30"",""src"":""12"",""x"":0,""y"":0},{""cat"":""10"",""src"":""6"",""x"":0,""y"":0}]","[{""cat"":11,""src"":1,""loc"":5},{""cat"":10,""src"":14,""loc"":1},{""cat"":30,""src"":8,""loc"":0},{""cat"":11,""src"":7,""loc"":2},{""cat"":11,""src"":8,""loc"":6},{""cat"":30,""src"":13,""loc"":7},{""cat"":10,""src"":4,""loc"":8},{""cat"":30,""src"":12,""loc"":4},{""cat"":10,""src"":6,""loc"":3}]","7","30,10,11,10,30,11,11,30,10,8,14,7,6,12,1,8,13,4,0,1,2,3,4,5,6,7,8,2,1,3,8,7,0,4,5,6",NA
"1440","sort_feedback","32","html-keyboard-response","245","1992485","0.0-5.0-49.0","3","2020-1-8 9:0:57","LION",NA,NA,NA,NA,NA,NA,NA,NA,NA,NA,NA,NA,NA,NA
"3060","demographics",NA,"html-button-response","246","1995551","0.0-6.0-0.0","3","2020-1-8 9:0:57","LION","0",NA,NA,NA,NA,NA,NA,NA,NA,NA,NA,NA,NA,NA
"15107","workerID",NA,"survey-text","247","2010663","0.0-6.0-1.0","3","2020-1-8 9:0:57","LION",NA,NA,NA,NA,NA,NA,NA,NA,NA,NA,NA,NA,NA,"{""Q0"":""AOS2PVHT2HYTL""}"
"5997","attn_check",NA,"survey-multi-choice","248","2016675","0.0-6.0-2.0","3","2020-1-8 9:0:57","LION",NA,NA,NA,NA,NA,NA,NA,NA,NA,NA,NA,NA,NA,"{""Q0"":""LION""}"
"4799","age",NA,"survey-text","249","2021481","0.0-6.0-3.0","3","2020-1-8 9:0:57","LION",NA,NA,NA,NA,NA,NA,NA,NA,NA,NA,NA,NA,NA,"{""Q0"":""65""}"
"2833","gender",NA,"survey-multi-choice","250","2024323","0.0-6.0-4.0","3","2020-1-8 9:0:57","LION",NA,NA,NA,NA,NA,NA,NA,NA,NA,NA,NA,NA,NA,"{""Q0"":""Female""}"
"2518","ethnic",NA,"survey-multi-choice","251","2026846","0.0-6.0-5.0","3","2020-1-8 9:0:57","LION",NA,NA,NA,NA,NA,NA,NA,NA,NA,NA,NA,NA,NA,"{""Q0"":""Not Hispanic or Latino""}"
"3152","race",NA,"survey-multi-select","252","2030010","0.0-6.0-6.0","3","2020-1-8 9:0:57","LION",NA,NA,NA,NA,NA,NA,NA,NA,NA,NA,NA,NA,NA,"{""Q0"":[""White""]}"
"2810","english",NA,"survey-multi-choice","253","2032827","0.0-6.0-7.0","3","2020-1-8 9:0:57","LION",NA,NA,NA,NA,NA,NA,NA,NA,NA,NA,NA,NA,NA,"{""Q0"":""Yes""}"
"3758","understand",NA,"survey-multi-choice","254","2036591","0.0-6.0-8.0","3","2020-1-8 9:0:57","LION",NA,NA,NA,NA,NA,NA,NA,NA,NA,NA,NA,NA,NA,"{""Q0"":""No""}"
"145607","strategies",NA,"survey-text","255","2182203","0.0-6.0-9.0","3","2020-1-8 9:0:57","LION",NA,NA,NA,NA,NA,NA,NA,NA,NA,NA,NA,NA,NA,"{""Q0"":""Different strategy today!  I looked at all the words and then repeated and remembered the words from the first box and the second box.  While I repeated those words I looked at the third box.  I kept repeating them when I did the \""distraction\"" task.  Then filled in from my repeated list and chose the others that I remembered!!!!!""}"
"40347","comments",NA,"survey-text","256","2222554","0.0-6.0-10.0","3","2020-1-8 9:0:57","LION",NA,NA,NA,NA,NA,NA,NA,NA,NA,NA,NA,NA,NA,"{""Q0"":""Pretty fun!  I think you are generous in your compensation!  Thanks!""}"
"3261","study_end",NA,"html-button-response","257","2225820","0.0-7.0","3","2020-1-8 9:0:57","LION","0",NA,NA,NA,NA,NA,NA,NA,NA,NA,NA,NA,NA,NA
