"rt","stimulus","key_press","trial_type","trial_index","time_elapsed","internal_node_id","session","startTime","attn_word","button_pressed","view_history","animation_sequence","condition","time_sequence","stim_type","direction","correct","init_locations","moves","final_locations","sort_correct","finalLocations","responses"
"21257","welcome","32","html-keyboard-response","0","21265","0.0-0.0","3","2020-1-8 8:35:34","LION",NA,NA,NA,NA,NA,NA,NA,NA,NA,NA,NA,NA,NA,NA
"7903","consent",NA,"html-button-response","1","29172","0.0-1.0","3","2020-1-8 8:35:34","LION","0",NA,NA,NA,NA,NA,NA,NA,NA,NA,NA,NA,NA,NA
"54719","instructions",NA,"instructions","2","83893","0.0-2.0","3","2020-1-8 8:35:34","LION",NA,"[{""page_index"":0,""viewing_time"":3719},{""page_index"":1,""viewing_time"":6297},{""page_index"":2,""viewing_time"":3187},{""page_index"":3,""viewing_time"":4588},{""page_index"":4,""viewing_time"":8754},{""page_index"":5,""viewing_time"":28173}]",NA,NA,NA,NA,NA,NA,NA,NA,NA,NA,NA,NA
"2625","finalInstructions",NA,"html-button-response","3","86520","0.0-3.0-0.0","3","2020-1-8 8:35:34","LION","0",NA,NA,NA,NA,NA,NA,NA,NA,NA,NA,NA,NA,NA
"19971","setup1",NA,"animation","4","106493","0.0-3.0-1.0","3","2020-1-8 8:35:34","LION",NA,NA,"[{""cat"":20,""src"":5,""loc"":7},{""cat"":20,""src"":17,""loc"":8},{""cat"":20,""src"":12,""loc"":6},{""cat"":24,""src"":19,""loc"":0},{""cat"":24,""src"":15,""loc"":2},{""cat"":24,""src"":0,""loc"":1},{""cat"":6,""src"":6,""loc"":5},{""cat"":6,""src"":4,""loc"":3},{""cat"":6,""src"":16,""loc"":4}]","1","1107,1103,1103,1102,1114,1103,1110,1104,1112,10013",NA,NA,NA,NA,NA,NA,NA,NA,NA
"2415","flanker_instructions","39","html-keyboard-response","5","108912","0.0-3.0-2.0","3","2020-1-8 8:35:34","LION",NA,NA,NA,NA,NA,NA,NA,NA,NA,NA,NA,NA,NA,NA
"528","flanker_test","37","image-keyboard-response","6","110453","0.0-3.0-3.0-0.0","3","2020-1-8 8:35:34","LION",NA,NA,NA,NA,NA,"congruent","left","TRUE",NA,NA,NA,NA,NA,NA
"656","flanker_test","39","image-keyboard-response","7","111742","0.0-3.0-3.0-0.1","3","2020-1-8 8:35:34","LION",NA,NA,NA,NA,NA,"incongruent","left","FALSE",NA,NA,NA,NA,NA,NA
"682","flanker_test","39","image-keyboard-response","8","113270","0.0-3.0-3.0-0.2","3","2020-1-8 8:35:34","LION",NA,NA,NA,NA,NA,"congruent","right","TRUE",NA,NA,NA,NA,NA,NA
"745","flanker_test","39","image-keyboard-response","9","115054","0.0-3.0-3.0-0.3","3","2020-1-8 8:35:34","LION",NA,NA,NA,NA,NA,"incongruent","right","TRUE",NA,NA,NA,NA,NA,NA
"48398","sort_trial",NA,"free-sort","10","163986","0.0-3.0-4.0","3","2020-1-8 8:35:34","LION",NA,NA,NA,NA,NA,NA,NA,NA,"[{""cat"":20,""src"":5,""x"":63,""y"":192},{""cat"":20,""src"":17,""x"":79,""y"":436},{""cat"":20,""src"":12,""x"":59,""y"":325},{""cat"":24,""src"":19,""x"":7,""y"":22},{""cat"":24,""src"":15,""x"":31,""y"":367},{""cat"":24,""src"":0,""x"":8,""y"":146},{""cat"":6,""src"":6,""x"":31,""y"":74},{""cat"":6,""src"":4,""x"":10,""y"":496},{""cat"":6,""src"":16,""x"":0,""y"":264}]","[{""cat"":""24"",""src"":""19"",""x"":0,""y"":0},{""cat"":""24"",""src"":""0"",""x"":0,""y"":0},{""cat"":""24"",""src"":""15"",""x"":181,""y"":264},{""cat"":""24"",""src"":""15"",""x"":0,""y"":0},{""cat"":""6"",""src"":""6"",""x"":0,""y"":0},{""cat"":""6"",""src"":""16"",""x"":0,""y"":0},{""cat"":""6"",""src"":""4"",""x"":0,""y"":0},{""cat"":""20"",""src"":""12"",""x"":0,""y"":0},{""cat"":""20"",""src"":""5"",""x"":0,""y"":0},{""cat"":""20"",""src"":""17"",""x"":0,""y"":0}]","[{""cat"":24,""src"":19,""loc"":0},{""cat"":24,""src"":0,""loc"":1},{""cat"":24,""src"":15,""loc"":2},{""cat"":6,""src"":6,""loc"":5},{""cat"":6,""src"":16,""loc"":4},{""cat"":6,""src"":4,""loc"":3},{""cat"":20,""src"":12,""loc"":6},{""cat"":20,""src"":5,""loc"":7},{""cat"":20,""src"":17,""loc"":8}]","9","24,24,24,6,6,6,20,20,20,19,0,15,4,16,6,12,5,17,0,1,2,3,4,5,6,7,8,0,1,2,5,4,3,6,7,8",NA
"9504","sort_feedback","32","html-keyboard-response","11","173494","0.0-3.0-5.0","3","2020-1-8 8:35:34","LION",NA,NA,NA,NA,NA,NA,NA,NA,NA,NA,NA,NA,NA,NA
"20013","setup4",NA,"animation","12","193509","0.0-3.0-6.0","3","2020-1-8 8:35:34","LION",NA,NA,"[{""cat"":7,""src"":8,""loc"":2},{""cat"":7,""src"":5,""loc"":7},{""cat"":7,""src"":3,""loc"":3},{""cat"":24,""src"":3,""loc"":1},{""cat"":24,""src"":19,""loc"":5},{""cat"":24,""src"":4,""loc"":8},{""cat"":26,""src"":3,""loc"":4},{""cat"":26,""src"":16,""loc"":6},{""cat"":26,""src"":11,""loc"":0}]","4","1106,1117,1114,1102,1105,1117,1109,1113,1118,10011",NA,NA,NA,NA,NA,NA,NA,NA,NA
"27249","flanker_instructions","39","html-keyboard-response","13","220763","0.0-3.0-7.0","3","2020-1-8 8:35:34","LION",NA,NA,NA,NA,NA,NA,NA,NA,NA,NA,NA,NA,NA,NA
NA,"flanker_test",NA,"image-keyboard-response","14","222685","0.0-3.0-8.0-0.0","3","2020-1-8 8:35:34","LION",NA,NA,NA,NA,NA,"incongruent","right","FALSE",NA,NA,NA,NA,NA,NA
"561","flanker_test","39","image-keyboard-response","15","224108","0.0-3.0-8.0-0.1","3","2020-1-8 8:35:34","LION",NA,NA,NA,NA,NA,"congruent","right","TRUE",NA,NA,NA,NA,NA,NA
"485","flanker_test","37","image-keyboard-response","16","225768","0.0-3.0-8.0-0.2","3","2020-1-8 8:35:34","LION",NA,NA,NA,NA,NA,"congruent","left","TRUE",NA,NA,NA,NA,NA,NA
"507","flanker_test","37","image-keyboard-response","17","226695","0.0-3.0-8.0-0.3","3","2020-1-8 8:35:34","LION",NA,NA,NA,NA,NA,"incongruent","left","TRUE",NA,NA,NA,NA,NA,NA
"57196","sort_trial",NA,"free-sort","18","284610","0.0-3.0-9.0","3","2020-1-8 8:35:34","LION",NA,NA,NA,NA,NA,NA,NA,NA,"[{""cat"":7,""src"":8,""x"":82,""y"":445},{""cat"":7,""src"":5,""x"":55,""y"":1},{""cat"":7,""src"":3,""x"":52,""y"":385},{""cat"":24,""src"":3,""x"":79,""y"":481},{""cat"":24,""src"":19,""x"":63,""y"":139},{""cat"":24,""src"":4,""x"":34,""y"":262},{""cat"":26,""src"":3,""x"":13,""y"":182},{""cat"":26,""src"":16,""x"":2,""y"":87},{""cat"":26,""src"":11,""x"":26,""y"":310}]","[{""cat"":""24"",""src"":""3"",""x"":0,""y"":0},{""cat"":""26"",""src"":""11"",""x"":0,""y"":0},{""cat"":""7"",""src"":""8"",""x"":0,""y"":0},{""cat"":""24"",""src"":""19"",""x"":0,""y"":0},{""cat"":""26"",""src"":""3"",""x"":0,""y"":0},{""cat"":""7"",""src"":""3"",""x"":0,""y"":0},{""cat"":""26"",""src"":""16"",""x"":0,""y"":0},{""cat"":""24"",""src"":""4"",""x"":0,""y"":0},{""cat"":""7"",""src"":""5"",""x"":0,""y"":0}]","[{""cat"":24,""src"":3,""loc"":1},{""cat"":26,""src"":11,""loc"":0},{""cat"":7,""src"":8,""loc"":2},{""cat"":24,""src"":19,""loc"":5},{""cat"":26,""src"":3,""loc"":4},{""cat"":7,""src"":3,""loc"":3},{""cat"":26,""src"":16,""loc"":6},{""cat"":24,""src"":4,""loc"":8},{""cat"":7,""src"":5,""loc"":7}]","9","26,24,7,7,26,24,26,7,24,11,3,8,3,3,19,16,5,4,0,1,2,3,4,5,6,7,8,1,0,2,5,4,3,6,8,7",NA
"8752","sort_feedback","32","html-keyboard-response","19","293366","0.0-3.0-10.0","3","2020-1-8 8:35:34","LION",NA,NA,NA,NA,NA,NA,NA,NA,NA,NA,NA,NA,NA,NA
"20021","setup5",NA,"animation","20","313389","0.0-3.0-11.0","3","2020-1-8 8:35:34","LION",NA,NA,"[{""cat"":24,""src"":1,""loc"":8},{""cat"":9,""src"":10,""loc"":4},{""cat"":16,""src"":10,""loc"":2},{""cat"":9,""src"":6,""loc"":7},{""cat"":16,""src"":17,""loc"":5},{""cat"":24,""src"":11,""loc"":1},{""cat"":16,""src"":18,""loc"":6},{""cat"":24,""src"":0,""loc"":3},{""cat"":9,""src"":18,""loc"":0}]","5","1113,1116,1104,1116,1119,1113,1102,1117,1113,10008",NA,NA,NA,NA,NA,NA,NA,NA,NA
"3057","flanker_instructions","39","html-keyboard-response","21","316451","0.0-3.0-12.0","3","2020-1-8 8:35:34","LION",NA,NA,NA,NA,NA,NA,NA,NA,NA,NA,NA,NA,NA,NA
"572","flanker_test","37","image-keyboard-response","22","318042","0.0-3.0-13.0-0.0","3","2020-1-8 8:35:34","LION",NA,NA,NA,NA,NA,"incongruent","left","TRUE",NA,NA,NA,NA,NA,NA
"764","flanker_test","39","image-keyboard-response","23","319223","0.0-3.0-13.0-0.1","3","2020-1-8 8:35:34","LION",NA,NA,NA,NA,NA,"incongruent","right","TRUE",NA,NA,NA,NA,NA,NA
"594","flanker_test","37","image-keyboard-response","24","320643","0.0-3.0-13.0-0.2","3","2020-1-8 8:35:34","LION",NA,NA,NA,NA,NA,"congruent","left","TRUE",NA,NA,NA,NA,NA,NA
"433","flanker_test","39","image-keyboard-response","25","322023","0.0-3.0-13.0-0.3","3","2020-1-8 8:35:34","LION",NA,NA,NA,NA,NA,"congruent","right","TRUE",NA,NA,NA,NA,NA,NA
"62236","sort_trial",NA,"free-sort","26","384628","0.0-3.0-14.0","3","2020-1-8 8:35:34","LION",NA,NA,NA,NA,NA,NA,NA,NA,"[{""cat"":24,""src"":1,""x"":0,""y"":14},{""cat"":9,""src"":10,""x"":12,""y"":324},{""cat"":16,""src"":10,""x"":8,""y"":362},{""cat"":9,""src"":6,""x"":57,""y"":76},{""cat"":16,""src"":17,""x"":46,""y"":191},{""cat"":24,""src"":11,""x"":11,""y"":504},{""cat"":16,""src"":18,""x"":34,""y"":449},{""cat"":24,""src"":0,""x"":3,""y"":142},{""cat"":9,""src"":18,""x"":46,""y"":249}]","[{""cat"":""24"",""src"":""11"",""x"":146,""y"":400},{""cat"":""24"",""src"":""11"",""x"":0,""y"":0},{""cat"":""9"",""src"":""18"",""x"":0,""y"":0},{""cat"":""16"",""src"":""10"",""x"":0,""y"":0},{""cat"":""16"",""src"":""18"",""x"":0,""y"":0},{""cat"":""16"",""src"":""17"",""x"":0,""y"":0},{""cat"":""9"",""src"":""10"",""x"":0,""y"":0},{""cat"":""24"",""src"":""0"",""x"":0,""y"":0},{""cat"":""24"",""src"":""1"",""x"":55,""y"":319},{""cat"":""24"",""src"":""1"",""x"":0,""y"":0},{""cat"":""9"",""src"":""6"",""x"":0,""y"":0}]","[{""cat"":24,""src"":11,""loc"":1},{""cat"":9,""src"":18,""loc"":0},{""cat"":16,""src"":10,""loc"":2},{""cat"":16,""src"":18,""loc"":6},{""cat"":16,""src"":17,""loc"":5},{""cat"":9,""src"":10,""loc"":4},{""cat"":24,""src"":0,""loc"":3},{""cat"":24,""src"":1,""loc"":8},{""cat"":9,""src"":6,""loc"":7}]","9","9,24,16,24,9,16,16,9,24,18,11,10,0,10,17,18,6,1,0,1,2,3,4,5,6,7,8,1,0,2,6,5,4,3,8,7",NA
"3993","sort_feedback","32","html-keyboard-response","27","388626","0.0-3.0-15.0","3","2020-1-8 8:35:34","LION",NA,NA,NA,NA,NA,NA,NA,NA,NA,NA,NA,NA,NA,NA
"20017","setup2",NA,"animation","28","408646","0.0-3.0-16.0","3","2020-1-8 8:35:34","LION",NA,NA,"[{""cat"":15,""src"":0,""loc"":4},{""cat"":3,""src"":8,""loc"":3},{""cat"":25,""src"":17,""loc"":5},{""cat"":25,""src"":13,""loc"":6},{""cat"":15,""src"":12,""loc"":7},{""cat"":3,""src"":9,""loc"":8},{""cat"":15,""src"":5,""loc"":1},{""cat"":3,""src"":3,""loc"":2},{""cat"":25,""src"":9,""loc"":0}]","2","1119,1113,1111,1106,1104,1102,1108,1117,1120,10017",NA,NA,NA,NA,NA,NA,NA,NA,NA
"2566","flanker_instructions","39","html-keyboard-response","29","411216","0.0-3.0-17.0","3","2020-1-8 8:35:34","LION",NA,NA,NA,NA,NA,NA,NA,NA,NA,NA,NA,NA,NA,NA
"670","flanker_test","39","image-keyboard-response","30","412895","0.0-3.0-18.0-0.0","3","2020-1-8 8:35:34","LION",NA,NA,NA,NA,NA,"congruent","right","TRUE",NA,NA,NA,NA,NA,NA
"647","flanker_test","37","image-keyboard-response","31","413858","0.0-3.0-18.0-0.1","3","2020-1-8 8:35:34","LION",NA,NA,NA,NA,NA,"congruent","left","TRUE",NA,NA,NA,NA,NA,NA
"607","flanker_test","39","image-keyboard-response","32","415377","0.0-3.0-18.0-0.2","3","2020-1-8 8:35:34","LION",NA,NA,NA,NA,NA,"incongruent","right","TRUE",NA,NA,NA,NA,NA,NA
"406","flanker_test","37","image-keyboard-response","33","416937","0.0-3.0-18.0-0.3","3","2020-1-8 8:35:34","LION",NA,NA,NA,NA,NA,"incongruent","left","TRUE",NA,NA,NA,NA,NA,NA
"63998","sort_trial",NA,"free-sort","34","481469","0.0-3.0-19.0","3","2020-1-8 8:35:34","LION",NA,NA,NA,NA,NA,NA,NA,NA,"[{""cat"":15,""src"":0,""x"":20,""y"":315},{""cat"":3,""src"":8,""x"":71,""y"":485},{""cat"":25,""src"":17,""x"":35,""y"":266},{""cat"":25,""src"":13,""x"":24,""y"":84},{""cat"":15,""src"":12,""x"":40,""y"":17},{""cat"":3,""src"":9,""x"":37,""y"":428},{""cat"":15,""src"":5,""x"":24,""y"":139},{""cat"":3,""src"":3,""x"":55,""y"":195},{""cat"":25,""src"":9,""x"":42,""y"":366}]","[{""cat"":""15"",""src"":""5"",""x"":0,""y"":0},{""cat"":""25"",""src"":""9"",""x"":0,""y"":0},{""cat"":""3"",""src"":""3"",""x"":0,""y"":0},{""cat"":""25"",""src"":""17"",""x"":0,""y"":0},{""cat"":""15"",""src"":""0"",""x"":0,""y"":0},{""cat"":""3"",""src"":""8"",""x"":741,""y"":257},{""cat"":""3"",""src"":""8"",""x"":0,""y"":0},{""cat"":""3"",""src"":""9"",""x"":523,""y"":364},{""cat"":""3"",""src"":""9"",""x"":0,""y"":0},{""cat"":""15"",""src"":""12"",""x"":0,""y"":0},{""cat"":""25"",""src"":""13"",""x"":0,""y"":0}]","[{""cat"":15,""src"":5,""loc"":1},{""cat"":25,""src"":9,""loc"":0},{""cat"":3,""src"":3,""loc"":2},{""cat"":25,""src"":17,""loc"":5},{""cat"":15,""src"":0,""loc"":4},{""cat"":3,""src"":8,""loc"":3},{""cat"":3,""src"":9,""loc"":8},{""cat"":15,""src"":12,""loc"":7},{""cat"":25,""src"":13,""loc"":6}]","9","25,15,3,3,15,25,25,15,3,9,5,3,8,0,17,13,12,9,0,1,2,3,4,5,6,7,8,1,0,2,5,4,3,8,7,6",NA
"6895","sort_feedback","32","html-keyboard-response","35","488367","0.0-3.0-20.0","3","2020-1-8 8:35:34","LION",NA,NA,NA,NA,NA,NA,NA,NA,NA,NA,NA,NA,NA,NA
"20053","setup3",NA,"animation","36","508422","0.0-3.0-21.0","3","2020-1-8 8:35:34","LION",NA,NA,"[{""cat"":11,""src"":17,""loc"":7},{""cat"":24,""src"":12,""loc"":3},{""cat"":21,""src"":0,""loc"":1},{""cat"":24,""src"":14,""loc"":4},{""cat"":11,""src"":2,""loc"":6},{""cat"":21,""src"":14,""loc"":0},{""cat"":11,""src"":0,""loc"":8},{""cat"":24,""src"":9,""loc"":5},{""cat"":21,""src"":2,""loc"":2}]","3","1104,1144,1115,1116,1115,1103,1116,1116,1116,10008",NA,NA,NA,NA,NA,NA,NA,NA,NA
"2385","flanker_instructions","39","html-keyboard-response","37","510812","0.0-3.0-22.0","3","2020-1-8 8:35:34","LION",NA,NA,NA,NA,NA,NA,NA,NA,NA,NA,NA,NA,NA,NA
"701","flanker_test","39","image-keyboard-response","38","512520","0.0-3.0-23.0-0.0","3","2020-1-8 8:35:34","LION",NA,NA,NA,NA,NA,"incongruent","right","TRUE",NA,NA,NA,NA,NA,NA
"638","flanker_test","37","image-keyboard-response","39","514373","0.0-3.0-23.0-0.1","3","2020-1-8 8:35:34","LION",NA,NA,NA,NA,NA,"incongruent","left","TRUE",NA,NA,NA,NA,NA,NA
"532","flanker_test","37","image-keyboard-response","40","515711","0.0-3.0-23.0-0.2","3","2020-1-8 8:35:34","LION",NA,NA,NA,NA,NA,"congruent","left","TRUE",NA,NA,NA,NA,NA,NA
"622","flanker_test","39","image-keyboard-response","41","516683","0.0-3.0-23.0-0.3","3","2020-1-8 8:35:34","LION",NA,NA,NA,NA,NA,"congruent","right","TRUE",NA,NA,NA,NA,NA,NA
"61277","sort_trial",NA,"free-sort","42","578692","0.0-3.0-24.0","3","2020-1-8 8:35:34","LION",NA,NA,NA,NA,NA,NA,NA,NA,"[{""cat"":11,""src"":17,""x"":16,""y"":201},{""cat"":24,""src"":12,""x"":53,""y"":87},{""cat"":21,""src"":0,""x"":61,""y"":495},{""cat"":24,""src"":14,""x"":20,""y"":254},{""cat"":11,""src"":2,""x"":30,""y"":5},{""cat"":21,""src"":14,""x"":14,""y"":447},{""cat"":11,""src"":0,""x"":80,""y"":123},{""cat"":24,""src"":9,""x"":5,""y"":302},{""cat"":21,""src"":2,""x"":54,""y"":373}]","[{""cat"":""21"",""src"":""0"",""x"":0,""y"":0},{""cat"":""11"",""src"":""0"",""x"":103,""y"":141},{""cat"":""11"",""src"":""0"",""x"":81,""y"":123},{""cat"":""11"",""src"":""0"",""x"":81,""y"":123},{""cat"":""11"",""src"":""0"",""x"":0,""y"":0},{""cat"":""21"",""src"":""14"",""x"":0,""y"":0},{""cat"":""21"",""src"":""2"",""x"":0,""y"":0},{""cat"":""11"",""src"":""2"",""x"":0,""y"":0},{""cat"":""11"",""src"":""17"",""x"":0,""y"":0},{""cat"":""24"",""src"":""14"",""x"":0,""y"":0},{""cat"":""24"",""src"":""12"",""x"":0,""y"":0},{""cat"":""24"",""src"":""9"",""x"":0,""y"":0}]","[{""cat"":21,""src"":0,""loc"":1},{""cat"":11,""src"":0,""loc"":8},{""cat"":21,""src"":14,""loc"":0},{""cat"":21,""src"":2,""loc"":2},{""cat"":11,""src"":2,""loc"":6},{""cat"":11,""src"":17,""loc"":7},{""cat"":24,""src"":14,""loc"":4},{""cat"":24,""src"":12,""loc"":3},{""cat"":24,""src"":9,""loc"":5}]","9","21,21,21,24,24,24,11,11,11,14,0,2,12,14,9,2,17,0,0,1,2,3,4,5,6,7,8,2,0,3,7,6,8,4,5,1",NA
"1470","sort_feedback","32","html-keyboard-response","43","580165","0.0-3.0-25.0","3","2020-1-8 8:35:34","LION",NA,NA,NA,NA,NA,NA,NA,NA,NA,NA,NA,NA,NA,NA
"20011","setup5",NA,"animation","44","600177","0.0-3.0-26.0","3","2020-1-8 8:35:34","LION",NA,NA,"[{""cat"":23,""src"":7,""loc"":1},{""cat"":0,""src"":4,""loc"":7},{""cat"":2,""src"":15,""loc"":4},{""cat"":23,""src"":14,""loc"":5},{""cat"":0,""src"":10,""loc"":2},{""cat"":2,""src"":5,""loc"":6},{""cat"":0,""src"":0,""loc"":3},{""cat"":2,""src"":11,""loc"":0},{""cat"":23,""src"":2,""loc"":8}]","5","1105,1122,1104,1104,1116,1115,1113,1105,1117,10009",NA,NA,NA,NA,NA,NA,NA,NA,NA
"7428","flanker_instructions","39","html-keyboard-response","45","607609","0.0-3.0-27.0","3","2020-1-8 8:35:34","LION",NA,NA,NA,NA,NA,NA,NA,NA,NA,NA,NA,NA,NA,NA
"892","flanker_test","39","image-keyboard-response","46","609522","0.0-3.0-28.0-0.0","3","2020-1-8 8:35:34","LION",NA,NA,NA,NA,NA,"incongruent","right","TRUE",NA,NA,NA,NA,NA,NA
"595","flanker_test","37","image-keyboard-response","47","611004","0.0-3.0-28.0-0.1","3","2020-1-8 8:35:34","LION",NA,NA,NA,NA,NA,"incongruent","left","TRUE",NA,NA,NA,NA,NA,NA
"559","flanker_test","37","image-keyboard-response","48","611960","0.0-3.0-28.0-0.2","3","2020-1-8 8:35:34","LION",NA,NA,NA,NA,NA,"congruent","left","TRUE",NA,NA,NA,NA,NA,NA
"542","flanker_test","39","image-keyboard-response","49","612815","0.0-3.0-28.0-0.3","3","2020-1-8 8:35:34","LION",NA,NA,NA,NA,NA,"congruent","right","TRUE",NA,NA,NA,NA,NA,NA
"52870","sort_trial",NA,"free-sort","50","666242","0.0-3.0-29.0","3","2020-1-8 8:35:34","LION",NA,NA,NA,NA,NA,NA,NA,NA,"[{""cat"":23,""src"":7,""x"":55,""y"":314},{""cat"":0,""src"":4,""x"":75,""y"":0},{""cat"":2,""src"":15,""x"":67,""y"":423},{""cat"":23,""src"":14,""x"":60,""y"":259},{""cat"":0,""src"":10,""x"":72,""y"":205},{""cat"":2,""src"":5,""x"":72,""y"":85},{""cat"":0,""src"":0,""x"":83,""y"":140},{""cat"":2,""src"":11,""x"":51,""y"":494},{""cat"":23,""src"":2,""x"":34,""y"":380}]","[{""cat"":""23"",""src"":""7"",""x"":194,""y"":251},{""cat"":""23"",""src"":""7"",""x"":0,""y"":0},{""cat"":""2"",""src"":""11"",""x"":0,""y"":0},{""cat"":""0"",""src"":""10"",""x"":0,""y"":0},{""cat"":""23"",""src"":""14"",""x"":0,""y"":0},{""cat"":""2"",""src"":""15"",""x"":0,""y"":0},{""cat"":""0"",""src"":""0"",""x"":0,""y"":0},{""cat"":""0"",""src"":""4"",""x"":0,""y"":0},{""cat"":""23"",""src"":""2"",""x"":0,""y"":0},{""cat"":""2"",""src"":""5"",""x"":0,""y"":0}]","[{""cat"":23,""src"":7,""loc"":1},{""cat"":2,""src"":11,""loc"":0},{""cat"":0,""src"":10,""loc"":2},{""cat"":23,""src"":14,""loc"":5},{""cat"":2,""src"":15,""loc"":4},{""cat"":0,""src"":0,""loc"":3},{""cat"":0,""src"":4,""loc"":7},{""cat"":23,""src"":2,""loc"":8},{""cat"":2,""src"":5,""loc"":6}]","9","2,23,0,0,2,23,2,0,23,11,7,10,0,15,14,5,4,2,0,1,2,3,4,5,6,7,8,1,0,2,5,4,3,8,6,7",NA
"5185","sort_feedback","32","html-keyboard-response","51","671429","0.0-3.0-30.0","3","2020-1-8 8:35:34","LION",NA,NA,NA,NA,NA,NA,NA,NA,NA,NA,NA,NA,NA,NA
"19998","setup3",NA,"animation","52","691443","0.0-3.0-31.0","3","2020-1-8 8:35:34","LION",NA,NA,"[{""cat"":25,""src"":0,""loc"":6},{""cat"":5,""src"":1,""loc"":3},{""cat"":27,""src"":9,""loc"":0},{""cat"":25,""src"":6,""loc"":8},{""cat"":27,""src"":10,""loc"":1},{""cat"":5,""src"":0,""loc"":5},{""cat"":5,""src"":19,""loc"":4},{""cat"":27,""src"":17,""loc"":2},{""cat"":25,""src"":11,""loc"":7}]","3","1104,1115,1111,1103,1111,1103,1115,1117,1104,10015",NA,NA,NA,NA,NA,NA,NA,NA,NA
"6913","flanker_instructions","39","html-keyboard-response","53","698361","0.0-3.0-32.0","3","2020-1-8 8:35:34","LION",NA,NA,NA,NA,NA,NA,NA,NA,NA,NA,NA,NA,NA,NA
NA,"flanker_test",NA,"image-keyboard-response","54","700297","0.0-3.0-33.0-0.0","3","2020-1-8 8:35:34","LION",NA,NA,NA,NA,NA,"congruent","left","FALSE",NA,NA,NA,NA,NA,NA
"736","flanker_test","37","image-keyboard-response","55","702123","0.0-3.0-33.0-0.1","3","2020-1-8 8:35:34","LION",NA,NA,NA,NA,NA,"incongruent","left","TRUE",NA,NA,NA,NA,NA,NA
"455","flanker_test","39","image-keyboard-response","56","703595","0.0-3.0-33.0-0.2","3","2020-1-8 8:35:34","LION",NA,NA,NA,NA,NA,"congruent","right","TRUE",NA,NA,NA,NA,NA,NA
"559","flanker_test","39","image-keyboard-response","57","704487","0.0-3.0-33.0-0.3","3","2020-1-8 8:35:34","LION",NA,NA,NA,NA,NA,"incongruent","right","TRUE",NA,NA,NA,NA,NA,NA
"43543","sort_trial",NA,"free-sort","58","748908","0.0-3.0-34.0","3","2020-1-8 8:35:34","LION",NA,NA,NA,NA,NA,NA,NA,NA,"[{""cat"":25,""src"":0,""x"":75,""y"":314},{""cat"":5,""src"":1,""x"":62,""y"":443},{""cat"":27,""src"":9,""x"":62,""y"":77},{""cat"":25,""src"":6,""x"":42,""y"":136},{""cat"":27,""src"":10,""x"":49,""y"":200},{""cat"":5,""src"":0,""x"":65,""y"":493},{""cat"":5,""src"":19,""x"":70,""y"":359},{""cat"":27,""src"":17,""x"":23,""y"":29},{""cat"":25,""src"":11,""x"":64,""y"":259}]","[{""cat"":""27"",""src"":""10"",""x"":0,""y"":0},{""cat"":""27"",""src"":""9"",""x"":0,""y"":0},{""cat"":""27"",""src"":""17"",""x"":0,""y"":0},{""cat"":""5"",""src"":""0"",""x"":0,""y"":0},{""cat"":""5"",""src"":""19"",""x"":0,""y"":0},{""cat"":""5"",""src"":""1"",""x"":0,""y"":0},{""cat"":""25"",""src"":""0"",""x"":0,""y"":0},{""cat"":""25"",""src"":""11"",""x"":0,""y"":0},{""cat"":""25"",""src"":""6"",""x"":0,""y"":0}]","[{""cat"":27,""src"":10,""loc"":1},{""cat"":27,""src"":9,""loc"":0},{""cat"":27,""src"":17,""loc"":2},{""cat"":5,""src"":0,""loc"":5},{""cat"":5,""src"":19,""loc"":4},{""cat"":5,""src"":1,""loc"":3},{""cat"":25,""src"":0,""loc"":6},{""cat"":25,""src"":11,""loc"":7},{""cat"":25,""src"":6,""loc"":8}]","9","27,27,27,5,5,5,25,25,25,9,10,17,1,19,0,0,11,6,0,1,2,3,4,5,6,7,8,1,0,2,5,4,3,6,7,8",NA
"7121","sort_feedback","32","html-keyboard-response","59","756032","0.0-3.0-35.0","3","2020-1-8 8:35:34","LION",NA,NA,NA,NA,NA,NA,NA,NA,NA,NA,NA,NA,NA,NA
"20002","setup2",NA,"animation","60","776035","0.0-3.0-36.0","3","2020-1-8 8:35:34","LION",NA,NA,"[{""cat"":25,""src"":16,""loc"":2},{""cat"":23,""src"":3,""loc"":1},{""cat"":2,""src"":4,""loc"":0},{""cat"":2,""src"":9,""loc"":6},{""cat"":23,""src"":5,""loc"":8},{""cat"":25,""src"":17,""loc"":7},{""cat"":23,""src"":17,""loc"":3},{""cat"":25,""src"":6,""loc"":4},{""cat"":2,""src"":13,""loc"":5}]","2","1117,1117,1102,1103,1107,1102,1118,1110,1106,10020",NA,NA,NA,NA,NA,NA,NA,NA,NA
"3492","flanker_instructions","39","html-keyboard-response","61","779531","0.0-3.0-37.0","3","2020-1-8 8:35:34","LION",NA,NA,NA,NA,NA,NA,NA,NA,NA,NA,NA,NA,NA,NA
"718","flanker_test","39","image-keyboard-response","62","781254","0.0-3.0-38.0-0.0","3","2020-1-8 8:35:34","LION",NA,NA,NA,NA,NA,"incongruent","right","TRUE",NA,NA,NA,NA,NA,NA
"792","flanker_test","37","image-keyboard-response","63","782388","0.0-3.0-38.0-0.1","3","2020-1-8 8:35:34","LION",NA,NA,NA,NA,NA,"congruent","left","TRUE",NA,NA,NA,NA,NA,NA
"502","flanker_test","37","image-keyboard-response","64","783255","0.0-3.0-38.0-0.2","3","2020-1-8 8:35:34","LION",NA,NA,NA,NA,NA,"incongruent","left","TRUE",NA,NA,NA,NA,NA,NA
"365","flanker_test","39","image-keyboard-response","65","784527","0.0-3.0-38.0-0.3","3","2020-1-8 8:35:34","LION",NA,NA,NA,NA,NA,"congruent","right","TRUE",NA,NA,NA,NA,NA,NA
"41584","sort_trial",NA,"free-sort","66","827008","0.0-3.0-39.0","3","2020-1-8 8:35:34","LION",NA,NA,NA,NA,NA,NA,NA,NA,"[{""cat"":25,""src"":16,""x"":62,""y"":204},{""cat"":23,""src"":3,""x"":80,""y"":373},{""cat"":2,""src"":4,""x"":29,""y"":148},{""cat"":2,""src"":9,""x"":15,""y"":267},{""cat"":23,""src"":5,""x"":12,""y"":439},{""cat"":25,""src"":17,""x"":29,""y"":87},{""cat"":23,""src"":17,""x"":12,""y"":20},{""cat"":25,""src"":6,""x"":60,""y"":496},{""cat"":2,""src"":13,""x"":68,""y"":323}]","[{""cat"":""23"",""src"":""3"",""x"":0,""y"":0},{""cat"":""2"",""src"":""4"",""x"":0,""y"":0},{""cat"":""25"",""src"":""16"",""x"":0,""y"":0},{""cat"":""2"",""src"":""13"",""x"":0,""y"":0},{""cat"":""25"",""src"":""6"",""x"":0,""y"":0},{""cat"":""23"",""src"":""17"",""x"":0,""y"":0},{""cat"":""2"",""src"":""9"",""x"":0,""y"":0},{""cat"":""25"",""src"":""17"",""x"":41,""y"":172},{""cat"":""25"",""src"":""17"",""x"":0,""y"":0},{""cat"":""23"",""src"":""5"",""x"":0,""y"":0}]","[{""cat"":23,""src"":3,""loc"":1},{""cat"":2,""src"":4,""loc"":0},{""cat"":25,""src"":16,""loc"":2},{""cat"":2,""src"":13,""loc"":5},{""cat"":25,""src"":6,""loc"":4},{""cat"":23,""src"":17,""loc"":3},{""cat"":2,""src"":9,""loc"":6},{""cat"":25,""src"":17,""loc"":7},{""cat"":23,""src"":5,""loc"":8}]","9","2,23,25,23,25,2,2,25,23,4,3,16,17,6,13,9,17,5,0,1,2,3,4,5,6,7,8,1,0,2,5,4,3,6,7,8",NA
"7005","sort_feedback","32","html-keyboard-response","67","834016","0.0-3.0-40.0","3","2020-1-8 8:35:34","LION",NA,NA,NA,NA,NA,NA,NA,NA,NA,NA,NA,NA,NA,NA
"19985","setup1",NA,"animation","68","854003","0.0-3.0-41.0","3","2020-1-8 8:35:34","LION",NA,NA,"[{""cat"":33,""src"":3,""loc"":0},{""cat"":33,""src"":8,""loc"":2},{""cat"":33,""src"":11,""loc"":1},{""cat"":14,""src"":5,""loc"":4},{""cat"":14,""src"":17,""loc"":5},{""cat"":14,""src"":14,""loc"":3},{""cat"":1,""src"":9,""loc"":8},{""cat"":1,""src"":6,""loc"":7},{""cat"":1,""src"":0,""loc"":6}]","1","1109,1103,1111,1102,1103,1112,1102,1112,1113,10018",NA,NA,NA,NA,NA,NA,NA,NA,NA
"4087","flanker_instructions","39","html-keyboard-response","69","858095","0.0-3.0-42.0","3","2020-1-8 8:35:34","LION",NA,NA,NA,NA,NA,NA,NA,NA,NA,NA,NA,NA,NA,NA
"715","flanker_test","37","image-keyboard-response","70","859819","0.0-3.0-43.0-0.0","3","2020-1-8 8:35:34","LION",NA,NA,NA,NA,NA,"congruent","left","TRUE",NA,NA,NA,NA,NA,NA
"520","flanker_test","39","image-keyboard-response","71","861342","0.0-3.0-43.0-0.1","3","2020-1-8 8:35:34","LION",NA,NA,NA,NA,NA,"congruent","right","TRUE",NA,NA,NA,NA,NA,NA
"576","flanker_test","37","image-keyboard-response","72","863025","0.0-3.0-43.0-0.2","3","2020-1-8 8:35:34","LION",NA,NA,NA,NA,NA,"incongruent","left","TRUE",NA,NA,NA,NA,NA,NA
"621","flanker_test","39","image-keyboard-response","73","863967","0.0-3.0-43.0-0.3","3","2020-1-8 8:35:34","LION",NA,NA,NA,NA,NA,"incongruent","right","TRUE",NA,NA,NA,NA,NA,NA
"50937","sort_trial",NA,"free-sort","74","915680","0.0-3.0-44.0","3","2020-1-8 8:35:34","LION",NA,NA,NA,NA,NA,NA,NA,NA,"[{""cat"":33,""src"":3,""x"":6,""y"":70},{""cat"":33,""src"":8,""x"":31,""y"":253},{""cat"":33,""src"":11,""x"":74,""y"":489},{""cat"":14,""src"":5,""x"":58,""y"":1},{""cat"":14,""src"":17,""x"":14,""y"":436},{""cat"":14,""src"":14,""x"":23,""y"":146},{""cat"":1,""src"":9,""x"":10,""y"":305},{""cat"":1,""src"":6,""x"":70,""y"":367},{""cat"":1,""src"":0,""x"":65,""y"":203}]","[{""cat"":""33"",""src"":""11"",""x"":0,""y"":0},{""cat"":""14"",""src"":""5"",""x"":66,""y"":16},{""cat"":""33"",""src"":""3"",""x"":0,""y"":0},{""cat"":""33"",""src"":""8"",""x"":0,""y"":0},{""cat"":""14"",""src"":""17"",""x"":0,""y"":0},{""cat"":""14"",""src"":""5"",""x"":0,""y"":0},{""cat"":""14"",""src"":""14"",""x"":0,""y"":0},{""cat"":""1"",""src"":""0"",""x"":0,""y"":0},{""cat"":""1"",""src"":""9"",""x"":0,""y"":0},{""cat"":""1"",""src"":""6"",""x"":0,""y"":0}]","[{""cat"":33,""src"":11,""loc"":1},{""cat"":33,""src"":3,""loc"":0},{""cat"":33,""src"":8,""loc"":2},{""cat"":14,""src"":17,""loc"":5},{""cat"":14,""src"":5,""loc"":4},{""cat"":14,""src"":14,""loc"":3},{""cat"":1,""src"":0,""loc"":6},{""cat"":1,""src"":9,""loc"":8},{""cat"":1,""src"":6,""loc"":7}]","9","33,33,33,14,14,14,1,1,1,3,11,8,14,5,17,0,6,9,0,1,2,3,4,5,6,7,8,1,0,2,5,4,3,6,8,7",NA
"1166","sort_feedback","32","html-keyboard-response","75","916849","0.0-3.0-45.0","3","2020-1-8 8:35:34","LION",NA,NA,NA,NA,NA,NA,NA,NA,NA,NA,NA,NA,NA,NA
"19996","setup4",NA,"animation","76","936846","0.0-3.0-46.0","3","2020-1-8 8:35:34","LION",NA,NA,"[{""cat"":14,""src"":13,""loc"":4},{""cat"":14,""src"":3,""loc"":1},{""cat"":14,""src"":6,""loc"":7},{""cat"":30,""src"":18,""loc"":0},{""cat"":30,""src"":2,""loc"":5},{""cat"":30,""src"":16,""loc"":6},{""cat"":32,""src"":16,""loc"":2},{""cat"":32,""src"":5,""loc"":3},{""cat"":32,""src"":8,""loc"":8}]","4","1107,1111,1115,1106,1116,1118,1105,1103,1111,10004",NA,NA,NA,NA,NA,NA,NA,NA,NA
"2730","flanker_instructions","39","html-keyboard-response","77","939580","0.0-3.0-47.0","3","2020-1-8 8:35:34","LION",NA,NA,NA,NA,NA,NA,NA,NA,NA,NA,NA,NA,NA,NA
"694","flanker_test","39","image-keyboard-response","78","941308","0.0-3.0-48.0-0.0","3","2020-1-8 8:35:34","LION",NA,NA,NA,NA,NA,"incongruent","right","TRUE",NA,NA,NA,NA,NA,NA
"632","flanker_test","39","image-keyboard-response","79","942249","0.0-3.0-48.0-0.1","3","2020-1-8 8:35:34","LION",NA,NA,NA,NA,NA,"congruent","right","TRUE",NA,NA,NA,NA,NA,NA
"386","flanker_test","37","image-keyboard-response","80","943191","0.0-3.0-48.0-0.2","3","2020-1-8 8:35:34","LION",NA,NA,NA,NA,NA,"congruent","left","TRUE",NA,NA,NA,NA,NA,NA
"388","flanker_test","37","image-keyboard-response","81","944013","0.0-3.0-48.0-0.3","3","2020-1-8 8:35:34","LION",NA,NA,NA,NA,NA,"incongruent","left","TRUE",NA,NA,NA,NA,NA,NA
"52131","sort_trial",NA,"free-sort","82","996873","0.0-3.0-49.0","3","2020-1-8 8:35:34","LION",NA,NA,NA,NA,NA,NA,NA,NA,"[{""cat"":14,""src"":13,""x"":54,""y"":205},{""cat"":14,""src"":3,""x"":13,""y"":385},{""cat"":14,""src"":6,""x"":80,""y"":258},{""cat"":30,""src"":18,""x"":27,""y"":430},{""cat"":30,""src"":2,""x"":52,""y"":313},{""cat"":30,""src"":16,""x"":19,""y"":82},{""cat"":32,""src"":16,""x"":2,""y"":24},{""cat"":32,""src"":5,""x"":3,""y"":483},{""cat"":32,""src"":8,""x"":57,""y"":136}]","[{""cat"":""14"",""src"":""3"",""x"":0,""y"":0},{""cat"":""30"",""src"":""18"",""x"":0,""y"":0},{""cat"":""32"",""src"":""16"",""x"":0,""y"":0},{""cat"":""30"",""src"":""2"",""x"":0,""y"":0},{""cat"":""14"",""src"":""13"",""x"":54,""y"":205},{""cat"":""14"",""src"":""13"",""x"":0,""y"":0},{""cat"":""32"",""src"":""5"",""x"":283,""y"":397},{""cat"":""32"",""src"":""5"",""x"":0,""y"":0},{""cat"":""32"",""src"":""8"",""x"":0,""y"":0},{""cat"":""30"",""src"":""16"",""x"":0,""y"":0},{""cat"":""14"",""src"":""6"",""x"":0,""y"":0}]","[{""cat"":14,""src"":3,""loc"":1},{""cat"":30,""src"":18,""loc"":0},{""cat"":32,""src"":16,""loc"":2},{""cat"":30,""src"":2,""loc"":5},{""cat"":14,""src"":13,""loc"":3},{""cat"":32,""src"":5,""loc"":4},{""cat"":32,""src"":8,""loc"":7},{""cat"":30,""src"":16,""loc"":6},{""cat"":14,""src"":6,""loc"":8}]","5","30,14,32,14,32,30,30,32,14,18,3,16,13,5,2,16,8,6,0,1,2,3,4,5,6,7,8,1,0,2,4,5,3,7,6,8",NA
"1215","sort_feedback","32","html-keyboard-response","83","998092","0.0-3.0-50.0","3","2020-1-8 8:35:34","LION",NA,NA,NA,NA,NA,NA,NA,NA,NA,NA,NA,NA,NA,NA
"20015","setup5",NA,"animation","84","1018108","0.0-3.0-51.0","3","2020-1-8 8:35:34","LION",NA,NA,"[{""cat"":24,""src"":6,""loc"":2},{""cat"":14,""src"":17,""loc"":8},{""cat"":21,""src"":19,""loc"":3},{""cat"":21,""src"":3,""loc"":6},{""cat"":14,""src"":10,""loc"":0},{""cat"":24,""src"":0,""loc"":5},{""cat"":14,""src"":12,""loc"":4},{""cat"":21,""src"":7,""loc"":1},{""cat"":24,""src"":10,""loc"":7}]","5","1119,1118,1116,1104,1116,1111,1103,1117,1102,10009",NA,NA,NA,NA,NA,NA,NA,NA,NA
"2177","flanker_instructions","39","html-keyboard-response","85","1020290","0.0-3.0-52.0","3","2020-1-8 8:35:34","LION",NA,NA,NA,NA,NA,NA,NA,NA,NA,NA,NA,NA,NA,NA
"664","flanker_test","37","image-keyboard-response","86","1021983","0.0-3.0-53.0-0.0","3","2020-1-8 8:35:34","LION",NA,NA,NA,NA,NA,"congruent","left","TRUE",NA,NA,NA,NA,NA,NA
"595","flanker_test","39","image-keyboard-response","87","1023731","0.0-3.0-53.0-0.1","3","2020-1-8 8:35:34","LION",NA,NA,NA,NA,NA,"incongruent","right","TRUE",NA,NA,NA,NA,NA,NA
"662","flanker_test","39","image-keyboard-response","88","1025080","0.0-3.0-53.0-0.2","3","2020-1-8 8:35:34","LION",NA,NA,NA,NA,NA,"congruent","right","TRUE",NA,NA,NA,NA,NA,NA
"371","flanker_test","37","image-keyboard-response","89","1026235","0.0-3.0-53.0-0.3","3","2020-1-8 8:35:34","LION",NA,NA,NA,NA,NA,"incongruent","left","TRUE",NA,NA,NA,NA,NA,NA
"51299","sort_trial",NA,"free-sort","90","1078544","0.0-3.0-54.0","3","2020-1-8 8:35:34","LION",NA,NA,NA,NA,NA,NA,NA,NA,"[{""cat"":24,""src"":6,""x"":47,""y"":21},{""cat"":14,""src"":17,""x"":15,""y"":188},{""cat"":21,""src"":19,""x"":37,""y"":444},{""cat"":21,""src"":3,""x"":35,""y"":257},{""cat"":14,""src"":10,""x"":60,""y"":83},{""cat"":24,""src"":0,""x"":27,""y"":376},{""cat"":14,""src"":12,""x"":75,""y"":303},{""cat"":21,""src"":7,""x"":51,""y"":485},{""cat"":24,""src"":10,""x"":37,""y"":147}]","[{""cat"":""21"",""src"":""7"",""x"":0,""y"":0},{""cat"":""14"",""src"":""10"",""x"":0,""y"":0},{""cat"":""24"",""src"":""6"",""x"":0,""y"":0},{""cat"":""24"",""src"":""0"",""x"":0,""y"":0},{""cat"":""14"",""src"":""12"",""x"":0,""y"":0},{""cat"":""21"",""src"":""19"",""x"":0,""y"":0},{""cat"":""24"",""src"":""10"",""x"":0,""y"":0},{""cat"":""21"",""src"":""3"",""x"":0,""y"":0},{""cat"":""14"",""src"":""17"",""x"":0,""y"":0}]","[{""cat"":21,""src"":7,""loc"":1},{""cat"":14,""src"":10,""loc"":0},{""cat"":24,""src"":6,""loc"":2},{""cat"":24,""src"":0,""loc"":5},{""cat"":14,""src"":12,""loc"":4},{""cat"":21,""src"":19,""loc"":3},{""cat"":24,""src"":10,""loc"":7},{""cat"":21,""src"":3,""loc"":6},{""cat"":14,""src"":17,""loc"":8}]","9","14,21,24,21,14,24,21,24,14,10,7,6,19,12,0,3,10,17,0,1,2,3,4,5,6,7,8,1,0,2,5,4,3,7,6,8",NA
"1812","sort_feedback","32","html-keyboard-response","91","1080360","0.0-3.0-55.0","3","2020-1-8 8:35:34","LION",NA,NA,NA,NA,NA,NA,NA,NA,NA,NA,NA,NA,NA,NA
"19970","setup1",NA,"animation","92","1100331","0.0-3.0-56.0","3","2020-1-8 8:35:34","LION",NA,NA,"[{""cat"":13,""src"":13,""loc"":7},{""cat"":13,""src"":7,""loc"":6},{""cat"":13,""src"":8,""loc"":8},{""cat"":12,""src"":18,""loc"":1},{""cat"":12,""src"":4,""loc"":2},{""cat"":12,""src"":8,""loc"":0},{""cat"":1,""src"":12,""loc"":3},{""cat"":1,""src"":9,""loc"":5},{""cat"":1,""src"":4,""loc"":4}]","1","1105,1103,1112,1102,1107,1109,1102,1117,1111,10002",NA,NA,NA,NA,NA,NA,NA,NA,NA
"2323","flanker_instructions","39","html-keyboard-response","93","1102658","0.0-3.0-57.0","3","2020-1-8 8:35:34","LION",NA,NA,NA,NA,NA,NA,NA,NA,NA,NA,NA,NA,NA,NA
"618","flanker_test","37","image-keyboard-response","94","1104295","0.0-3.0-58.0-0.0","3","2020-1-8 8:35:34","LION",NA,NA,NA,NA,NA,"incongruent","left","TRUE",NA,NA,NA,NA,NA,NA
"555","flanker_test","37","image-keyboard-response","95","1105473","0.0-3.0-58.0-0.1","3","2020-1-8 8:35:34","LION",NA,NA,NA,NA,NA,"congruent","left","TRUE",NA,NA,NA,NA,NA,NA
"480","flanker_test","39","image-keyboard-response","96","1107146","0.0-3.0-58.0-0.2","3","2020-1-8 8:35:34","LION",NA,NA,NA,NA,NA,"incongruent","right","TRUE",NA,NA,NA,NA,NA,NA
"460","flanker_test","39","image-keyboard-response","97","1108494","0.0-3.0-58.0-0.3","3","2020-1-8 8:35:34","LION",NA,NA,NA,NA,NA,"congruent","right","TRUE",NA,NA,NA,NA,NA,NA
"47405","sort_trial",NA,"free-sort","98","1156513","0.0-3.0-59.0","3","2020-1-8 8:35:34","LION",NA,NA,NA,NA,NA,NA,NA,NA,"[{""cat"":13,""src"":13,""x"":46,""y"":127},{""cat"":13,""src"":7,""x"":13,""y"":385},{""cat"":13,""src"":8,""x"":19,""y"":316},{""cat"":12,""src"":18,""x"":66,""y"":484},{""cat"":12,""src"":4,""x"":68,""y"":79},{""cat"":12,""src"":8,""x"":6,""y"":420},{""cat"":1,""src"":12,""x"":70,""y"":199},{""cat"":1,""src"":9,""x"":76,""y"":17},{""cat"":1,""src"":4,""x"":68,""y"":265}]","[{""cat"":""12"",""src"":""18"",""x"":0,""y"":0},{""cat"":""12"",""src"":""8"",""x"":0,""y"":0},{""cat"":""12"",""src"":""4"",""x"":0,""y"":0},{""cat"":""1"",""src"":""9"",""x"":0,""y"":0},{""cat"":""1"",""src"":""4"",""x"":0,""y"":0},{""cat"":""1"",""src"":""12"",""x"":0,""y"":0},{""cat"":""13"",""src"":""13"",""x"":0,""y"":0},{""cat"":""13"",""src"":""8"",""x"":0,""y"":0},{""cat"":""13"",""src"":""7"",""x"":0,""y"":0}]","[{""cat"":12,""src"":18,""loc"":1},{""cat"":12,""src"":8,""loc"":0},{""cat"":12,""src"":4,""loc"":2},{""cat"":1,""src"":9,""loc"":5},{""cat"":1,""src"":4,""loc"":4},{""cat"":1,""src"":12,""loc"":3},{""cat"":13,""src"":13,""loc"":7},{""cat"":13,""src"":8,""loc"":8},{""cat"":13,""src"":7,""loc"":6}]","9","12,12,12,1,1,1,13,13,13,8,18,4,12,4,9,7,13,8,0,1,2,3,4,5,6,7,8,1,0,2,5,4,3,8,6,7",NA
"5999","sort_feedback","32","html-keyboard-response","99","1162515","0.0-3.0-60.0","3","2020-1-8 8:35:34","LION",NA,NA,NA,NA,NA,NA,NA,NA,NA,NA,NA,NA,NA,NA
"20023","setup3",NA,"animation","100","1182539","0.0-3.0-61.0","3","2020-1-8 8:35:34","LION",NA,NA,"[{""cat"":17,""src"":5,""loc"":0},{""cat"":8,""src"":6,""loc"":7},{""cat"":29,""src"":14,""loc"":5},{""cat"":17,""src"":13,""loc"":1},{""cat"":8,""src"":3,""loc"":6},{""cat"":29,""src"":5,""loc"":4},{""cat"":29,""src"":19,""loc"":3},{""cat"":8,""src"":9,""loc"":8},{""cat"":17,""src"":6,""loc"":2}]","3","1126,1102,1119,1102,1120,1103,1111,1110,1118,10012",NA,NA,NA,NA,NA,NA,NA,NA,NA
"2545","flanker_instructions","39","html-keyboard-response","101","1185089","0.0-3.0-62.0","3","2020-1-8 8:35:34","LION",NA,NA,NA,NA,NA,NA,NA,NA,NA,NA,NA,NA,NA,NA
"563","flanker_test","39","image-keyboard-response","102","1186658","0.0-3.0-63.0-0.0","3","2020-1-8 8:35:34","LION",NA,NA,NA,NA,NA,"congruent","right","TRUE",NA,NA,NA,NA,NA,NA
"633","flanker_test","39","image-keyboard-response","103","1188296","0.0-3.0-63.0-0.1","3","2020-1-8 8:35:34","LION",NA,NA,NA,NA,NA,"incongruent","right","TRUE",NA,NA,NA,NA,NA,NA
"499","flanker_test","37","image-keyboard-response","104","1189247","0.0-3.0-63.0-0.2","3","2020-1-8 8:35:34","LION",NA,NA,NA,NA,NA,"incongruent","left","TRUE",NA,NA,NA,NA,NA,NA
"478","flanker_test","37","image-keyboard-response","105","1190457","0.0-3.0-63.0-0.3","3","2020-1-8 8:35:34","LION",NA,NA,NA,NA,NA,"congruent","left","TRUE",NA,NA,NA,NA,NA,NA
"53507","sort_trial",NA,"free-sort","106","1244943","0.0-3.0-64.0","3","2020-1-8 8:35:34","LION",NA,NA,NA,NA,NA,NA,NA,NA,"[{""cat"":17,""src"":5,""x"":56,""y"":72},{""cat"":8,""src"":6,""x"":55,""y"":436},{""cat"":29,""src"":14,""x"":9,""y"":252},{""cat"":17,""src"":13,""x"":26,""y"":19},{""cat"":8,""src"":3,""x"":24,""y"":371},{""cat"":29,""src"":5,""x"":79,""y"":305},{""cat"":29,""src"":19,""x"":53,""y"":481},{""cat"":8,""src"":9,""x"":9,""y"":123},{""cat"":17,""src"":6,""x"":73,""y"":191}]","[{""cat"":""17"",""src"":""13"",""x"":0,""y"":0},{""cat"":""17"",""src"":""5"",""x"":133,""y"":76},{""cat"":""17"",""src"":""5"",""x"":56,""y"":71},{""cat"":""17"",""src"":""5"",""x"":0,""y"":0},{""cat"":""17"",""src"":""6"",""x"":0,""y"":0},{""cat"":""29"",""src"":""14"",""x"":0,""y"":0},{""cat"":""29"",""src"":""5"",""x"":0,""y"":0},{""cat"":""29"",""src"":""19"",""x"":0,""y"":0},{""cat"":""8"",""src"":""3"",""x"":0,""y"":0},{""cat"":""8"",""src"":""9"",""x"":0,""y"":0},{""cat"":""8"",""src"":""6"",""x"":0,""y"":0}]","[{""cat"":17,""src"":13,""loc"":1},{""cat"":17,""src"":5,""loc"":0},{""cat"":17,""src"":6,""loc"":2},{""cat"":29,""src"":14,""loc"":5},{""cat"":29,""src"":5,""loc"":4},{""cat"":29,""src"":19,""loc"":3},{""cat"":8,""src"":3,""loc"":6},{""cat"":8,""src"":9,""loc"":8},{""cat"":8,""src"":6,""loc"":7}]","9","17,17,17,29,29,29,8,8,8,5,13,6,19,5,14,3,6,9,0,1,2,3,4,5,6,7,8,1,0,2,5,4,3,6,8,7",NA
"6230","sort_feedback","32","html-keyboard-response","107","1251177","0.0-3.0-65.0","3","2020-1-8 8:35:34","LION",NA,NA,NA,NA,NA,NA,NA,NA,NA,NA,NA,NA,NA,NA
"20007","setup2",NA,"animation","108","1271185","0.0-3.0-66.0","3","2020-1-8 8:35:34","LION",NA,NA,"[{""cat"":30,""src"":15,""loc"":3},{""cat"":14,""src"":1,""loc"":5},{""cat"":16,""src"":16,""loc"":4},{""cat"":30,""src"":1,""loc"":0},{""cat"":14,""src"":0,""loc"":1},{""cat"":16,""src"":5,""loc"":2},{""cat"":16,""src"":13,""loc"":6},{""cat"":14,""src"":9,""loc"":8},{""cat"":30,""src"":7,""loc"":7}]","2","1119,1117,1104,1117,1104,1117,1104,1103,1104,10018",NA,NA,NA,NA,NA,NA,NA,NA,NA
"1780","flanker_instructions","39","html-keyboard-response","109","1272971","0.0-3.0-67.0","3","2020-1-8 8:35:34","LION",NA,NA,NA,NA,NA,NA,NA,NA,NA,NA,NA,NA,NA,NA
NA,"flanker_test",NA,"image-keyboard-response","110","1274889","0.0-3.0-68.0-0.0","3","2020-1-8 8:35:34","LION",NA,NA,NA,NA,NA,"incongruent","right","FALSE",NA,NA,NA,NA,NA,NA
"668","flanker_test","37","image-keyboard-response","111","1275895","0.0-3.0-68.0-0.1","3","2020-1-8 8:35:34","LION",NA,NA,NA,NA,NA,"incongruent","left","TRUE",NA,NA,NA,NA,NA,NA
"786","flanker_test","37","image-keyboard-response","112","1277387","0.0-3.0-68.0-0.2","3","2020-1-8 8:35:34","LION",NA,NA,NA,NA,NA,"congruent","left","TRUE",NA,NA,NA,NA,NA,NA
"457","flanker_test","39","image-keyboard-response","113","1278326","0.0-3.0-68.0-0.3","3","2020-1-8 8:35:34","LION",NA,NA,NA,NA,NA,"congruent","right","TRUE",NA,NA,NA,NA,NA,NA
"48058","sort_trial",NA,"free-sort","114","1326719","0.0-3.0-69.0","3","2020-1-8 8:35:34","LION",NA,NA,NA,NA,NA,NA,NA,NA,"[{""cat"":30,""src"":15,""x"":15,""y"":382},{""cat"":14,""src"":1,""x"":73,""y"":307},{""cat"":16,""src"":16,""x"":40,""y"":265},{""cat"":30,""src"":1,""x"":1,""y"":141},{""cat"":14,""src"":0,""x"":31,""y"":487},{""cat"":16,""src"":5,""x"":79,""y"":80},{""cat"":16,""src"":13,""x"":6,""y"":440},{""cat"":14,""src"":9,""x"":71,""y"":9},{""cat"":30,""src"":7,""x"":77,""y"":185}]","[{""cat"":""30"",""src"":""7"",""x"":0,""y"":0},{""cat"":""16"",""src"":""13"",""x"":0,""y"":0},{""cat"":""14"",""src"":""9"",""x"":0,""y"":0},{""cat"":""14"",""src"":""1"",""x"":433,""y"":287},{""cat"":""14"",""src"":""1"",""x"":0,""y"":0},{""cat"":""16"",""src"":""16"",""x"":0,""y"":0},{""cat"":""30"",""src"":""15"",""x"":0,""y"":0},{""cat"":""30"",""src"":""1"",""x"":0,""y"":0},{""cat"":""16"",""src"":""5"",""x"":0,""y"":0},{""cat"":""14"",""src"":""0"",""x"":0,""y"":0}]","[{""cat"":30,""src"":7,""loc"":7},{""cat"":16,""src"":13,""loc"":6},{""cat"":14,""src"":9,""loc"":8},{""cat"":14,""src"":1,""loc"":5},{""cat"":16,""src"":16,""loc"":4},{""cat"":30,""src"":15,""loc"":3},{""cat"":30,""src"":1,""loc"":0},{""cat"":16,""src"":5,""loc"":2},{""cat"":14,""src"":0,""loc"":1}]","9","30,14,16,30,16,14,16,30,14,1,0,5,15,16,1,13,7,9,0,1,2,3,4,5,6,7,8,6,8,7,5,4,3,1,0,2",NA
"8433","sort_feedback","32","html-keyboard-response","115","1335157","0.0-3.0-70.0","3","2020-1-8 8:35:34","LION",NA,NA,NA,NA,NA,NA,NA,NA,NA,NA,NA,NA,NA,NA
"20014","setup4",NA,"animation","116","1355173","0.0-3.0-71.0","3","2020-1-8 8:35:34","LION",NA,NA,"[{""cat"":18,""src"":6,""loc"":1},{""cat"":18,""src"":2,""loc"":8},{""cat"":18,""src"":0,""loc"":3},{""cat"":26,""src"":14,""loc"":7},{""cat"":26,""src"":13,""loc"":5},{""cat"":26,""src"":11,""loc"":0},{""cat"":29,""src"":16,""loc"":6},{""cat"":29,""src"":0,""loc"":2},{""cat"":29,""src"":6,""loc"":4}]","4","1108,1102,1116,1102,1124,1118,1118,1118,1104,10004",NA,NA,NA,NA,NA,NA,NA,NA,NA
"654","flanker_instructions","39","html-keyboard-response","117","1355831","0.0-3.0-72.0","3","2020-1-8 8:35:34","LION",NA,NA,NA,NA,NA,NA,NA,NA,NA,NA,NA,NA,NA,NA
"853","flanker_test","37","image-keyboard-response","118","1357706","0.0-3.0-73.0-0.0","3","2020-1-8 8:35:34","LION",NA,NA,NA,NA,NA,"incongruent","left","TRUE",NA,NA,NA,NA,NA,NA
"559","flanker_test","37","image-keyboard-response","119","1359242","0.0-3.0-73.0-0.1","3","2020-1-8 8:35:34","LION",NA,NA,NA,NA,NA,"congruent","left","TRUE",NA,NA,NA,NA,NA,NA
"433","flanker_test","39","image-keyboard-response","120","1360638","0.0-3.0-73.0-0.2","3","2020-1-8 8:35:34","LION",NA,NA,NA,NA,NA,"congruent","right","TRUE",NA,NA,NA,NA,NA,NA
"433","flanker_test","39","image-keyboard-response","121","1361896","0.0-3.0-73.0-0.3","3","2020-1-8 8:35:34","LION",NA,NA,NA,NA,NA,"incongruent","right","TRUE",NA,NA,NA,NA,NA,NA
"47791","sort_trial",NA,"free-sort","122","1410460","0.0-3.0-74.0","3","2020-1-8 8:35:34","LION",NA,NA,NA,NA,NA,NA,NA,NA,"[{""cat"":18,""src"":6,""x"":23,""y"":311},{""cat"":18,""src"":2,""x"":6,""y"":128},{""cat"":18,""src"":0,""x"":68,""y"":191},{""cat"":26,""src"":14,""x"":15,""y"":10},{""cat"":26,""src"":13,""x"":81,""y"":499},{""cat"":26,""src"":11,""x"":22,""y"":388},{""cat"":29,""src"":16,""x"":28,""y"":64},{""cat"":29,""src"":0,""x"":69,""y"":265},{""cat"":29,""src"":6,""x"":46,""y"":419}]","[{""cat"":""18"",""src"":""6"",""x"":0,""y"":0},{""cat"":""26"",""src"":""11"",""x"":0,""y"":0},{""cat"":""29"",""src"":""0"",""x"":0,""y"":0},{""cat"":""26"",""src"":""13"",""x"":0,""y"":0},{""cat"":""29"",""src"":""6"",""x"":0,""y"":0},{""cat"":""18"",""src"":""0"",""x"":0,""y"":0},{""cat"":""26"",""src"":""14"",""x"":0,""y"":0},{""cat"":""29"",""src"":""16"",""x"":0,""y"":0},{""cat"":""18"",""src"":""2"",""x"":0,""y"":0}]","[{""cat"":18,""src"":6,""loc"":1},{""cat"":26,""src"":11,""loc"":0},{""cat"":29,""src"":0,""loc"":2},{""cat"":26,""src"":13,""loc"":5},{""cat"":29,""src"":6,""loc"":4},{""cat"":18,""src"":0,""loc"":3},{""cat"":26,""src"":14,""loc"":7},{""cat"":29,""src"":16,""loc"":6},{""cat"":18,""src"":2,""loc"":8}]","9","26,18,29,18,29,26,29,26,18,11,6,0,0,6,13,16,14,2,0,1,2,3,4,5,6,7,8,1,0,2,5,4,3,7,6,8",NA
"2627","sort_feedback","32","html-keyboard-response","123","1413091","0.0-3.0-75.0","3","2020-1-8 8:35:34","LION",NA,NA,NA,NA,NA,NA,NA,NA,NA,NA,NA,NA,NA,NA
"19986","setup3",NA,"animation","124","1433079","0.0-3.0-76.0","3","2020-1-8 8:35:34","LION",NA,NA,"[{""cat"":1,""src"":9,""loc"":1},{""cat"":18,""src"":19,""loc"":6},{""cat"":26,""src"":12,""loc"":3},{""cat"":1,""src"":11,""loc"":2},{""cat"":18,""src"":6,""loc"":8},{""cat"":26,""src"":19,""loc"":4},{""cat"":26,""src"":16,""loc"":5},{""cat"":18,""src"":1,""loc"":7},{""cat"":1,""src"":12,""loc"":0}]","3","1110,1101,1104,1105,1122,1113,1112,1103,1113,10003",NA,NA,NA,NA,NA,NA,NA,NA,NA
"75876","flanker_instructions","39","html-keyboard-response","125","1508960","0.0-3.0-77.0","3","2020-1-8 8:35:34","LION",NA,NA,NA,NA,NA,NA,NA,NA,NA,NA,NA,NA,NA,NA
"562","flanker_test","39","image-keyboard-response","126","1510538","0.0-3.0-78.0-0.0","3","2020-1-8 8:35:34","LION",NA,NA,NA,NA,NA,"congruent","right","TRUE",NA,NA,NA,NA,NA,NA
"496","flanker_test","39","image-keyboard-response","127","1511930","0.0-3.0-78.0-0.1","3","2020-1-8 8:35:34","LION",NA,NA,NA,NA,NA,"incongruent","right","TRUE",NA,NA,NA,NA,NA,NA
"465","flanker_test","37","image-keyboard-response","128","1512942","0.0-3.0-78.0-0.2","3","2020-1-8 8:35:34","LION",NA,NA,NA,NA,NA,"incongruent","left","TRUE",NA,NA,NA,NA,NA,NA
"347","flanker_test","37","image-keyboard-response","129","1514414","0.0-3.0-78.0-0.3","3","2020-1-8 8:35:34","LION",NA,NA,NA,NA,NA,"congruent","left","TRUE",NA,NA,NA,NA,NA,NA
"64201","sort_trial",NA,"free-sort","130","1579455","0.0-3.0-79.0","3","2020-1-8 8:35:34","LION",NA,NA,NA,NA,NA,NA,NA,NA,"[{""cat"":1,""src"":9,""x"":80,""y"":422},{""cat"":18,""src"":19,""x"":42,""y"":28},{""cat"":26,""src"":12,""x"":10,""y"":370},{""cat"":1,""src"":11,""x"":37,""y"":200},{""cat"":18,""src"":6,""x"":74,""y"":494},{""cat"":26,""src"":19,""x"":58,""y"":324},{""cat"":26,""src"":16,""x"":60,""y"":260},{""cat"":18,""src"":1,""x"":12,""y"":145},{""cat"":1,""src"":12,""x"":23,""y"":70}]","[{""cat"":""1"",""src"":""9"",""x"":0,""y"":0},{""cat"":""1"",""src"":""12"",""x"":0,""y"":0},{""cat"":""1"",""src"":""11"",""x"":0,""y"":0},{""cat"":""26"",""src"":""16"",""x"":0,""y"":0},{""cat"":""26"",""src"":""19"",""x"":0,""y"":0},{""cat"":""26"",""src"":""12"",""x"":0,""y"":0},{""cat"":""18"",""src"":""19"",""x"":0,""y"":0},{""cat"":""18"",""src"":""1"",""x"":12,""y"":156},{""cat"":""18"",""src"":""1"",""x"":288,""y"":384},{""cat"":""18"",""src"":""1"",""x"":0,""y"":0},{""cat"":""18"",""src"":""6"",""x"":0,""y"":0}]","[{""cat"":1,""src"":9,""loc"":1},{""cat"":1,""src"":12,""loc"":0},{""cat"":1,""src"":11,""loc"":2},{""cat"":26,""src"":16,""loc"":5},{""cat"":26,""src"":19,""loc"":4},{""cat"":26,""src"":12,""loc"":3},{""cat"":18,""src"":19,""loc"":6},{""cat"":18,""src"":1,""loc"":7},{""cat"":18,""src"":6,""loc"":8}]","9","1,1,1,26,26,26,18,18,18,12,9,11,12,19,16,19,1,6,0,1,2,3,4,5,6,7,8,1,0,2,5,4,3,6,7,8",NA
"1123","sort_feedback","32","html-keyboard-response","131","1580581","0.0-3.0-80.0","3","2020-1-8 8:35:34","LION",NA,NA,NA,NA,NA,NA,NA,NA,NA,NA,NA,NA,NA,NA
"20009","setup4",NA,"animation","132","1600592","0.0-3.0-81.0","3","2020-1-8 8:35:34","LION",NA,NA,"[{""cat"":3,""src"":8,""loc"":6},{""cat"":3,""src"":16,""loc"":5},{""cat"":3,""src"":4,""loc"":1},{""cat"":28,""src"":17,""loc"":3},{""cat"":28,""src"":11,""loc"":7},{""cat"":28,""src"":9,""loc"":0},{""cat"":17,""src"":2,""loc"":8},{""cat"":17,""src"":3,""loc"":4},{""cat"":17,""src"":16,""loc"":2}]","4","1118,1104,1103,1118,1110,1116,1117,1103,1117,10003",NA,NA,NA,NA,NA,NA,NA,NA,NA
"29814","flanker_instructions","39","html-keyboard-response","133","1630410","0.0-3.0-82.0","3","2020-1-8 8:35:34","LION",NA,NA,NA,NA,NA,NA,NA,NA,NA,NA,NA,NA,NA,NA
NA,"flanker_test",NA,"image-keyboard-response","134","1632319","0.0-3.0-83.0-0.0","3","2020-1-8 8:35:34","LION",NA,NA,NA,NA,NA,"congruent","left","FALSE",NA,NA,NA,NA,NA,NA
"528","flanker_test","39","image-keyboard-response","135","1633765","0.0-3.0-83.0-0.1","3","2020-1-8 8:35:34","LION",NA,NA,NA,NA,NA,"congruent","right","TRUE",NA,NA,NA,NA,NA,NA
"560","flanker_test","37","image-keyboard-response","136","1635270","0.0-3.0-83.0-0.2","3","2020-1-8 8:35:34","LION",NA,NA,NA,NA,NA,"incongruent","left","TRUE",NA,NA,NA,NA,NA,NA
"398","flanker_test","39","image-keyboard-response","137","1636773","0.0-3.0-83.0-0.3","3","2020-1-8 8:35:34","LION",NA,NA,NA,NA,NA,"incongruent","right","TRUE",NA,NA,NA,NA,NA,NA
"45662","sort_trial",NA,"free-sort","138","1682784","0.0-3.0-84.0","3","2020-1-8 8:35:34","LION",NA,NA,NA,NA,NA,NA,NA,NA,"[{""cat"":3,""src"":8,""x"":33,""y"":324},{""cat"":3,""src"":16,""x"":36,""y"":438},{""cat"":3,""src"":4,""x"":53,""y"":13},{""cat"":28,""src"":17,""x"":36,""y"":484},{""cat"":28,""src"":11,""x"":35,""y"":190},{""cat"":28,""src"":9,""x"":51,""y"":366},{""cat"":17,""src"":2,""x"":81,""y"":81},{""cat"":17,""src"":3,""x"":11,""y"":143},{""cat"":17,""src"":16,""x"":38,""y"":250}]","[{""cat"":""3"",""src"":""4"",""x"":0,""y"":0},{""cat"":""28"",""src"":""9"",""x"":0,""y"":0},{""cat"":""17"",""src"":""16"",""x"":0,""y"":0},{""cat"":""3"",""src"":""16"",""x"":73,""y"":410},{""cat"":""3"",""src"":""16"",""x"":75,""y"":411},{""cat"":""3"",""src"":""16"",""x"":0,""y"":0},{""cat"":""17"",""src"":""3"",""x"":0,""y"":0},{""cat"":""28"",""src"":""17"",""x"":0,""y"":0},{""cat"":""3"",""src"":""8"",""x"":0,""y"":0},{""cat"":""17"",""src"":""2"",""x"":0,""y"":0},{""cat"":""28"",""src"":""11"",""x"":0,""y"":0}]","[{""cat"":3,""src"":4,""loc"":1},{""cat"":28,""src"":9,""loc"":0},{""cat"":17,""src"":16,""loc"":2},{""cat"":3,""src"":16,""loc"":5},{""cat"":17,""src"":3,""loc"":4},{""cat"":28,""src"":17,""loc"":3},{""cat"":3,""src"":8,""loc"":6},{""cat"":17,""src"":2,""loc"":8},{""cat"":28,""src"":11,""loc"":7}]","9","28,3,17,28,17,3,3,28,17,9,4,16,17,3,16,8,11,2,0,1,2,3,4,5,6,7,8,1,0,2,5,4,3,6,8,7",NA
"7529","sort_feedback","32","html-keyboard-response","139","1690316","0.0-3.0-85.0","3","2020-1-8 8:35:34","LION",NA,NA,NA,NA,NA,NA,NA,NA,NA,NA,NA,NA,NA,NA
"19991","setup1",NA,"animation","140","1710309","0.0-3.0-86.0","3","2020-1-8 8:35:34","LION",NA,NA,"[{""cat"":24,""src"":9,""loc"":2},{""cat"":24,""src"":18,""loc"":0},{""cat"":24,""src"":10,""loc"":1},{""cat"":28,""src"":6,""loc"":6},{""cat"":28,""src"":4,""loc"":8},{""cat"":28,""src"":5,""loc"":7},{""cat"":32,""src"":15,""loc"":4},{""cat"":32,""src"":3,""loc"":5},{""cat"":32,""src"":18,""loc"":3}]","1","1106,1105,1111,1105,1117,1114,1103,1106,1109,10015",NA,NA,NA,NA,NA,NA,NA,NA,NA
"121622","flanker_instructions","39","html-keyboard-response","141","1831936","0.0-3.0-87.0","3","2020-1-8 8:35:34","LION",NA,NA,NA,NA,NA,NA,NA,NA,NA,NA,NA,NA,NA,NA
"683","flanker_test","37","image-keyboard-response","142","1833624","0.0-3.0-88.0-0.0","3","2020-1-8 8:35:34","LION",NA,NA,NA,NA,NA,"congruent","left","TRUE",NA,NA,NA,NA,NA,NA
"540","flanker_test","39","image-keyboard-response","143","1834909","0.0-3.0-88.0-0.1","3","2020-1-8 8:35:34","LION",NA,NA,NA,NA,NA,"congruent","right","TRUE",NA,NA,NA,NA,NA,NA
"642","flanker_test","39","image-keyboard-response","144","1836217","0.0-3.0-88.0-0.2","3","2020-1-8 8:35:34","LION",NA,NA,NA,NA,NA,"incongruent","right","TRUE",NA,NA,NA,NA,NA,NA
"478","flanker_test","37","image-keyboard-response","145","1837430","0.0-3.0-88.0-0.3","3","2020-1-8 8:35:34","LION",NA,NA,NA,NA,NA,"incongruent","left","TRUE",NA,NA,NA,NA,NA,NA
"46804","sort_trial",NA,"free-sort","146","1884839","0.0-3.0-89.0","3","2020-1-8 8:35:34","LION",NA,NA,NA,NA,NA,NA,NA,NA,"[{""cat"":24,""src"":9,""x"":52,""y"":180},{""cat"":24,""src"":18,""x"":73,""y"":84},{""cat"":24,""src"":10,""x"":52,""y"":385},{""cat"":28,""src"":6,""x"":47,""y"":21},{""cat"":28,""src"":4,""x"":63,""y"":261},{""cat"":28,""src"":5,""x"":15,""y"":440},{""cat"":32,""src"":15,""x"":68,""y"":487},{""cat"":32,""src"":3,""x"":34,""y"":141},{""cat"":32,""src"":18,""x"":39,""y"":328}]","[{""cat"":""32"",""src"":""15"",""x"":0,""y"":0},{""cat"":""32"",""src"":""3"",""x"":0,""y"":0},{""cat"":""32"",""src"":""18"",""x"":0,""y"":0},{""cat"":""28"",""src"":""5"",""x"":0,""y"":0},{""cat"":""28"",""src"":""6"",""x"":0,""y"":0},{""cat"":""28"",""src"":""4"",""x"":0,""y"":0},{""cat"":""24"",""src"":""10"",""x"":0,""y"":0},{""cat"":""24"",""src"":""18"",""x"":0,""y"":0},{""cat"":""24"",""src"":""9"",""x"":0,""y"":0}]","[{""cat"":32,""src"":15,""loc"":4},{""cat"":32,""src"":3,""loc"":5},{""cat"":32,""src"":18,""loc"":3},{""cat"":28,""src"":5,""loc"":7},{""cat"":28,""src"":6,""loc"":6},{""cat"":28,""src"":4,""loc"":8},{""cat"":24,""src"":10,""loc"":1},{""cat"":24,""src"":18,""loc"":0},{""cat"":24,""src"":9,""loc"":2}]","9","24,24,24,32,32,32,28,28,28,18,10,9,18,15,3,6,5,4,0,1,2,3,4,5,6,7,8,7,6,8,2,0,1,4,3,5",NA
"6784","sort_feedback","32","html-keyboard-response","147","1891626","0.0-3.0-90.0","3","2020-1-8 8:35:34","LION",NA,NA,NA,NA,NA,NA,NA,NA,NA,NA,NA,NA,NA,NA
"20031","setup5",NA,"animation","148","1911659","0.0-3.0-91.0","3","2020-1-8 8:35:34","LION",NA,NA,"[{""cat"":13,""src"":12,""loc"":8},{""cat"":33,""src"":15,""loc"":1},{""cat"":32,""src"":6,""loc"":3},{""cat"":13,""src"":15,""loc"":0},{""cat"":33,""src"":11,""loc"":5},{""cat"":32,""src"":4,""loc"":6},{""cat"":32,""src"":14,""loc"":2},{""cat"":13,""src"":14,""loc"":4},{""cat"":33,""src"":4,""loc"":7}]","5","1124,1101,1118,1104,1112,1119,1115,1116,1117,10005",NA,NA,NA,NA,NA,NA,NA,NA,NA
"2540","flanker_instructions","39","html-keyboard-response","149","1914204","0.0-3.0-92.0","3","2020-1-8 8:35:34","LION",NA,NA,NA,NA,NA,NA,NA,NA,NA,NA,NA,NA,NA,NA
"562","flanker_test","37","image-keyboard-response","150","1915770","0.0-3.0-93.0-0.0","3","2020-1-8 8:35:34","LION",NA,NA,NA,NA,NA,"congruent","left","TRUE",NA,NA,NA,NA,NA,NA
"486","flanker_test","39","image-keyboard-response","151","1917169","0.0-3.0-93.0-0.1","3","2020-1-8 8:35:34","LION",NA,NA,NA,NA,NA,"incongruent","right","TRUE",NA,NA,NA,NA,NA,NA
"526","flanker_test","39","image-keyboard-response","152","1918580","0.0-3.0-93.0-0.2","3","2020-1-8 8:35:34","LION",NA,NA,NA,NA,NA,"congruent","right","TRUE",NA,NA,NA,NA,NA,NA
"446","flanker_test","37","image-keyboard-response","153","1919336","0.0-3.0-93.0-0.3","3","2020-1-8 8:35:34","LION",NA,NA,NA,NA,NA,"incongruent","left","TRUE",NA,NA,NA,NA,NA,NA
"54057","sort_trial",NA,"free-sort","154","1974037","0.0-3.0-94.0","3","2020-1-8 8:35:34","LION",NA,NA,NA,NA,NA,NA,NA,NA,"[{""cat"":13,""src"":12,""x"":73,""y"":76},{""cat"":33,""src"":15,""x"":53,""y"":428},{""cat"":32,""src"":6,""x"":39,""y"":367},{""cat"":13,""src"":15,""x"":81,""y"":245},{""cat"":33,""src"":11,""x"":53,""y"":317},{""cat"":32,""src"":4,""x"":60,""y"":126},{""cat"":32,""src"":14,""x"":24,""y"":486},{""cat"":13,""src"":14,""x"":74,""y"":1},{""cat"":33,""src"":4,""x"":15,""y"":185}]","[{""cat"":""33"",""src"":""15"",""x"":435,""y"":77},{""cat"":""33"",""src"":""15"",""x"":0,""y"":0},{""cat"":""13"",""src"":""15"",""x"":0,""y"":0},{""cat"":""32"",""src"":""14"",""x"":30,""y"":480},{""cat"":""32"",""src"":""14"",""x"":397,""y"":182},{""cat"":""32"",""src"":""14"",""x"":0,""y"":0},{""cat"":""32"",""src"":""4"",""x"":0,""y"":0},{""cat"":""33"",""src"":""4"",""x"":0,""y"":0},{""cat"":""13"",""src"":""12"",""x"":0,""y"":0},{""cat"":""33"",""src"":""11"",""x"":0,""y"":0},{""cat"":""13"",""src"":""14"",""x"":0,""y"":0},{""cat"":""32"",""src"":""6"",""x"":0,""y"":0}]","[{""cat"":33,""src"":15,""loc"":1},{""cat"":13,""src"":15,""loc"":0},{""cat"":32,""src"":14,""loc"":2},{""cat"":32,""src"":4,""loc"":6},{""cat"":33,""src"":4,""loc"":7},{""cat"":13,""src"":12,""loc"":8},{""cat"":33,""src"":11,""loc"":5},{""cat"":13,""src"":14,""loc"":4},{""cat"":32,""src"":6,""loc"":3}]","9","13,33,32,32,13,33,32,33,13,15,15,14,6,14,11,4,4,12,0,1,2,3,4,5,6,7,8,1,0,2,8,7,6,3,4,5",NA
"6454","sort_feedback","32","html-keyboard-response","155","1980496","0.0-3.0-95.0","3","2020-1-8 8:35:34","LION",NA,NA,NA,NA,NA,NA,NA,NA,NA,NA,NA,NA,NA,NA
"19961","setup2",NA,"animation","156","2000458","0.0-3.0-96.0","3","2020-1-8 8:35:34","LION",NA,NA,"[{""cat"":20,""src"":6,""loc"":8},{""cat"":30,""src"":7,""loc"":7},{""cat"":28,""src"":14,""loc"":6},{""cat"":20,""src"":19,""loc"":2},{""cat"":28,""src"":16,""loc"":0},{""cat"":30,""src"":11,""loc"":1},{""cat"":28,""src"":11,""loc"":3},{""cat"":30,""src"":12,""loc"":5},{""cat"":20,""src"":15,""loc"":4}]","2","1103,1113,1103,1104,1111,1111,1104,1104,1104,10004",NA,NA,NA,NA,NA,NA,NA,NA,NA
"6595","flanker_instructions","39","html-keyboard-response","157","2007057","0.0-3.0-97.0","3","2020-1-8 8:35:34","LION",NA,NA,NA,NA,NA,NA,NA,NA,NA,NA,NA,NA,NA,NA
"738","flanker_test","37","image-keyboard-response","158","2008809","0.0-3.0-98.0-0.0","3","2020-1-8 8:35:34","LION",NA,NA,NA,NA,NA,"incongruent","left","TRUE",NA,NA,NA,NA,NA,NA
"581","flanker_test","39","image-keyboard-response","159","2010122","0.0-3.0-98.0-0.1","3","2020-1-8 8:35:34","LION",NA,NA,NA,NA,NA,"congruent","right","TRUE",NA,NA,NA,NA,NA,NA
"508","flanker_test","39","image-keyboard-response","160","2010973","0.0-3.0-98.0-0.2","3","2020-1-8 8:35:34","LION",NA,NA,NA,NA,NA,"incongruent","right","TRUE",NA,NA,NA,NA,NA,NA
"389","flanker_test","37","image-keyboard-response","161","2012284","0.0-3.0-98.0-0.3","3","2020-1-8 8:35:34","LION",NA,NA,NA,NA,NA,"congruent","left","TRUE",NA,NA,NA,NA,NA,NA
"45742","sort_trial",NA,"free-sort","162","2059007","0.0-3.0-99.0","3","2020-1-8 8:35:34","LION",NA,NA,NA,NA,NA,NA,NA,NA,"[{""cat"":20,""src"":6,""x"":64,""y"":268},{""cat"":30,""src"":7,""x"":29,""y"":499},{""cat"":28,""src"":14,""x"":27,""y"":9},{""cat"":20,""src"":19,""x"":80,""y"":137},{""cat"":28,""src"":16,""x"":65,""y"":300},{""cat"":30,""src"":11,""x"":9,""y"":81},{""cat"":28,""src"":11,""x"":32,""y"":363},{""cat"":30,""src"":12,""x"":52,""y"":194},{""cat"":20,""src"":15,""x"":3,""y"":425}]","[{""cat"":""30"",""src"":""11"",""x"":0,""y"":0},{""cat"":""28"",""src"":""16"",""x"":0,""y"":0},{""cat"":""20"",""src"":""19"",""x"":0,""y"":0},{""cat"":""30"",""src"":""12"",""x"":0,""y"":0},{""cat"":""20"",""src"":""15"",""x"":0,""y"":0},{""cat"":""28"",""src"":""11"",""x"":0,""y"":0},{""cat"":""20"",""src"":""6"",""x"":0,""y"":0},{""cat"":""28"",""src"":""14"",""x"":0,""y"":0},{""cat"":""30"",""src"":""7"",""x"":0,""y"":0}]","[{""cat"":30,""src"":11,""loc"":1},{""cat"":28,""src"":16,""loc"":0},{""cat"":20,""src"":19,""loc"":2},{""cat"":30,""src"":12,""loc"":5},{""cat"":20,""src"":15,""loc"":4},{""cat"":28,""src"":11,""loc"":3},{""cat"":20,""src"":6,""loc"":8},{""cat"":28,""src"":14,""loc"":6},{""cat"":30,""src"":7,""loc"":7}]","9","28,30,20,28,20,30,28,30,20,16,11,19,11,15,12,14,7,6,0,1,2,3,4,5,6,7,8,1,0,2,5,4,3,7,8,6",NA
"6288","sort_feedback","32","html-keyboard-response","163","2065298","0.0-3.0-100.0","3","2020-1-8 8:35:34","LION",NA,NA,NA,NA,NA,NA,NA,NA,NA,NA,NA,NA,NA,NA
NA,"breakStart",NA,"html-keyboard-response","164","2095312","0.0-4.0-0.0","3","2020-1-8 8:35:34","LION",NA,NA,NA,NA,NA,NA,NA,NA,NA,NA,NA,NA,NA,NA
"2169","breakEnd",NA,"html-button-response","165","2097485","0.0-4.0-1.0","3","2020-1-8 8:35:34","LION","0",NA,NA,NA,NA,NA,NA,NA,NA,NA,NA,NA,NA,NA
"19981","setup3",NA,"animation","166","2117468","0.0-5.0-0.0","3","2020-1-8 8:35:34","LION",NA,NA,"[{""cat"":31,""src"":7,""loc"":3},{""cat"":22,""src"":17,""loc"":2},{""cat"":0,""src"":1,""loc"":6},{""cat"":0,""src"":3,""loc"":7},{""cat"":31,""src"":19,""loc"":4},{""cat"":22,""src"":5,""loc"":0},{""cat"":31,""src"":2,""loc"":5},{""cat"":0,""src"":18,""loc"":8},{""cat"":22,""src"":7,""loc"":1}]","3","1105,1103,1103,1108,1104,1105,1117,1113,1109,10014",NA,NA,NA,NA,NA,NA,NA,NA,NA
"1965","flanker_instructions","39","html-keyboard-response","167","2119437","0.0-5.0-1.0","3","2020-1-8 8:35:34","LION",NA,NA,NA,NA,NA,NA,NA,NA,NA,NA,NA,NA,NA,NA
"886","flanker_test","37","image-keyboard-response","168","2121337","0.0-5.0-2.0-0.0","3","2020-1-8 8:35:34","LION",NA,NA,NA,NA,NA,"incongruent","left","TRUE",NA,NA,NA,NA,NA,NA
"586","flanker_test","39","image-keyboard-response","169","2122637","0.0-5.0-2.0-0.1","3","2020-1-8 8:35:34","LION",NA,NA,NA,NA,NA,"congruent","right","TRUE",NA,NA,NA,NA,NA,NA
"565","flanker_test","37","image-keyboard-response","170","2123739","0.0-5.0-2.0-0.2","3","2020-1-8 8:35:34","LION",NA,NA,NA,NA,NA,"congruent","left","TRUE",NA,NA,NA,NA,NA,NA
"413","flanker_test","39","image-keyboard-response","171","2125312","0.0-5.0-2.0-0.3","3","2020-1-8 8:35:34","LION",NA,NA,NA,NA,NA,"incongruent","right","TRUE",NA,NA,NA,NA,NA,NA
"51523","sort_trial",NA,"free-sort","172","2177873","0.0-5.0-3.0","3","2020-1-8 8:35:34","LION",NA,NA,NA,NA,NA,NA,NA,NA,"[{""cat"":31,""src"":7,""x"":23,""y"":434},{""cat"":22,""src"":17,""x"":29,""y"":260},{""cat"":0,""src"":1,""x"":6,""y"":4},{""cat"":0,""src"":3,""x"":26,""y"":488},{""cat"":31,""src"":19,""x"":34,""y"":70},{""cat"":22,""src"":5,""x"":79,""y"":186},{""cat"":31,""src"":2,""x"":28,""y"":385},{""cat"":0,""src"":18,""x"":60,""y"":122},{""cat"":22,""src"":7,""x"":45,""y"":321}]","[{""cat"":""31"",""src"":""19"",""x"":176,""y"":44},{""cat"":""31"",""src"":""19"",""x"":0,""y"":0},{""cat"":""31"",""src"":""2"",""x"":0,""y"":0},{""cat"":""31"",""src"":""7"",""x"":774,""y"":285},{""cat"":""31"",""src"":""7"",""x"":0,""y"":0},{""cat"":""0"",""src"":""1"",""x"":0,""y"":0},{""cat"":""0"",""src"":""18"",""x"":0,""y"":0},{""cat"":""0"",""src"":""3"",""x"":0,""y"":0},{""cat"":""22"",""src"":""17"",""x"":29,""y"":260},{""cat"":""22"",""src"":""17"",""x"":0,""y"":0},{""cat"":""22"",""src"":""7"",""x"":0,""y"":0},{""cat"":""22"",""src"":""5"",""x"":0,""y"":0}]","[{""cat"":31,""src"":19,""loc"":4},{""cat"":31,""src"":2,""loc"":5},{""cat"":31,""src"":7,""loc"":3},{""cat"":0,""src"":1,""loc"":6},{""cat"":0,""src"":18,""loc"":8},{""cat"":0,""src"":3,""loc"":7},{""cat"":22,""src"":17,""loc"":2},{""cat"":22,""src"":7,""loc"":1},{""cat"":22,""src"":5,""loc"":0}]","9","22,22,22,31,31,31,0,0,0,5,7,17,7,19,2,1,3,18,0,1,2,3,4,5,6,7,8,8,7,6,2,0,1,3,5,4",NA
"5288","sort_feedback","32","html-keyboard-response","173","2183166","0.0-5.0-4.0","3","2020-1-8 8:35:34","LION",NA,NA,NA,NA,NA,NA,NA,NA,NA,NA,NA,NA,NA,NA
"20006","setup2",NA,"animation","174","2203173","0.0-5.0-5.0","3","2020-1-8 8:35:34","LION",NA,NA,"[{""cat"":11,""src"":0,""loc"":6},{""cat"":28,""src"":1,""loc"":7},{""cat"":22,""src"":14,""loc"":8},{""cat"":22,""src"":18,""loc"":1},{""cat"":11,""src"":6,""loc"":0},{""cat"":28,""src"":4,""loc"":2},{""cat"":11,""src"":17,""loc"":3},{""cat"":22,""src"":11,""loc"":5},{""cat"":28,""src"":5,""loc"":4}]","2","1118,1118,1103,1114,1115,1115,1104,1109,1106,10003",NA,NA,NA,NA,NA,NA,NA,NA,NA
"1558","flanker_instructions","39","html-keyboard-response","175","2204735","0.0-5.0-6.0","3","2020-1-8 8:35:34","LION",NA,NA,NA,NA,NA,NA,NA,NA,NA,NA,NA,NA,NA,NA
"681","flanker_test","37","image-keyboard-response","176","2206426","0.0-5.0-7.0-0.0","3","2020-1-8 8:35:34","LION",NA,NA,NA,NA,NA,"incongruent","left","TRUE",NA,NA,NA,NA,NA,NA
"573","flanker_test","39","image-keyboard-response","177","2207715","0.0-5.0-7.0-0.1","3","2020-1-8 8:35:34","LION",NA,NA,NA,NA,NA,"congruent","right","TRUE",NA,NA,NA,NA,NA,NA
"685","flanker_test","39","image-keyboard-response","178","2209565","0.0-5.0-7.0-0.2","3","2020-1-8 8:35:34","LION",NA,NA,NA,NA,NA,"incongruent","right","TRUE",NA,NA,NA,NA,NA,NA
"364","flanker_test","37","image-keyboard-response","179","2210770","0.0-5.0-7.0-0.3","3","2020-1-8 8:35:34","LION",NA,NA,NA,NA,NA,"congruent","left","TRUE",NA,NA,NA,NA,NA,NA
"46932","sort_trial",NA,"free-sort","180","2258254","0.0-5.0-8.0","3","2020-1-8 8:35:34","LION",NA,NA,NA,NA,NA,NA,NA,NA,"[{""cat"":11,""src"":0,""x"":4,""y"":243},{""cat"":28,""src"":1,""x"":62,""y"":432},{""cat"":22,""src"":14,""x"":42,""y"":14},{""cat"":22,""src"":18,""x"":44,""y"":208},{""cat"":11,""src"":6,""x"":43,""y"":318},{""cat"":28,""src"":4,""x"":35,""y"":379},{""cat"":11,""src"":17,""x"":0,""y"":500},{""cat"":22,""src"":11,""x"":21,""y"":68},{""cat"":28,""src"":5,""x"":47,""y"":136}]","[{""cat"":""22"",""src"":""18"",""x"":0,""y"":0},{""cat"":""11"",""src"":""6"",""x"":0,""y"":0},{""cat"":""28"",""src"":""4"",""x"":0,""y"":0},{""cat"":""22"",""src"":""14"",""x"":72,""y"":62},{""cat"":""22"",""src"":""14"",""x"":0,""y"":0},{""cat"":""11"",""src"":""0"",""x"":0,""y"":0},{""cat"":""28"",""src"":""1"",""x"":108,""y"":424},{""cat"":""28"",""src"":""1"",""x"":63,""y"":431},{""cat"":""28"",""src"":""1"",""x"":0,""y"":0},{""cat"":""11"",""src"":""17"",""x"":0,""y"":0},{""cat"":""28"",""src"":""5"",""x"":0,""y"":0},{""cat"":""22"",""src"":""11"",""x"":0,""y"":0}]","[{""cat"":22,""src"":18,""loc"":1},{""cat"":11,""src"":6,""loc"":0},{""cat"":28,""src"":4,""loc"":2},{""cat"":22,""src"":14,""loc"":8},{""cat"":11,""src"":0,""loc"":6},{""cat"":28,""src"":1,""loc"":7},{""cat"":11,""src"":17,""loc"":3},{""cat"":28,""src"":5,""loc"":4},{""cat"":22,""src"":11,""loc"":5}]","9","11,22,28,11,28,22,11,28,22,6,18,4,17,5,11,0,1,14,0,1,2,3,4,5,6,7,8,1,0,2,6,7,8,4,5,3",NA
"5825","sort_feedback","32","html-keyboard-response","181","2264084","0.0-5.0-9.0","3","2020-1-8 8:35:34","LION",NA,NA,NA,NA,NA,NA,NA,NA,NA,NA,NA,NA,NA,NA
"20027","setup5",NA,"animation","182","2284112","0.0-5.0-10.0","3","2020-1-8 8:35:34","LION",NA,NA,"[{""cat"":25,""src"":10,""loc"":1},{""cat"":33,""src"":6,""loc"":6},{""cat"":19,""src"":9,""loc"":4},{""cat"":33,""src"":13,""loc"":2},{""cat"":19,""src"":11,""loc"":7},{""cat"":25,""src"":19,""loc"":5},{""cat"":33,""src"":10,""loc"":3},{""cat"":25,""src"":12,""loc"":8},{""cat"":19,""src"":14,""loc"":0}]","5","1108,1127,1115,1104,1113,1104,1115,1103,1119,10018",NA,NA,NA,NA,NA,NA,NA,NA,NA
"75196","flanker_instructions","37","html-keyboard-response","183","2359312","0.0-5.0-11.0","3","2020-1-8 8:35:34","LION",NA,NA,NA,NA,NA,NA,NA,NA,NA,NA,NA,NA,NA,NA
"617","flanker_test","37","image-keyboard-response","184","2360947","0.0-5.0-12.0-0.0","3","2020-1-8 8:35:34","LION",NA,NA,NA,NA,NA,"congruent","left","TRUE",NA,NA,NA,NA,NA,NA
"568","flanker_test","39","image-keyboard-response","185","2362213","0.0-5.0-12.0-0.1","3","2020-1-8 8:35:34","LION",NA,NA,NA,NA,NA,"incongruent","right","TRUE",NA,NA,NA,NA,NA,NA
"616","flanker_test","37","image-keyboard-response","186","2363590","0.0-5.0-12.0-0.2","3","2020-1-8 8:35:34","LION",NA,NA,NA,NA,NA,"incongruent","left","TRUE",NA,NA,NA,NA,NA,NA
"373","flanker_test","39","image-keyboard-response","187","2364986","0.0-5.0-12.0-0.3","3","2020-1-8 8:35:34","LION",NA,NA,NA,NA,NA,"congruent","right","TRUE",NA,NA,NA,NA,NA,NA
"58494","sort_trial",NA,"free-sort","188","2424176","0.0-5.0-13.0","3","2020-1-8 8:35:34","LION",NA,NA,NA,NA,NA,NA,NA,NA,"[{""cat"":25,""src"":10,""x"":77,""y"":308},{""cat"":33,""src"":6,""x"":7,""y"":127},{""cat"":19,""src"":9,""x"":25,""y"":440},{""cat"":33,""src"":13,""x"":80,""y"":257},{""cat"":19,""src"":11,""x"":54,""y"":184},{""cat"":25,""src"":19,""x"":56,""y"":375},{""cat"":33,""src"":10,""x"":64,""y"":480},{""cat"":25,""src"":12,""x"":57,""y"":8},{""cat"":19,""src"":14,""x"":45,""y"":64}]","[{""cat"":""25"",""src"":""10"",""x"":156,""y"":276},{""cat"":""25"",""src"":""10"",""x"":0,""y"":0},{""cat"":""19"",""src"":""14"",""x"":0,""y"":0},{""cat"":""33"",""src"":""13"",""x"":0,""y"":0},{""cat"":""19"",""src"":""9"",""x"":0,""y"":0},{""cat"":""25"",""src"":""19"",""x"":476,""y"":476},{""cat"":""25"",""src"":""19"",""x"":0,""y"":0},{""cat"":""33"",""src"":""10"",""x"":0,""y"":0},{""cat"":""25"",""src"":""12"",""x"":44,""y"":177},{""cat"":""19"",""src"":""11"",""x"":54,""y"":184},{""cat"":""25"",""src"":""12"",""x"":0,""y"":0},{""cat"":""33"",""src"":""6"",""x"":0,""y"":0},{""cat"":""19"",""src"":""11"",""x"":0,""y"":0}]","[{""cat"":25,""src"":10,""loc"":1},{""cat"":19,""src"":14,""loc"":0},{""cat"":33,""src"":13,""loc"":2},{""cat"":19,""src"":9,""loc"":4},{""cat"":25,""src"":19,""loc"":5},{""cat"":33,""src"":10,""loc"":3},{""cat"":25,""src"":12,""loc"":8},{""cat"":33,""src"":6,""loc"":6},{""cat"":19,""src"":11,""loc"":7}]","9","19,25,33,33,19,25,33,19,25,14,10,13,10,9,19,6,11,12,0,1,2,3,4,5,6,7,8,1,0,2,5,3,4,7,8,6",NA
"8180","sort_feedback","32","html-keyboard-response","189","2432360","0.0-5.0-14.0","3","2020-1-8 8:35:34","LION",NA,NA,NA,NA,NA,NA,NA,NA,NA,NA,NA,NA,NA,NA
"20031","setup4",NA,"animation","190","2452393","0.0-5.0-15.0","3","2020-1-8 8:35:34","LION",NA,NA,"[{""cat"":21,""src"":1,""loc"":1},{""cat"":21,""src"":7,""loc"":4},{""cat"":21,""src"":3,""loc"":6},{""cat"":14,""src"":12,""loc"":2},{""cat"":14,""src"":19,""loc"":8},{""cat"":14,""src"":3,""loc"":5},{""cat"":0,""src"":19,""loc"":7},{""cat"":0,""src"":7,""loc"":0},{""cat"":0,""src"":17,""loc"":3}]","4","1110,1102,1112,1112,1116,1116,1115,1119,1116,10013",NA,NA,NA,NA,NA,NA,NA,NA,NA
"855","flanker_instructions","37","html-keyboard-response","191","2453253","0.0-5.0-16.0","3","2020-1-8 8:35:34","LION",NA,NA,NA,NA,NA,NA,NA,NA,NA,NA,NA,NA,NA,NA
"851","flanker_test","37","image-keyboard-response","192","2455120","0.0-5.0-17.0-0.0","3","2020-1-8 8:35:34","LION",NA,NA,NA,NA,NA,"incongruent","left","TRUE",NA,NA,NA,NA,NA,NA
"655","flanker_test","37","image-keyboard-response","193","2456317","0.0-5.0-17.0-0.1","3","2020-1-8 8:35:34","LION",NA,NA,NA,NA,NA,"congruent","left","TRUE",NA,NA,NA,NA,NA,NA
"389","flanker_test","39","image-keyboard-response","194","2457789","0.0-5.0-17.0-0.2","3","2020-1-8 8:35:34","LION",NA,NA,NA,NA,NA,"incongruent","right","TRUE",NA,NA,NA,NA,NA,NA
"394","flanker_test","39","image-keyboard-response","195","2459068","0.0-5.0-17.0-0.3","3","2020-1-8 8:35:34","LION",NA,NA,NA,NA,NA,"congruent","right","TRUE",NA,NA,NA,NA,NA,NA
"40612","sort_trial",NA,"free-sort","196","2500455","0.0-5.0-18.0","3","2020-1-8 8:35:34","LION",NA,NA,NA,NA,NA,NA,NA,NA,"[{""cat"":21,""src"":1,""x"":35,""y"":17},{""cat"":21,""src"":7,""x"":51,""y"":89},{""cat"":21,""src"":3,""x"":47,""y"":239},{""cat"":14,""src"":12,""x"":31,""y"":432},{""cat"":14,""src"":19,""x"":62,""y"":502},{""cat"":14,""src"":3,""x"":77,""y"":145},{""cat"":0,""src"":19,""x"":23,""y"":379},{""cat"":0,""src"":7,""x"":28,""y"":303},{""cat"":0,""src"":17,""x"":2,""y"":184}]","[{""cat"":""21"",""src"":""1"",""x"":0,""y"":0},{""cat"":""0"",""src"":""7"",""x"":0,""y"":0},{""cat"":""14"",""src"":""12"",""x"":0,""y"":0},{""cat"":""14"",""src"":""3"",""x"":0,""y"":0},{""cat"":""21"",""src"":""7"",""x"":0,""y"":0},{""cat"":""0"",""src"":""17"",""x"":0,""y"":0},{""cat"":""21"",""src"":""3"",""x"":0,""y"":0},{""cat"":""0"",""src"":""19"",""x"":0,""y"":0},{""cat"":""14"",""src"":""19"",""x"":0,""y"":0}]","[{""cat"":21,""src"":1,""loc"":1},{""cat"":0,""src"":7,""loc"":0},{""cat"":14,""src"":12,""loc"":2},{""cat"":14,""src"":3,""loc"":5},{""cat"":21,""src"":7,""loc"":4},{""cat"":0,""src"":17,""loc"":3},{""cat"":21,""src"":3,""loc"":6},{""cat"":0,""src"":19,""loc"":7},{""cat"":14,""src"":19,""loc"":8}]","9","0,21,14,0,21,14,21,0,14,7,1,12,17,7,3,3,19,19,0,1,2,3,4,5,6,7,8,1,0,2,5,4,3,6,7,8",NA
"6544","sort_feedback","32","html-keyboard-response","197","2507002","0.0-5.0-19.0","3","2020-1-8 8:35:34","LION",NA,NA,NA,NA,NA,NA,NA,NA,NA,NA,NA,NA,NA,NA
"20012","setup1",NA,"animation","198","2527015","0.0-5.0-20.0","3","2020-1-8 8:35:34","LION",NA,NA,"[{""cat"":10,""src"":0,""loc"":6},{""cat"":10,""src"":8,""loc"":7},{""cat"":10,""src"":13,""loc"":8},{""cat"":2,""src"":3,""loc"":5},{""cat"":2,""src"":2,""loc"":3},{""cat"":2,""src"":13,""loc"":4},{""cat"":8,""src"":16,""loc"":0},{""cat"":8,""src"":2,""loc"":2},{""cat"":8,""src"":19,""loc"":1}]","1","1105,1121,1103,1104,1109,1115,1132,1113,1107,10003",NA,NA,NA,NA,NA,NA,NA,NA,NA
"3443","flanker_instructions","39","html-keyboard-response","199","2530463","0.0-5.0-21.0","3","2020-1-8 8:35:34","LION",NA,NA,NA,NA,NA,NA,NA,NA,NA,NA,NA,NA,NA,NA
"642","flanker_test","37","image-keyboard-response","200","2532116","0.0-5.0-22.0-0.0","3","2020-1-8 8:35:34","LION",NA,NA,NA,NA,NA,"incongruent","left","TRUE",NA,NA,NA,NA,NA,NA
"508","flanker_test","39","image-keyboard-response","201","2533572","0.0-5.0-22.0-0.1","3","2020-1-8 8:35:34","LION",NA,NA,NA,NA,NA,"incongruent","right","TRUE",NA,NA,NA,NA,NA,NA
"538","flanker_test","37","image-keyboard-response","202","2535102","0.0-5.0-22.0-0.2","3","2020-1-8 8:35:34","LION",NA,NA,NA,NA,NA,"congruent","left","TRUE",NA,NA,NA,NA,NA,NA
"428","flanker_test","39","image-keyboard-response","203","2536414","0.0-5.0-22.0-0.3","3","2020-1-8 8:35:34","LION",NA,NA,NA,NA,NA,"congruent","right","TRUE",NA,NA,NA,NA,NA,NA
"52804","sort_trial",NA,"free-sort","204","2590179","0.0-5.0-23.0","3","2020-1-8 8:35:34","LION",NA,NA,NA,NA,NA,NA,NA,NA,"[{""cat"":10,""src"":0,""x"":30,""y"":7},{""cat"":10,""src"":8,""x"":54,""y"":203},{""cat"":10,""src"":13,""x"":34,""y"":501},{""cat"":2,""src"":3,""x"":27,""y"":381},{""cat"":2,""src"":2,""x"":82,""y"":438},{""cat"":2,""src"":13,""x"":47,""y"":130},{""cat"":8,""src"":16,""x"":33,""y"":303},{""cat"":8,""src"":2,""x"":82,""y"":69},{""cat"":8,""src"":19,""x"":38,""y"":262}]","[{""cat"":""8"",""src"":""19"",""x"":0,""y"":0},{""cat"":""8"",""src"":""2"",""x"":0,""y"":0},{""cat"":""2"",""src"":""3"",""x"":0,""y"":0},{""cat"":""2"",""src"":""13"",""x"":0,""y"":0},{""cat"":""2"",""src"":""2"",""x"":191,""y"":471},{""cat"":""2"",""src"":""2"",""x"":0,""y"":0},{""cat"":""10"",""src"":""0"",""x"":0,""y"":0},{""cat"":""10"",""src"":""13"",""x"":0,""y"":0},{""cat"":""10"",""src"":""8"",""x"":54,""y"":203},{""cat"":""10"",""src"":""8"",""x"":0,""y"":0},{""cat"":""8"",""src"":""16"",""x"":0,""y"":0}]","[{""cat"":8,""src"":19,""loc"":1},{""cat"":8,""src"":2,""loc"":2},{""cat"":2,""src"":3,""loc"":5},{""cat"":2,""src"":13,""loc"":4},{""cat"":2,""src"":2,""loc"":3},{""cat"":10,""src"":0,""loc"":6},{""cat"":10,""src"":13,""loc"":8},{""cat"":10,""src"":8,""loc"":7},{""cat"":8,""src"":16,""loc"":0}]","9","8,8,8,2,2,2,10,10,10,16,19,2,2,13,3,0,8,13,0,1,2,3,4,5,6,7,8,8,0,1,4,3,2,5,7,6",NA
"6162","sort_feedback","32","html-keyboard-response","205","2596343","0.0-5.0-24.0","3","2020-1-8 8:35:34","LION",NA,NA,NA,NA,NA,NA,NA,NA,NA,NA,NA,NA,NA,NA
"20018","setup2",NA,"animation","206","2616363","0.0-5.0-25.0","3","2020-1-8 8:35:34","LION",NA,NA,"[{""cat"":11,""src"":19,""loc"":6},{""cat"":10,""src"":10,""loc"":8},{""cat"":21,""src"":4,""loc"":7},{""cat"":11,""src"":11,""loc"":3},{""cat"":10,""src"":4,""loc"":5},{""cat"":21,""src"":2,""loc"":4},{""cat"":21,""src"":17,""loc"":1},{""cat"":10,""src"":7,""loc"":2},{""cat"":11,""src"":1,""loc"":0}]","2","1110,1103,1144,1104,1115,1118,1102,1104,1111,10006",NA,NA,NA,NA,NA,NA,NA,NA,NA
"2075","flanker_instructions","37","html-keyboard-response","207","2618443","0.0-5.0-26.0","3","2020-1-8 8:35:34","LION",NA,NA,NA,NA,NA,NA,NA,NA,NA,NA,NA,NA,NA,NA
"741","flanker_test","37","image-keyboard-response","208","2620201","0.0-5.0-27.0-0.0","3","2020-1-8 8:35:34","LION",NA,NA,NA,NA,NA,"incongruent","left","TRUE",NA,NA,NA,NA,NA,NA
"673","flanker_test","37","image-keyboard-response","209","2621269","0.0-5.0-27.0-0.1","3","2020-1-8 8:35:34","LION",NA,NA,NA,NA,NA,"congruent","left","TRUE",NA,NA,NA,NA,NA,NA
"347","flanker_test","39","image-keyboard-response","210","2622391","0.0-5.0-27.0-0.2","3","2020-1-8 8:35:34","LION",NA,NA,NA,NA,NA,"congruent","right","TRUE",NA,NA,NA,NA,NA,NA
"381","flanker_test","39","image-keyboard-response","211","2623286","0.0-5.0-27.0-0.3","3","2020-1-8 8:35:34","LION",NA,NA,NA,NA,NA,"incongruent","right","TRUE",NA,NA,NA,NA,NA,NA
"44832","sort_trial",NA,"free-sort","212","2668871","0.0-5.0-28.0","3","2020-1-8 8:35:34","LION",NA,NA,NA,NA,NA,NA,NA,NA,"[{""cat"":11,""src"":19,""x"":79,""y"":181},{""cat"":10,""src"":10,""x"":3,""y"":266},{""cat"":21,""src"":4,""x"":22,""y"":121},{""cat"":11,""src"":11,""x"":48,""y"":26},{""cat"":10,""src"":4,""x"":25,""y"":501},{""cat"":21,""src"":2,""x"":83,""y"":420},{""cat"":21,""src"":17,""x"":35,""y"":84},{""cat"":10,""src"":7,""x"":3,""y"":321},{""cat"":11,""src"":1,""x"":44,""y"":389}]","[{""cat"":""21"",""src"":""17"",""x"":0,""y"":0},{""cat"":""11"",""src"":""1"",""x"":0,""y"":0},{""cat"":""10"",""src"":""7"",""x"":0,""y"":0},{""cat"":""10"",""src"":""4"",""x"":61,""y"":464},{""cat"":""10"",""src"":""4"",""x"":26,""y"":500},{""cat"":""10"",""src"":""4"",""x"":0,""y"":0},{""cat"":""21"",""src"":""2"",""x"":0,""y"":0},{""cat"":""11"",""src"":""11"",""x"":0,""y"":0},{""cat"":""21"",""src"":""4"",""x"":0,""y"":0},{""cat"":""11"",""src"":""19"",""x"":0,""y"":0},{""cat"":""10"",""src"":""10"",""x"":0,""y"":0}]","[{""cat"":21,""src"":17,""loc"":1},{""cat"":11,""src"":1,""loc"":0},{""cat"":10,""src"":7,""loc"":2},{""cat"":10,""src"":4,""loc"":5},{""cat"":21,""src"":2,""loc"":4},{""cat"":11,""src"":11,""loc"":3},{""cat"":21,""src"":4,""loc"":7},{""cat"":11,""src"":19,""loc"":6},{""cat"":10,""src"":10,""loc"":8}]","9","11,21,10,11,21,10,11,21,10,1,17,7,11,2,4,19,4,10,0,1,2,3,4,5,6,7,8,1,0,2,5,4,3,7,6,8",NA
"7961","sort_feedback","32","html-keyboard-response","213","2676836","0.0-5.0-29.0","3","2020-1-8 8:35:34","LION",NA,NA,NA,NA,NA,NA,NA,NA,NA,NA,NA,NA,NA,NA
"20008","setup5",NA,"animation","214","2696846","0.0-5.0-30.0","3","2020-1-8 8:35:34","LION",NA,NA,"[{""cat"":13,""src"":9,""loc"":8},{""cat"":8,""src"":1,""loc"":1},{""cat"":30,""src"":3,""loc"":3},{""cat"":13,""src"":1,""loc"":0},{""cat"":8,""src"":10,""loc"":5},{""cat"":30,""src"":10,""loc"":7},{""cat"":8,""src"":6,""loc"":6},{""cat"":30,""src"":8,""loc"":2},{""cat"":13,""src"":0,""loc"":4}]","5","1109,1116,1116,1107,1108,1118,1103,1117,1113,10001",NA,NA,NA,NA,NA,NA,NA,NA,NA
"1921","flanker_instructions","37","html-keyboard-response","215","2698772","0.0-5.0-31.0","3","2020-1-8 8:35:34","LION",NA,NA,NA,NA,NA,NA,NA,NA,NA,NA,NA,NA,NA,NA
"889","flanker_test","37","image-keyboard-response","216","2700671","0.0-5.0-32.0-0.0","3","2020-1-8 8:35:34","LION",NA,NA,NA,NA,NA,"incongruent","left","TRUE",NA,NA,NA,NA,NA,NA
"561","flanker_test","37","image-keyboard-response","217","2701962","0.0-5.0-32.0-0.1","3","2020-1-8 8:35:34","LION",NA,NA,NA,NA,NA,"congruent","left","TRUE",NA,NA,NA,NA,NA,NA
"421","flanker_test","39","image-keyboard-response","218","2702735","0.0-5.0-32.0-0.2","3","2020-1-8 8:35:34","LION",NA,NA,NA,NA,NA,"incongruent","right","TRUE",NA,NA,NA,NA,NA,NA
"383","flanker_test","39","image-keyboard-response","219","2704293","0.0-5.0-32.0-0.3","3","2020-1-8 8:35:34","LION",NA,NA,NA,NA,NA,"congruent","right","TRUE",NA,NA,NA,NA,NA,NA
"48440","sort_trial",NA,"free-sort","220","2753641","0.0-5.0-33.0","3","2020-1-8 8:35:34","LION",NA,NA,NA,NA,NA,NA,NA,NA,"[{""cat"":13,""src"":9,""x"":64,""y"":249},{""cat"":8,""src"":1,""x"":55,""y"":429},{""cat"":30,""src"":3,""x"":53,""y"":88},{""cat"":13,""src"":1,""x"":62,""y"":2},{""cat"":8,""src"":10,""x"":24,""y"":377},{""cat"":30,""src"":10,""x"":21,""y"":191},{""cat"":8,""src"":6,""x"":21,""y"":128},{""cat"":30,""src"":8,""x"":54,""y"":306},{""cat"":13,""src"":0,""x"":79,""y"":495}]","[{""cat"":""8"",""src"":""1"",""x"":0,""y"":0},{""cat"":""13"",""src"":""1"",""x"":0,""y"":0},{""cat"":""30"",""src"":""8"",""x"":0,""y"":0},{""cat"":""8"",""src"":""10"",""x"":0,""y"":0},{""cat"":""13"",""src"":""0"",""x"":813,""y"":133},{""cat"":""13"",""src"":""0"",""x"":0,""y"":0},{""cat"":""30"",""src"":""3"",""x"":0,""y"":0},{""cat"":""8"",""src"":""6"",""x"":0,""y"":0},{""cat"":""13"",""src"":""9"",""x"":74,""y"":259},{""cat"":""13"",""src"":""9"",""x"":508,""y"":323},{""cat"":""13"",""src"":""9"",""x"":0,""y"":0},{""cat"":""30"",""src"":""10"",""x"":0,""y"":0}]","[{""cat"":8,""src"":1,""loc"":1},{""cat"":13,""src"":1,""loc"":0},{""cat"":30,""src"":8,""loc"":2},{""cat"":8,""src"":10,""loc"":5},{""cat"":13,""src"":0,""loc"":4},{""cat"":30,""src"":3,""loc"":3},{""cat"":8,""src"":6,""loc"":6},{""cat"":13,""src"":9,""loc"":8},{""cat"":30,""src"":10,""loc"":7}]","9","13,8,30,30,13,8,8,30,13,1,1,8,3,0,10,6,10,9,0,1,2,3,4,5,6,7,8,1,0,2,5,4,3,6,8,7",NA
"5430","sort_feedback","32","html-keyboard-response","221","2759074","0.0-5.0-34.0","3","2020-1-8 8:35:34","LION",NA,NA,NA,NA,NA,NA,NA,NA,NA,NA,NA,NA,NA,NA
"20008","setup3",NA,"animation","222","2779084","0.0-5.0-35.0","3","2020-1-8 8:35:34","LION",NA,NA,"[{""cat"":20,""src"":0,""loc"":6},{""cat"":29,""src"":19,""loc"":1},{""cat"":25,""src"":1,""loc"":4},{""cat"":20,""src"":9,""loc"":7},{""cat"":25,""src"":10,""loc"":3},{""cat"":29,""src"":10,""loc"":2},{""cat"":29,""src"":8,""loc"":0},{""cat"":20,""src"":2,""loc"":8},{""cat"":25,""src"":5,""loc"":5}]","3","1105,1113,1117,1106,1110,1104,1116,1115,1116,10006",NA,NA,NA,NA,NA,NA,NA,NA,NA
"1480","flanker_instructions","37","html-keyboard-response","223","2780569","0.0-5.0-36.0","3","2020-1-8 8:35:34","LION",NA,NA,NA,NA,NA,NA,NA,NA,NA,NA,NA,NA,NA,NA
"590","flanker_test","37","image-keyboard-response","224","2782171","0.0-5.0-37.0-0.0","3","2020-1-8 8:35:34","LION",NA,NA,NA,NA,NA,"congruent","left","TRUE",NA,NA,NA,NA,NA,NA
"551","flanker_test","39","image-keyboard-response","225","2783497","0.0-5.0-37.0-0.1","3","2020-1-8 8:35:34","LION",NA,NA,NA,NA,NA,"congruent","right","TRUE",NA,NA,NA,NA,NA,NA
"612","flanker_test","37","image-keyboard-response","226","2784718","0.0-5.0-37.0-0.2","3","2020-1-8 8:35:34","LION",NA,NA,NA,NA,NA,"incongruent","left","TRUE",NA,NA,NA,NA,NA,NA
"409","flanker_test","39","image-keyboard-response","227","2785950","0.0-5.0-37.0-0.3","3","2020-1-8 8:35:34","LION",NA,NA,NA,NA,NA,"incongruent","right","TRUE",NA,NA,NA,NA,NA,NA
"40611","sort_trial",NA,"free-sort","228","2827710","0.0-5.0-38.0","3","2020-1-8 8:35:34","LION",NA,NA,NA,NA,NA,NA,NA,NA,"[{""cat"":20,""src"":0,""x"":18,""y"":22},{""cat"":29,""src"":19,""x"":75,""y"":373},{""cat"":25,""src"":1,""x"":68,""y"":71},{""cat"":20,""src"":9,""x"":7,""y"":197},{""cat"":25,""src"":10,""x"":64,""y"":481},{""cat"":29,""src"":10,""x"":1,""y"":301},{""cat"":29,""src"":8,""x"":41,""y"":433},{""cat"":20,""src"":2,""x"":7,""y"":119},{""cat"":25,""src"":5,""x"":73,""y"":264}]","[{""cat"":""25"",""src"":""5"",""x"":0,""y"":0},{""cat"":""25"",""src"":""1"",""x"":0,""y"":0},{""cat"":""25"",""src"":""10"",""x"":0,""y"":0},{""cat"":""29"",""src"":""19"",""x"":0,""y"":0},{""cat"":""29"",""src"":""8"",""x"":0,""y"":0},{""cat"":""29"",""src"":""10"",""x"":0,""y"":0},{""cat"":""20"",""src"":""0"",""x"":0,""y"":0},{""cat"":""20"",""src"":""2"",""x"":0,""y"":0},{""cat"":""20"",""src"":""9"",""x"":0,""y"":0}]","[{""cat"":25,""src"":5,""loc"":5},{""cat"":25,""src"":1,""loc"":4},{""cat"":25,""src"":10,""loc"":3},{""cat"":29,""src"":19,""loc"":1},{""cat"":29,""src"":8,""loc"":0},{""cat"":29,""src"":10,""loc"":2},{""cat"":20,""src"":0,""loc"":6},{""cat"":20,""src"":2,""loc"":8},{""cat"":20,""src"":9,""loc"":7}]","9","29,29,29,25,25,25,20,20,20,8,19,10,10,1,5,0,9,2,0,1,2,3,4,5,6,7,8,4,3,5,2,1,0,6,8,7",NA
"5740","sort_feedback","32","html-keyboard-response","229","2833456","0.0-5.0-39.0","3","2020-1-8 8:35:34","LION",NA,NA,NA,NA,NA,NA,NA,NA,NA,NA,NA,NA,NA,NA
"19986","setup4",NA,"animation","230","2853443","0.0-5.0-40.0","3","2020-1-8 8:35:34","LION",NA,NA,"[{""cat"":29,""src"":14,""loc"":1},{""cat"":29,""src"":5,""loc"":5},{""cat"":29,""src"":19,""loc"":8},{""cat"":7,""src"":12,""loc"":0},{""cat"":7,""src"":8,""loc"":6},{""cat"":7,""src"":14,""loc"":3},{""cat"":21,""src"":1,""loc"":2},{""cat"":21,""src"":12,""loc"":4},{""cat"":21,""src"":11,""loc"":7}]","4","1107,1111,1103,1116,1114,1113,1104,1105,1110,10003",NA,NA,NA,NA,NA,NA,NA,NA,NA
"2209","flanker_instructions","37","html-keyboard-response","231","2855657","0.0-5.0-41.0","3","2020-1-8 8:35:34","LION",NA,NA,NA,NA,NA,NA,NA,NA,NA,NA,NA,NA,NA,NA
"467","flanker_test","37","image-keyboard-response","232","2857128","0.0-5.0-42.0-0.0","3","2020-1-8 8:35:34","LION",NA,NA,NA,NA,NA,"congruent","left","TRUE",NA,NA,NA,NA,NA,NA
"466","flanker_test","39","image-keyboard-response","233","2858530","0.0-5.0-42.0-0.1","3","2020-1-8 8:35:34","LION",NA,NA,NA,NA,NA,"congruent","right","TRUE",NA,NA,NA,NA,NA,NA
"574","flanker_test","37","image-keyboard-response","234","2860196","0.0-5.0-42.0-0.2","3","2020-1-8 8:35:34","LION",NA,NA,NA,NA,NA,"incongruent","left","TRUE",NA,NA,NA,NA,NA,NA
"323","flanker_test","39","image-keyboard-response","235","2861391","0.0-5.0-42.0-0.3","3","2020-1-8 8:35:34","LION",NA,NA,NA,NA,NA,"incongruent","right","TRUE",NA,NA,NA,NA,NA,NA
"33631","sort_trial",NA,"free-sort","236","2895491","0.0-5.0-43.0","3","2020-1-8 8:35:34","LION",NA,NA,NA,NA,NA,NA,NA,NA,"[{""cat"":29,""src"":14,""x"":78,""y"":70},{""cat"":29,""src"":5,""x"":3,""y"":184},{""cat"":29,""src"":19,""x"":2,""y"":254},{""cat"":7,""src"":12,""x"":68,""y"":8},{""cat"":7,""src"":8,""x"":66,""y"":500},{""cat"":7,""src"":14,""x"":19,""y"":444},{""cat"":21,""src"":1,""x"":20,""y"":364},{""cat"":21,""src"":12,""x"":54,""y"":122},{""cat"":21,""src"":11,""x"":16,""y"":313}]","[{""cat"":""7"",""src"":""12"",""x"":0,""y"":0},{""cat"":""29"",""src"":""14"",""x"":0,""y"":0},{""cat"":""21"",""src"":""1"",""x"":0,""y"":0},{""cat"":""29"",""src"":""5"",""x"":0,""y"":0},{""cat"":""21"",""src"":""12"",""x"":0,""y"":0},{""cat"":""29"",""src"":""19"",""x"":0,""y"":0},{""cat"":""21"",""src"":""11"",""x"":0,""y"":0},{""cat"":""7"",""src"":""14"",""x"":0,""y"":0},{""cat"":""7"",""src"":""8"",""x"":0,""y"":0}]","[{""cat"":7,""src"":12,""loc"":0},{""cat"":29,""src"":14,""loc"":1},{""cat"":21,""src"":1,""loc"":2},{""cat"":29,""src"":5,""loc"":5},{""cat"":21,""src"":12,""loc"":4},{""cat"":29,""src"":19,""loc"":8},{""cat"":21,""src"":11,""loc"":7},{""cat"":7,""src"":14,""loc"":3},{""cat"":7,""src"":8,""loc"":6}]","9","7,29,21,7,21,29,7,21,29,12,14,1,14,12,5,8,11,19,0,1,2,3,4,5,6,7,8,0,1,2,7,4,3,8,6,5",NA
"5793","sort_feedback","32","html-keyboard-response","237","2901289","0.0-5.0-44.0","3","2020-1-8 8:35:34","LION",NA,NA,NA,NA,NA,NA,NA,NA,NA,NA,NA,NA,NA,NA
"20038","setup1",NA,"animation","238","2921329","0.0-5.0-45.0","3","2020-1-8 8:35:34","LION",NA,NA,"[{""cat"":19,""src"":17,""loc"":6},{""cat"":19,""src"":2,""loc"":8},{""cat"":19,""src"":13,""loc"":7},{""cat"":24,""src"":9,""loc"":5},{""cat"":24,""src"":0,""loc"":4},{""cat"":24,""src"":10,""loc"":3},{""cat"":20,""src"":2,""loc"":0},{""cat"":20,""src"":15,""loc"":2},{""cat"":20,""src"":19,""loc"":1}]","1","1128,1103,1117,1149,1117,1103,1104,1104,1108,10004",NA,NA,NA,NA,NA,NA,NA,NA,NA
"2182","flanker_instructions","37","html-keyboard-response","239","2923515","0.0-5.0-46.0","3","2020-1-8 8:35:34","LION",NA,NA,NA,NA,NA,NA,NA,NA,NA,NA,NA,NA,NA,NA
"714","flanker_test","39","image-keyboard-response","240","2925242","0.0-5.0-47.0-0.0","3","2020-1-8 8:35:34","LION",NA,NA,NA,NA,NA,"incongruent","right","TRUE",NA,NA,NA,NA,NA,NA
"538","flanker_test","37","image-keyboard-response","241","2926567","0.0-5.0-47.0-0.1","3","2020-1-8 8:35:34","LION",NA,NA,NA,NA,NA,"incongruent","left","TRUE",NA,NA,NA,NA,NA,NA
"531","flanker_test","39","image-keyboard-response","242","2927792","0.0-5.0-47.0-0.2","3","2020-1-8 8:35:34","LION",NA,NA,NA,NA,NA,"congruent","right","TRUE",NA,NA,NA,NA,NA,NA
"388","flanker_test","37","image-keyboard-response","243","2928789","0.0-5.0-47.0-0.3","3","2020-1-8 8:35:34","LION",NA,NA,NA,NA,NA,"congruent","left","TRUE",NA,NA,NA,NA,NA,NA
"42250","sort_trial",NA,"free-sort","244","2971420","0.0-5.0-48.0","3","2020-1-8 8:35:34","LION",NA,NA,NA,NA,NA,NA,NA,NA,"[{""cat"":19,""src"":17,""x"":23,""y"":8},{""cat"":19,""src"":2,""x"":28,""y"":254},{""cat"":19,""src"":13,""x"":48,""y"":367},{""cat"":24,""src"":9,""x"":78,""y"":181},{""cat"":24,""src"":0,""x"":73,""y"":131},{""cat"":24,""src"":10,""x"":37,""y"":304},{""cat"":20,""src"":2,""x"":9,""y"":77},{""cat"":20,""src"":15,""x"":40,""y"":430},{""cat"":20,""src"":19,""x"":3,""y"":480}]","[{""cat"":""20"",""src"":""19"",""x"":0,""y"":0},{""cat"":""20"",""src"":""15"",""x"":0,""y"":0},{""cat"":""20"",""src"":""2"",""x"":0,""y"":0},{""cat"":""24"",""src"":""9"",""x"":0,""y"":0},{""cat"":""19"",""src"":""2"",""x"":0,""y"":0},{""cat"":""24"",""src"":""10"",""x"":0,""y"":0},{""cat"":""24"",""src"":""0"",""x"":0,""y"":0},{""cat"":""19"",""src"":""17"",""x"":41,""y"":188},{""cat"":""19"",""src"":""17"",""x"":0,""y"":0},{""cat"":""19"",""src"":""13"",""x"":0,""y"":0}]","[{""cat"":20,""src"":19,""loc"":2},{""cat"":20,""src"":15,""loc"":1},{""cat"":20,""src"":2,""loc"":0},{""cat"":24,""src"":9,""loc"":5},{""cat"":19,""src"":2,""loc"":8},{""cat"":24,""src"":10,""loc"":3},{""cat"":24,""src"":0,""loc"":4},{""cat"":19,""src"":17,""loc"":6},{""cat"":19,""src"":13,""loc"":7}]","7","20,20,20,24,24,24,19,19,19,2,15,19,10,0,9,17,13,2,0,1,2,3,4,5,6,7,8,2,1,0,5,6,3,7,8,4",NA
"5763","sort_feedback","32","html-keyboard-response","245","2977197","0.0-5.0-49.0","3","2020-1-8 8:35:34","LION",NA,NA,NA,NA,NA,NA,NA,NA,NA,NA,NA,NA,NA,NA
"20973","demographics",NA,"html-button-response","246","2998172","0.0-6.0-0.0","3","2020-1-8 8:35:34","LION","0",NA,NA,NA,NA,NA,NA,NA,NA,NA,NA,NA,NA,NA
"5294","workerID",NA,"survey-text","247","3003469","0.0-6.0-1.0","3","2020-1-8 8:35:34","LION",NA,NA,NA,NA,NA,NA,NA,NA,NA,NA,NA,NA,NA,"{""Q0"":""A2OQMY85Q2WY68""}"
"3532","attn_check",NA,"survey-multi-choice","248","3007008","0.0-6.0-2.0","3","2020-1-8 8:35:34","LION",NA,NA,NA,NA,NA,NA,NA,NA,NA,NA,NA,NA,NA,"{""Q0"":""LION""}"
"3811","age",NA,"survey-text","249","3010822","0.0-6.0-3.0","3","2020-1-8 8:35:34","LION",NA,NA,NA,NA,NA,NA,NA,NA,NA,NA,NA,NA,NA,"{""Q0"":""53""}"
"2880","gender",NA,"survey-multi-choice","250","3013706","0.0-6.0-4.0","3","2020-1-8 8:35:34","LION",NA,NA,NA,NA,NA,NA,NA,NA,NA,NA,NA,NA,NA,"{""Q0"":""Male""}"
"2737","ethnic",NA,"survey-multi-choice","251","3016446","0.0-6.0-5.0","3","2020-1-8 8:35:34","LION",NA,NA,NA,NA,NA,NA,NA,NA,NA,NA,NA,NA,NA,"{""Q0"":""Not Hispanic or Latino""}"
"2663","race",NA,"survey-multi-select","252","3019115","0.0-6.0-6.0","3","2020-1-8 8:35:34","LION",NA,NA,NA,NA,NA,NA,NA,NA,NA,NA,NA,NA,NA,"{""Q0"":[""White""]}"
"4113","english",NA,"survey-multi-choice","253","3023231","0.0-6.0-7.0","3","2020-1-8 8:35:34","LION",NA,NA,NA,NA,NA,NA,NA,NA,NA,NA,NA,NA,NA,"{""Q0"":""Yes""}"
"3362","understand",NA,"survey-multi-choice","254","3026597","0.0-6.0-8.0","3","2020-1-8 8:35:34","LION",NA,NA,NA,NA,NA,NA,NA,NA,NA,NA,NA,NA,NA,"{""Q0"":""No""}"
"30739","strategies",NA,"survey-text","255","3057340","0.0-6.0-9.0","3","2020-1-8 8:35:34","LION",NA,NA,NA,NA,NA,NA,NA,NA,NA,NA,NA,NA,NA,"{""Q0"":""I can make a mental picture and keep it in my memory.""}"
"1495","comments",NA,"survey-text","256","3058837","0.0-6.0-10.0","3","2020-1-8 8:35:34","LION",NA,NA,NA,NA,NA,NA,NA,NA,NA,NA,NA,NA,NA,"{""Q0"":""""}"
"2224","study_end",NA,"html-button-response","257","3061064","0.0-7.0","3","2020-1-8 8:35:34","LION","0",NA,NA,NA,NA,NA,NA,NA,NA,NA,NA,NA,NA,NA
