"rt","stimulus","key_press","trial_type","trial_index","time_elapsed","internal_node_id","session","startTime","attn_word","button_pressed","view_history","animation_sequence","condition","time_sequence","stim_type","direction","correct","init_locations","moves","final_locations","sort_correct","finalLocations","responses"
"27806","welcome","17","html-keyboard-response","0","27817","0.0-0.0","3","2020-1-8 20:29:15","FISH",NA,NA,NA,NA,NA,NA,NA,NA,NA,NA,NA,NA,NA,NA
"34446","consent",NA,"html-button-response","1","62269","0.0-1.0","3","2020-1-8 20:29:15","FISH","0",NA,NA,NA,NA,NA,NA,NA,NA,NA,NA,NA,NA,NA
"26550","instructions",NA,"instructions","2","88823","0.0-2.0","3","2020-1-8 20:29:15","FISH",NA,"[{""page_index"":0,""viewing_time"":4161},{""page_index"":1,""viewing_time"":3044},{""page_index"":2,""viewing_time"":1888},{""page_index"":3,""viewing_time"":4134},{""page_index"":4,""viewing_time"":2533},{""page_index"":5,""viewing_time"":10789}]",NA,NA,NA,NA,NA,NA,NA,NA,NA,NA,NA,NA
"7953","finalInstructions",NA,"html-button-response","3","96780","0.0-3.0-0.0","3","2020-1-8 20:29:15","FISH","0",NA,NA,NA,NA,NA,NA,NA,NA,NA,NA,NA,NA,NA
"19928","setup1",NA,"animation","4","116712","0.0-3.0-1.0","3","2020-1-8 20:29:15","FISH",NA,NA,"[{""cat"":19,""src"":4,""loc"":7},{""cat"":19,""src"":3,""loc"":6},{""cat"":19,""src"":9,""loc"":8},{""cat"":3,""src"":16,""loc"":2},{""cat"":3,""src"":1,""loc"":0},{""cat"":3,""src"":19,""loc"":1},{""cat"":32,""src"":13,""loc"":4},{""cat"":32,""src"":8,""loc"":5},{""cat"":32,""src"":1,""loc"":3}]","1","1107,1102,1102,1102,1103,1101,1102,1103,1104,10002",NA,NA,NA,NA,NA,NA,NA,NA,NA
"485","flanker_instructions","39","html-keyboard-response","5","117203","0.0-3.0-2.0","3","2020-1-8 20:29:15","FISH",NA,NA,NA,NA,NA,NA,NA,NA,NA,NA,NA,NA,NA,NA
"595","flanker_test","37","image-keyboard-response","6","118805","0.0-3.0-3.0-0.0","3","2020-1-8 20:29:15","FISH",NA,NA,NA,NA,NA,"congruent","left","TRUE",NA,NA,NA,NA,NA,NA
"411","flanker_test","39","image-keyboard-response","7","119698","0.0-3.0-3.0-0.1","3","2020-1-8 20:29:15","FISH",NA,NA,NA,NA,NA,"congruent","right","TRUE",NA,NA,NA,NA,NA,NA
"559","flanker_test","37","image-keyboard-response","8","121225","0.0-3.0-3.0-0.2","3","2020-1-8 20:29:15","FISH",NA,NA,NA,NA,NA,"incongruent","left","TRUE",NA,NA,NA,NA,NA,NA
"696","flanker_test","39","image-keyboard-response","9","122281","0.0-3.0-3.0-0.3","3","2020-1-8 20:29:15","FISH",NA,NA,NA,NA,NA,"incongruent","right","TRUE",NA,NA,NA,NA,NA,NA
"35387","sort_trial",NA,"free-sort","10","158280","0.0-3.0-4.0","3","2020-1-8 20:29:15","FISH",NA,NA,NA,NA,NA,NA,NA,NA,"[{""cat"":19,""src"":4,""x"":21,""y"":371},{""cat"":19,""src"":3,""x"":25,""y"":323},{""cat"":19,""src"":9,""x"":34,""y"":68},{""cat"":3,""src"":16,""x"":30,""y"":480},{""cat"":3,""src"":1,""x"":17,""y"":13},{""cat"":3,""src"":19,""x"":22,""y"":447},{""cat"":32,""src"":13,""x"":23,""y"":268},{""cat"":32,""src"":8,""x"":33,""y"":205},{""cat"":32,""src"":1,""x"":46,""y"":138}]","[{""cat"":""19"",""src"":""4"",""x"":0,""y"":0},{""cat"":""19"",""src"":""3"",""x"":0,""y"":0},{""cat"":""19"",""src"":""9"",""x"":0,""y"":0},{""cat"":""3"",""src"":""1"",""x"":0,""y"":0},{""cat"":""3"",""src"":""19"",""x"":0,""y"":0},{""cat"":""3"",""src"":""16"",""x"":0,""y"":0},{""cat"":""32"",""src"":""1"",""x"":0,""y"":0},{""cat"":""32"",""src"":""8"",""x"":0,""y"":0},{""cat"":""32"",""src"":""13"",""x"":0,""y"":0}]","[{""cat"":19,""src"":4,""loc"":7},{""cat"":19,""src"":3,""loc"":6},{""cat"":19,""src"":9,""loc"":8},{""cat"":3,""src"":1,""loc"":0},{""cat"":3,""src"":19,""loc"":1},{""cat"":3,""src"":16,""loc"":2},{""cat"":32,""src"":1,""loc"":5},{""cat"":32,""src"":8,""loc"":4},{""cat"":32,""src"":13,""loc"":3}]","6","3,3,3,32,32,32,19,19,19,1,19,16,13,8,1,3,4,9,0,1,2,3,4,5,6,7,8,3,4,5,8,7,6,1,0,2",NA
"1475","sort_feedback","32","html-keyboard-response","11","159759","0.0-3.0-5.0","3","2020-1-8 20:29:15","FISH",NA,NA,NA,NA,NA,NA,NA,NA,NA,NA,NA,NA,NA,NA
"19926","setup4",NA,"animation","12","179688","0.0-3.0-6.0","3","2020-1-8 20:29:15","FISH",NA,NA,"[{""cat"":20,""src"":6,""loc"":8},{""cat"":20,""src"":10,""loc"":5},{""cat"":20,""src"":19,""loc"":0},{""cat"":4,""src"":19,""loc"":2},{""cat"":4,""src"":12,""loc"":6},{""cat"":4,""src"":7,""loc"":4},{""cat"":27,""src"":8,""loc"":3},{""cat"":27,""src"":7,""loc"":1},{""cat"":27,""src"":4,""loc"":7}]","4","1107,1101,1103,1102,1102,1102,1103,1103,1102,10000",NA,NA,NA,NA,NA,NA,NA,NA,NA
"554","flanker_instructions","39","html-keyboard-response","13","180247","0.0-3.0-7.0","3","2020-1-8 20:29:15","FISH",NA,NA,NA,NA,NA,NA,NA,NA,NA,NA,NA,NA,NA,NA
"561","flanker_test","39","image-keyboard-response","14","181812","0.0-3.0-8.0-0.0","3","2020-1-8 20:29:15","FISH",NA,NA,NA,NA,NA,"congruent","right","TRUE",NA,NA,NA,NA,NA,NA
"698","flanker_test","39","image-keyboard-response","15","183410","0.0-3.0-8.0-0.1","3","2020-1-8 20:29:15","FISH",NA,NA,NA,NA,NA,"incongruent","right","TRUE",NA,NA,NA,NA,NA,NA
"489","flanker_test","37","image-keyboard-response","16","184803","0.0-3.0-8.0-0.2","3","2020-1-8 20:29:15","FISH",NA,NA,NA,NA,NA,"incongruent","left","TRUE",NA,NA,NA,NA,NA,NA
"463","flanker_test","37","image-keyboard-response","17","185582","0.0-3.0-8.0-0.3","3","2020-1-8 20:29:15","FISH",NA,NA,NA,NA,NA,"congruent","left","TRUE",NA,NA,NA,NA,NA,NA
"28752","sort_trial",NA,"free-sort","18","215174","0.0-3.0-9.0","3","2020-1-8 20:29:15","FISH",NA,NA,NA,NA,NA,NA,NA,NA,"[{""cat"":20,""src"":6,""x"":64,""y"":203},{""cat"":20,""src"":10,""x"":39,""y"":439},{""cat"":20,""src"":19,""x"":43,""y"":494},{""cat"":4,""src"":19,""x"":1,""y"":10},{""cat"":4,""src"":12,""x"":29,""y"":244},{""cat"":4,""src"":7,""x"":18,""y"":77},{""cat"":27,""src"":8,""x"":58,""y"":365},{""cat"":27,""src"":7,""x"":42,""y"":325},{""cat"":27,""src"":4,""x"":79,""y"":130}]","[{""cat"":""27"",""src"":""4"",""x"":0,""y"":0},{""cat"":""4"",""src"":""12"",""x"":0,""y"":0},{""cat"":""20"",""src"":""6"",""x"":0,""y"":0},{""cat"":""4"",""src"":""19"",""x"":0,""y"":0},{""cat"":""4"",""src"":""7"",""x"":0,""y"":0},{""cat"":""27"",""src"":""7"",""x"":0,""y"":0},{""cat"":""27"",""src"":""8"",""x"":0,""y"":0},{""cat"":""20"",""src"":""10"",""x"":0,""y"":0},{""cat"":""20"",""src"":""19"",""x"":0,""y"":0}]","[{""cat"":27,""src"":4,""loc"":7},{""cat"":4,""src"":12,""loc"":6},{""cat"":20,""src"":6,""loc"":8},{""cat"":4,""src"":19,""loc"":1},{""cat"":4,""src"":7,""loc"":0},{""cat"":27,""src"":7,""loc"":2},{""cat"":27,""src"":8,""loc"":5},{""cat"":20,""src"":10,""loc"":4},{""cat"":20,""src"":19,""loc"":3}]","3","4,4,27,20,20,27,4,27,20,7,19,7,19,10,8,12,4,6,0,1,2,3,4,5,6,7,8,4,3,5,8,7,6,1,0,2",NA
"1151","sort_feedback","32","html-keyboard-response","19","216329","0.0-3.0-10.0","3","2020-1-8 20:29:15","FISH",NA,NA,NA,NA,NA,NA,NA,NA,NA,NA,NA,NA,NA,NA
"19924","setup2",NA,"animation","20","236254","0.0-3.0-11.0","3","2020-1-8 20:29:15","FISH",NA,NA,"[{""cat"":15,""src"":7,""loc"":1},{""cat"":0,""src"":15,""loc"":2},{""cat"":4,""src"":2,""loc"":0},{""cat"":4,""src"":4,""loc"":6},{""cat"":15,""src"":16,""loc"":7},{""cat"":0,""src"":1,""loc"":8},{""cat"":0,""src"":4,""loc"":3},{""cat"":4,""src"":14,""loc"":5},{""cat"":15,""src"":17,""loc"":4}]","2","1103,1103,1102,1101,1102,1103,1102,1103,1104,10000",NA,NA,NA,NA,NA,NA,NA,NA,NA
"497","flanker_instructions","39","html-keyboard-response","21","236754","0.0-3.0-12.0","3","2020-1-8 20:29:15","FISH",NA,NA,NA,NA,NA,NA,NA,NA,NA,NA,NA,NA,NA,NA
"463","flanker_test","39","image-keyboard-response","22","238225","0.0-3.0-13.0-0.0","3","2020-1-8 20:29:15","FISH",NA,NA,NA,NA,NA,"congruent","right","TRUE",NA,NA,NA,NA,NA,NA
"435","flanker_test","37","image-keyboard-response","23","239299","0.0-3.0-13.0-0.1","3","2020-1-8 20:29:15","FISH",NA,NA,NA,NA,NA,"congruent","left","TRUE",NA,NA,NA,NA,NA,NA
"641","flanker_test","39","image-keyboard-response","24","240549","0.0-3.0-13.0-0.2","3","2020-1-8 20:29:15","FISH",NA,NA,NA,NA,NA,"incongruent","right","TRUE",NA,NA,NA,NA,NA,NA
"522","flanker_test","37","image-keyboard-response","25","241644","0.0-3.0-13.0-0.3","3","2020-1-8 20:29:15","FISH",NA,NA,NA,NA,NA,"incongruent","left","TRUE",NA,NA,NA,NA,NA,NA
"28476","sort_trial",NA,"free-sort","26","271227","0.0-3.0-14.0","3","2020-1-8 20:29:15","FISH",NA,NA,NA,NA,NA,NA,NA,NA,"[{""cat"":15,""src"":7,""x"":27,""y"":67},{""cat"":0,""src"":15,""x"":39,""y"":441},{""cat"":4,""src"":2,""x"":30,""y"":484},{""cat"":4,""src"":4,""x"":31,""y"":186},{""cat"":15,""src"":16,""x"":61,""y"":24},{""cat"":0,""src"":1,""x"":69,""y"":240},{""cat"":0,""src"":4,""x"":61,""y"":378},{""cat"":4,""src"":14,""x"":38,""y"":323},{""cat"":15,""src"":17,""x"":6,""y"":145}]","[{""cat"":""15"",""src"":""7"",""x"":0,""y"":0},{""cat"":""4"",""src"":""2"",""x"":0,""y"":0},{""cat"":""0"",""src"":""15"",""x"":0,""y"":0},{""cat"":""15"",""src"":""16"",""x"":0,""y"":0},{""cat"":""15"",""src"":""17"",""x"":0,""y"":0},{""cat"":""4"",""src"":""4"",""x"":0,""y"":0},{""cat"":""0"",""src"":""1"",""x"":0,""y"":0},{""cat"":""4"",""src"":""14"",""x"":0,""y"":0},{""cat"":""0"",""src"":""4"",""x"":0,""y"":0}]","[{""cat"":15,""src"":7,""loc"":1},{""cat"":4,""src"":2,""loc"":0},{""cat"":0,""src"":15,""loc"":2},{""cat"":15,""src"":16,""loc"":5},{""cat"":15,""src"":17,""loc"":4},{""cat"":4,""src"":4,""loc"":3},{""cat"":0,""src"":1,""loc"":6},{""cat"":4,""src"":14,""loc"":7},{""cat"":0,""src"":4,""loc"":8}]","4","4,15,0,4,15,15,0,4,0,2,7,15,4,17,16,1,14,4,0,1,2,3,4,5,6,7,8,1,0,2,5,4,3,6,7,8",NA
"1107","sort_feedback","32","html-keyboard-response","27","272343","0.0-3.0-15.0","3","2020-1-8 20:29:15","FISH",NA,NA,NA,NA,NA,NA,NA,NA,NA,NA,NA,NA,NA,NA
"19932","setup3",NA,"animation","28","292281","0.0-3.0-16.0","3","2020-1-8 20:29:15","FISH",NA,NA,"[{""cat"":29,""src"":2,""loc"":8},{""cat"":32,""src"":19,""loc"":3},{""cat"":24,""src"":10,""loc"":2},{""cat"":32,""src"":17,""loc"":4},{""cat"":24,""src"":19,""loc"":0},{""cat"":29,""src"":1,""loc"":6},{""cat"":24,""src"":2,""loc"":1},{""cat"":32,""src"":14,""loc"":5},{""cat"":29,""src"":9,""loc"":7}]","3","1111,1102,1102,1103,1102,1103,1102,1103,1104,10000",NA,NA,NA,NA,NA,NA,NA,NA,NA
"1052","flanker_instructions","39","html-keyboard-response","29","293335","0.0-3.0-17.0","3","2020-1-8 20:29:15","FISH",NA,NA,NA,NA,NA,NA,NA,NA,NA,NA,NA,NA,NA,NA
"708","flanker_test","37","image-keyboard-response","30","295048","0.0-3.0-18.0-0.0","3","2020-1-8 20:29:15","FISH",NA,NA,NA,NA,NA,"incongruent","left","TRUE",NA,NA,NA,NA,NA,NA
"685","flanker_test","39","image-keyboard-response","31","296850","0.0-3.0-18.0-0.1","3","2020-1-8 20:29:15","FISH",NA,NA,NA,NA,NA,"incongruent","right","TRUE",NA,NA,NA,NA,NA,NA
"484","flanker_test","39","image-keyboard-response","32","297808","0.0-3.0-18.0-0.2","3","2020-1-8 20:29:15","FISH",NA,NA,NA,NA,NA,"congruent","right","TRUE",NA,NA,NA,NA,NA,NA
"516","flanker_test","37","image-keyboard-response","33","299142","0.0-3.0-18.0-0.3","3","2020-1-8 20:29:15","FISH",NA,NA,NA,NA,NA,"congruent","left","TRUE",NA,NA,NA,NA,NA,NA
"25533","sort_trial",NA,"free-sort","34","325242","0.0-3.0-19.0","3","2020-1-8 20:29:15","FISH",NA,NA,NA,NA,NA,NA,NA,NA,"[{""cat"":29,""src"":2,""x"":75,""y"":69},{""cat"":32,""src"":19,""x"":75,""y"":313},{""cat"":24,""src"":10,""x"":83,""y"":366},{""cat"":32,""src"":17,""x"":21,""y"":202},{""cat"":24,""src"":19,""x"":2,""y"":494},{""cat"":29,""src"":1,""x"":45,""y"":436},{""cat"":24,""src"":2,""x"":59,""y"":252},{""cat"":32,""src"":14,""x"":82,""y"":148},{""cat"":29,""src"":9,""x"":19,""y"":26}]","[{""cat"":""24"",""src"":""19"",""x"":0,""y"":0},{""cat"":""24"",""src"":""2"",""x"":0,""y"":0},{""cat"":""24"",""src"":""10"",""x"":0,""y"":0},{""cat"":""29"",""src"":""9"",""x"":0,""y"":0},{""cat"":""29"",""src"":""2"",""x"":0,""y"":0},{""cat"":""32"",""src"":""14"",""x"":0,""y"":0},{""cat"":""32"",""src"":""17"",""x"":0,""y"":0},{""cat"":""32"",""src"":""19"",""x"":0,""y"":0},{""cat"":""29"",""src"":""1"",""x"":0,""y"":0}]","[{""cat"":24,""src"":19,""loc"":7},{""cat"":24,""src"":2,""loc"":6},{""cat"":24,""src"":10,""loc"":8},{""cat"":29,""src"":9,""loc"":1},{""cat"":29,""src"":2,""loc"":4},{""cat"":32,""src"":14,""loc"":0},{""cat"":32,""src"":17,""loc"":5},{""cat"":32,""src"":19,""loc"":3},{""cat"":29,""src"":1,""loc"":2}]","1","32,29,29,32,29,32,24,24,24,14,9,1,19,2,17,2,19,10,0,1,2,3,4,5,6,7,8,5,3,8,7,4,6,1,0,2",NA
"1325","sort_feedback","32","html-keyboard-response","35","326571","0.0-3.0-20.0","3","2020-1-8 20:29:15","FISH",NA,NA,NA,NA,NA,NA,NA,NA,NA,NA,NA,NA,NA,NA
"19927","setup5",NA,"animation","36","346499","0.0-3.0-21.0","3","2020-1-8 20:29:15","FISH",NA,NA,"[{""cat"":33,""src"":12,""loc"":6},{""cat"":28,""src"":10,""loc"":1},{""cat"":18,""src"":17,""loc"":4},{""cat"":33,""src"":5,""loc"":2},{""cat"":28,""src"":5,""loc"":5},{""cat"":18,""src"":14,""loc"":7},{""cat"":18,""src"":1,""loc"":0},{""cat"":33,""src"":19,""loc"":3},{""cat"":28,""src"":12,""loc"":8}]","5","1105,1103,1102,1103,1102,1103,1102,1102,1103,10001",NA,NA,NA,NA,NA,NA,NA,NA,NA
"746","flanker_instructions","39","html-keyboard-response","37","347248","0.0-3.0-22.0","3","2020-1-8 20:29:15","FISH",NA,NA,NA,NA,NA,NA,NA,NA,NA,NA,NA,NA,NA,NA
"532","flanker_test","39","image-keyboard-response","38","348784","0.0-3.0-23.0-0.0","3","2020-1-8 20:29:15","FISH",NA,NA,NA,NA,NA,"congruent","right","TRUE",NA,NA,NA,NA,NA,NA
"460","flanker_test","37","image-keyboard-response","39","350070","0.0-3.0-23.0-0.1","3","2020-1-8 20:29:15","FISH",NA,NA,NA,NA,NA,"congruent","left","TRUE",NA,NA,NA,NA,NA,NA
"621","flanker_test","39","image-keyboard-response","40","351494","0.0-3.0-23.0-0.2","3","2020-1-8 20:29:15","FISH",NA,NA,NA,NA,NA,"incongruent","right","TRUE",NA,NA,NA,NA,NA,NA
"526","flanker_test","37","image-keyboard-response","41","352510","0.0-3.0-23.0-0.3","3","2020-1-8 20:29:15","FISH",NA,NA,NA,NA,NA,"incongruent","left","TRUE",NA,NA,NA,NA,NA,NA
"29643","sort_trial",NA,"free-sort","42","383256","0.0-3.0-24.0","3","2020-1-8 20:29:15","FISH",NA,NA,NA,NA,NA,NA,NA,NA,"[{""cat"":33,""src"":12,""x"":5,""y"":306},{""cat"":28,""src"":10,""x"":24,""y"":12},{""cat"":18,""src"":17,""x"":77,""y"":387},{""cat"":33,""src"":5,""x"":6,""y"":263},{""cat"":28,""src"":5,""x"":42,""y"":82},{""cat"":18,""src"":14,""x"":81,""y"":125},{""cat"":18,""src"":1,""x"":74,""y"":496},{""cat"":33,""src"":19,""x"":10,""y"":432},{""cat"":28,""src"":12,""x"":39,""y"":201}]","[{""cat"":""33"",""src"":""12"",""x"":0,""y"":0},{""cat"":""18"",""src"":""14"",""x"":0,""y"":0},{""cat"":""28"",""src"":""12"",""x"":0,""y"":0},{""cat"":""28"",""src"":""10"",""x"":0,""y"":0},{""cat"":""28"",""src"":""5"",""x"":0,""y"":0},{""cat"":""33"",""src"":""5"",""x"":0,""y"":0},{""cat"":""18"",""src"":""17"",""x"":0,""y"":0},{""cat"":""33"",""src"":""19"",""x"":0,""y"":0},{""cat"":""18"",""src"":""1"",""x"":0,""y"":0}]","[{""cat"":33,""src"":12,""loc"":6},{""cat"":18,""src"":14,""loc"":7},{""cat"":28,""src"":12,""loc"":8},{""cat"":28,""src"":10,""loc"":1},{""cat"":28,""src"":5,""loc"":0},{""cat"":33,""src"":5,""loc"":5},{""cat"":18,""src"":17,""loc"":2},{""cat"":33,""src"":19,""loc"":3},{""cat"":18,""src"":1,""loc"":4}]","5","28,28,18,33,18,33,33,18,28,5,10,17,19,1,5,12,14,12,0,1,2,3,4,5,6,7,8,4,3,6,7,8,5,0,1,2",NA
"851","sort_feedback","32","html-keyboard-response","43","384111","0.0-3.0-25.0","3","2020-1-8 20:29:15","FISH",NA,NA,NA,NA,NA,NA,NA,NA,NA,NA,NA,NA,NA,NA
"19924","setup1",NA,"animation","44","404036","0.0-3.0-26.0","3","2020-1-8 20:29:15","FISH",NA,NA,"[{""cat"":16,""src"":0,""loc"":2},{""cat"":16,""src"":9,""loc"":0},{""cat"":16,""src"":7,""loc"":1},{""cat"":4,""src"":0,""loc"":6},{""cat"":4,""src"":9,""loc"":7},{""cat"":4,""src"":19,""loc"":8},{""cat"":12,""src"":7,""loc"":5},{""cat"":12,""src"":3,""loc"":4},{""cat"":12,""src"":17,""loc"":3}]","1","1105,1101,1101,1102,1102,1103,1103,1103,1103,10001",NA,NA,NA,NA,NA,NA,NA,NA,NA
"416","flanker_instructions","39","html-keyboard-response","45","404455","0.0-3.0-27.0","3","2020-1-8 20:29:15","FISH",NA,NA,NA,NA,NA,NA,NA,NA,NA,NA,NA,NA,NA,NA
"610","flanker_test","37","image-keyboard-response","46","406069","0.0-3.0-28.0-0.0","3","2020-1-8 20:29:15","FISH",NA,NA,NA,NA,NA,"congruent","left","TRUE",NA,NA,NA,NA,NA,NA
"579","flanker_test","39","image-keyboard-response","47","407263","0.0-3.0-28.0-0.1","3","2020-1-8 20:29:15","FISH",NA,NA,NA,NA,NA,"incongruent","right","TRUE",NA,NA,NA,NA,NA,NA
"614","flanker_test","37","image-keyboard-response","48","408507","0.0-3.0-28.0-0.2","3","2020-1-8 20:29:15","FISH",NA,NA,NA,NA,NA,"incongruent","left","TRUE",NA,NA,NA,NA,NA,NA
"516","flanker_test","39","image-keyboard-response","49","409488","0.0-3.0-28.0-0.3","3","2020-1-8 20:29:15","FISH",NA,NA,NA,NA,NA,"congruent","right","TRUE",NA,NA,NA,NA,NA,NA
"25257","sort_trial",NA,"free-sort","50","435337","0.0-3.0-29.0","3","2020-1-8 20:29:15","FISH",NA,NA,NA,NA,NA,NA,NA,NA,"[{""cat"":16,""src"":0,""x"":69,""y"":81},{""cat"":16,""src"":9,""x"":23,""y"":248},{""cat"":16,""src"":7,""x"":40,""y"":502},{""cat"":4,""src"":0,""x"":78,""y"":22},{""cat"":4,""src"":9,""x"":30,""y"":143},{""cat"":4,""src"":19,""x"":63,""y"":369},{""cat"":12,""src"":7,""x"":35,""y"":327},{""cat"":12,""src"":3,""x"":5,""y"":447},{""cat"":12,""src"":17,""x"":82,""y"":185}]","[{""cat"":""4"",""src"":""19"",""x"":0,""y"":0},{""cat"":""4"",""src"":""0"",""x"":0,""y"":0},{""cat"":""4"",""src"":""9"",""x"":0,""y"":0},{""cat"":""16"",""src"":""0"",""x"":0,""y"":0},{""cat"":""12"",""src"":""17"",""x"":0,""y"":0},{""cat"":""16"",""src"":""9"",""x"":0,""y"":0},{""cat"":""12"",""src"":""7"",""x"":0,""y"":0},{""cat"":""12"",""src"":""3"",""x"":0,""y"":0},{""cat"":""16"",""src"":""7"",""x"":0,""y"":0}]","[{""cat"":4,""src"":19,""loc"":8},{""cat"":4,""src"":0,""loc"":6},{""cat"":4,""src"":9,""loc"":7},{""cat"":16,""src"":0,""loc"":1},{""cat"":12,""src"":17,""loc"":0},{""cat"":16,""src"":9,""loc"":2},{""cat"":12,""src"":7,""loc"":5},{""cat"":12,""src"":3,""loc"":4},{""cat"":16,""src"":7,""loc"":3}]","5","12,16,16,16,12,12,4,4,4,17,0,9,7,3,7,0,9,19,0,1,2,3,4,5,6,7,8,4,3,5,8,7,6,1,2,0",NA
"907","sort_feedback","32","html-keyboard-response","51","436248","0.0-3.0-30.0","3","2020-1-8 20:29:15","FISH",NA,NA,NA,NA,NA,NA,NA,NA,NA,NA,NA,NA,NA,NA
"19927","setup5",NA,"animation","52","456177","0.0-3.0-31.0","3","2020-1-8 20:29:15","FISH",NA,NA,"[{""cat"":31,""src"":9,""loc"":0},{""cat"":6,""src"":3,""loc"":5},{""cat"":7,""src"":3,""loc"":7},{""cat"":7,""src"":15,""loc"":1},{""cat"":6,""src"":14,""loc"":8},{""cat"":31,""src"":19,""loc"":4},{""cat"":6,""src"":7,""loc"":2},{""cat"":7,""src"":7,""loc"":3},{""cat"":31,""src"":0,""loc"":6}]","5","1104,1104,1101,1101,1109,1102,1102,1101,1102,10001",NA,NA,NA,NA,NA,NA,NA,NA,NA
"757","flanker_instructions","39","html-keyboard-response","53","456938","0.0-3.0-32.0","3","2020-1-8 20:29:15","FISH",NA,NA,NA,NA,NA,NA,NA,NA,NA,NA,NA,NA,NA,NA
"494","flanker_test","37","image-keyboard-response","54","458437","0.0-3.0-33.0-0.0","3","2020-1-8 20:29:15","FISH",NA,NA,NA,NA,NA,"congruent","left","TRUE",NA,NA,NA,NA,NA,NA
"609","flanker_test","39","image-keyboard-response","55","460212","0.0-3.0-33.0-0.1","3","2020-1-8 20:29:15","FISH",NA,NA,NA,NA,NA,"incongruent","right","TRUE",NA,NA,NA,NA,NA,NA
"619","flanker_test","37","image-keyboard-response","56","461335","0.0-3.0-33.0-0.2","3","2020-1-8 20:29:15","FISH",NA,NA,NA,NA,NA,"incongruent","left","TRUE",NA,NA,NA,NA,NA,NA
"501","flanker_test","39","image-keyboard-response","57","462702","0.0-3.0-33.0-0.3","3","2020-1-8 20:29:15","FISH",NA,NA,NA,NA,NA,"congruent","right","TRUE",NA,NA,NA,NA,NA,NA
"26458","sort_trial",NA,"free-sort","58","490355","0.0-3.0-34.0","3","2020-1-8 20:29:15","FISH",NA,NA,NA,NA,NA,NA,NA,NA,"[{""cat"":31,""src"":9,""x"":6,""y"":254},{""cat"":6,""src"":3,""x"":65,""y"":77},{""cat"":7,""src"":3,""x"":64,""y"":387},{""cat"":7,""src"":15,""x"":64,""y"":499},{""cat"":6,""src"":14,""x"":42,""y"":121},{""cat"":31,""src"":19,""x"":34,""y"":421},{""cat"":6,""src"":7,""x"":72,""y"":313},{""cat"":7,""src"":7,""x"":83,""y"":10},{""cat"":31,""src"":0,""x"":16,""y"":181}]","[{""cat"":""7"",""src"":""3"",""x"":0,""y"":0},{""cat"":""31"",""src"":""0"",""x"":0,""y"":0},{""cat"":""6"",""src"":""14"",""x"":0,""y"":0},{""cat"":""7"",""src"":""7"",""x"":0,""y"":0},{""cat"":""6"",""src"":""3"",""x"":0,""y"":0},{""cat"":""31"",""src"":""9"",""x"":0,""y"":0},{""cat"":""6"",""src"":""7"",""x"":0,""y"":0},{""cat"":""31"",""src"":""19"",""x"":0,""y"":0},{""cat"":""7"",""src"":""15"",""x"":0,""y"":0}]","[{""cat"":7,""src"":3,""loc"":7},{""cat"":31,""src"":0,""loc"":6},{""cat"":6,""src"":14,""loc"":8},{""cat"":7,""src"":7,""loc"":5},{""cat"":6,""src"":3,""loc"":4},{""cat"":31,""src"":9,""loc"":3},{""cat"":6,""src"":7,""loc"":1},{""cat"":31,""src"":19,""loc"":0},{""cat"":7,""src"":15,""loc"":2}]","3","31,6,7,31,6,7,31,7,6,19,7,15,9,3,7,0,3,14,0,1,2,3,4,5,6,7,8,7,6,8,5,4,3,1,0,2",NA
"1775","sort_feedback","32","html-keyboard-response","59","492137","0.0-3.0-35.0","3","2020-1-8 20:29:15","FISH",NA,NA,NA,NA,NA,NA,NA,NA,NA,NA,NA,NA,NA,NA
"19926","setup3",NA,"animation","60","512065","0.0-3.0-36.0","3","2020-1-8 20:29:15","FISH",NA,NA,"[{""cat"":11,""src"":6,""loc"":5},{""cat"":19,""src"":13,""loc"":8},{""cat"":22,""src"":13,""loc"":2},{""cat"":19,""src"":16,""loc"":7},{""cat"":11,""src"":11,""loc"":4},{""cat"":22,""src"":8,""loc"":1},{""cat"":22,""src"":3,""loc"":0},{""cat"":19,""src"":18,""loc"":6},{""cat"":11,""src"":18,""loc"":3}]","3","1107,1101,1102,1102,1102,1103,1103,1102,1103,10001",NA,NA,NA,NA,NA,NA,NA,NA,NA
"644","flanker_instructions","39","html-keyboard-response","61","512713","0.0-3.0-37.0","3","2020-1-8 20:29:15","FISH",NA,NA,NA,NA,NA,NA,NA,NA,NA,NA,NA,NA,NA,NA
"530","flanker_test","39","image-keyboard-response","62","514247","0.0-3.0-38.0-0.0","3","2020-1-8 20:29:15","FISH",NA,NA,NA,NA,NA,"congruent","right","TRUE",NA,NA,NA,NA,NA,NA
"639","flanker_test","39","image-keyboard-response","63","515490","0.0-3.0-38.0-0.1","3","2020-1-8 20:29:15","FISH",NA,NA,NA,NA,NA,"incongruent","right","TRUE",NA,NA,NA,NA,NA,NA
"461","flanker_test","37","image-keyboard-response","64","516913","0.0-3.0-38.0-0.2","3","2020-1-8 20:29:15","FISH",NA,NA,NA,NA,NA,"congruent","left","TRUE",NA,NA,NA,NA,NA,NA
"658","flanker_test","37","image-keyboard-response","65","517895","0.0-3.0-38.0-0.3","3","2020-1-8 20:29:15","FISH",NA,NA,NA,NA,NA,"incongruent","left","TRUE",NA,NA,NA,NA,NA,NA
"33427","sort_trial",NA,"free-sort","66","552386","0.0-3.0-39.0","3","2020-1-8 20:29:15","FISH",NA,NA,NA,NA,NA,NA,NA,NA,"[{""cat"":11,""src"":6,""x"":44,""y"":433},{""cat"":19,""src"":13,""x"":61,""y"":60},{""cat"":22,""src"":13,""x"":36,""y"":366},{""cat"":19,""src"":16,""x"":34,""y"":193},{""cat"":11,""src"":11,""x"":76,""y"":0},{""cat"":22,""src"":8,""x"":0,""y"":326},{""cat"":22,""src"":3,""x"":33,""y"":242},{""cat"":19,""src"":18,""x"":53,""y"":142},{""cat"":11,""src"":18,""x"":0,""y"":479}]","[{""cat"":""19"",""src"":""16"",""x"":0,""y"":0},{""cat"":""19"",""src"":""18"",""x"":0,""y"":0},{""cat"":""19"",""src"":""13"",""x"":0,""y"":0},{""cat"":""22"",""src"":""3"",""x"":0,""y"":0},{""cat"":""22"",""src"":""8"",""x"":0,""y"":0},{""cat"":""22"",""src"":""13"",""x"":503,""y"":15},{""cat"":""22"",""src"":""13"",""x"":0,""y"":0},{""cat"":""11"",""src"":""11"",""x"":0,""y"":0},{""cat"":""11"",""src"":""6"",""x"":0,""y"":0},{""cat"":""11"",""src"":""18"",""x"":0,""y"":0}]","[{""cat"":19,""src"":16,""loc"":7},{""cat"":19,""src"":18,""loc"":6},{""cat"":19,""src"":13,""loc"":8},{""cat"":22,""src"":3,""loc"":2},{""cat"":22,""src"":8,""loc"":0},{""cat"":22,""src"":13,""loc"":1},{""cat"":11,""src"":11,""loc"":5},{""cat"":11,""src"":6,""loc"":4},{""cat"":11,""src"":18,""loc"":3}]","4","22,22,22,11,11,11,19,19,19,8,13,3,18,6,11,18,16,13,0,1,2,3,4,5,6,7,8,4,5,3,8,7,6,1,0,2",NA
"1147","sort_feedback","32","html-keyboard-response","67","553535","0.0-3.0-40.0","3","2020-1-8 20:29:15","FISH",NA,NA,NA,NA,NA,NA,NA,NA,NA,NA,NA,NA,NA,NA
"19917","setup2",NA,"animation","68","573455","0.0-3.0-41.0","3","2020-1-8 20:29:15","FISH",NA,NA,"[{""cat"":10,""src"":1,""loc"":1},{""cat"":31,""src"":7,""loc"":2},{""cat"":12,""src"":18,""loc"":0},{""cat"":12,""src"":15,""loc"":4},{""cat"":10,""src"":17,""loc"":5},{""cat"":31,""src"":11,""loc"":3},{""cat"":10,""src"":19,""loc"":6},{""cat"":31,""src"":3,""loc"":8},{""cat"":12,""src"":4,""loc"":7}]","2","1104,1101,1101,1103,1101,1101,1102,1102,1101,10001",NA,NA,NA,NA,NA,NA,NA,NA,NA
"537","flanker_instructions","39","html-keyboard-response","69","573996","0.0-3.0-42.0","3","2020-1-8 20:29:15","FISH",NA,NA,NA,NA,NA,NA,NA,NA,NA,NA,NA,NA,NA,NA
"762","flanker_test","37","image-keyboard-response","70","575763","0.0-3.0-43.0-0.0","3","2020-1-8 20:29:15","FISH",NA,NA,NA,NA,NA,"incongruent","left","TRUE",NA,NA,NA,NA,NA,NA
"506","flanker_test","37","image-keyboard-response","71","576929","0.0-3.0-43.0-0.1","3","2020-1-8 20:29:15","FISH",NA,NA,NA,NA,NA,"congruent","left","TRUE",NA,NA,NA,NA,NA,NA
"476","flanker_test","39","image-keyboard-response","72","577984","0.0-3.0-43.0-0.2","3","2020-1-8 20:29:15","FISH",NA,NA,NA,NA,NA,"congruent","right","TRUE",NA,NA,NA,NA,NA,NA
"608","flanker_test","39","image-keyboard-response","73","579057","0.0-3.0-43.0-0.3","3","2020-1-8 20:29:15","FISH",NA,NA,NA,NA,NA,"incongruent","right","TRUE",NA,NA,NA,NA,NA,NA
"29478","sort_trial",NA,"free-sort","74","609439","0.0-3.0-44.0","3","2020-1-8 20:29:15","FISH",NA,NA,NA,NA,NA,NA,NA,NA,"[{""cat"":10,""src"":1,""x"":67,""y"":182},{""cat"":31,""src"":7,""x"":23,""y"":139},{""cat"":12,""src"":18,""x"":36,""y"":10},{""cat"":12,""src"":15,""x"":69,""y"":440},{""cat"":10,""src"":17,""x"":66,""y"":260},{""cat"":31,""src"":11,""x"":1,""y"":363},{""cat"":10,""src"":19,""x"":50,""y"":67},{""cat"":31,""src"":3,""x"":38,""y"":501},{""cat"":12,""src"":4,""x"":2,""y"":308}]","[{""cat"":""12"",""src"":""4"",""x"":0,""y"":0},{""cat"":""10"",""src"":""19"",""x"":0,""y"":0},{""cat"":""31"",""src"":""3"",""x"":0,""y"":0},{""cat"":""12"",""src"":""18"",""x"":0,""y"":0},{""cat"":""31"",""src"":""7"",""x"":424,""y"":79},{""cat"":""31"",""src"":""7"",""x"":0,""y"":0},{""cat"":""10"",""src"":""1"",""x"":0,""y"":0},{""cat"":""10"",""src"":""17"",""x"":0,""y"":0},{""cat"":""31"",""src"":""11"",""x"":0,""y"":0},{""cat"":""12"",""src"":""15"",""x"":0,""y"":0}]","[{""cat"":12,""src"":4,""loc"":7},{""cat"":10,""src"":19,""loc"":6},{""cat"":31,""src"":3,""loc"":8},{""cat"":12,""src"":18,""loc"":0},{""cat"":31,""src"":7,""loc"":1},{""cat"":10,""src"":1,""loc"":2},{""cat"":10,""src"":17,""loc"":5},{""cat"":31,""src"":11,""loc"":4},{""cat"":12,""src"":15,""loc"":3}]","5","12,31,10,12,31,10,10,12,31,18,7,1,15,11,17,19,4,3,0,1,2,3,4,5,6,7,8,3,4,5,8,7,6,1,0,2",NA
"2028","sort_feedback","32","html-keyboard-response","75","611471","0.0-3.0-45.0","3","2020-1-8 20:29:15","FISH",NA,NA,NA,NA,NA,NA,NA,NA,NA,NA,NA,NA,NA,NA
"19921","setup4",NA,"animation","76","631394","0.0-3.0-46.0","3","2020-1-8 20:29:15","FISH",NA,NA,"[{""cat"":31,""src"":16,""loc"":1},{""cat"":31,""src"":0,""loc"":7},{""cat"":31,""src"":13,""loc"":4},{""cat"":13,""src"":19,""loc"":8},{""cat"":13,""src"":10,""loc"":3},{""cat"":13,""src"":6,""loc"":2},{""cat"":4,""src"":3,""loc"":5},{""cat"":4,""src"":2,""loc"":0},{""cat"":4,""src"":17,""loc"":6}]","4","1105,1101,1102,1103,1101,1102,1101,1102,1103,10001",NA,NA,NA,NA,NA,NA,NA,NA,NA
"1501","flanker_instructions","39","html-keyboard-response","77","632900","0.0-3.0-47.0","3","2020-1-8 20:29:15","FISH",NA,NA,NA,NA,NA,NA,NA,NA,NA,NA,NA,NA,NA,NA
"454","flanker_test","37","image-keyboard-response","78","634359","0.0-3.0-48.0-0.0","3","2020-1-8 20:29:15","FISH",NA,NA,NA,NA,NA,"congruent","left","TRUE",NA,NA,NA,NA,NA,NA
"451","flanker_test","39","image-keyboard-response","79","635595","0.0-3.0-48.0-0.1","3","2020-1-8 20:29:15","FISH",NA,NA,NA,NA,NA,"congruent","right","TRUE",NA,NA,NA,NA,NA,NA
"546","flanker_test","37","image-keyboard-response","80","637331","0.0-3.0-48.0-0.2","3","2020-1-8 20:29:15","FISH",NA,NA,NA,NA,NA,"incongruent","left","TRUE",NA,NA,NA,NA,NA,NA
"537","flanker_test","39","image-keyboard-response","81","638301","0.0-3.0-48.0-0.3","3","2020-1-8 20:29:15","FISH",NA,NA,NA,NA,NA,"incongruent","right","TRUE",NA,NA,NA,NA,NA,NA
"26230","sort_trial",NA,"free-sort","82","665340","0.0-3.0-49.0","3","2020-1-8 20:29:15","FISH",NA,NA,NA,NA,NA,NA,NA,NA,"[{""cat"":31,""src"":16,""x"":37,""y"":507},{""cat"":31,""src"":0,""x"":1,""y"":193},{""cat"":31,""src"":13,""x"":50,""y"":76},{""cat"":13,""src"":19,""x"":25,""y"":257},{""cat"":13,""src"":10,""x"":51,""y"":139},{""cat"":13,""src"":6,""x"":73,""y"":374},{""cat"":4,""src"":3,""x"":53,""y"":421},{""cat"":4,""src"":2,""x"":2,""y"":14},{""cat"":4,""src"":17,""x"":36,""y"":316}]","[{""cat"":""31"",""src"":""0"",""x"":0,""y"":0},{""cat"":""4"",""src"":""17"",""x"":0,""y"":0},{""cat"":""13"",""src"":""19"",""x"":0,""y"":0},{""cat"":""4"",""src"":""2"",""x"":0,""y"":0},{""cat"":""31"",""src"":""13"",""x"":0,""y"":0},{""cat"":""13"",""src"":""10"",""x"":0,""y"":0},{""cat"":""13"",""src"":""6"",""x"":0,""y"":0},{""cat"":""4"",""src"":""3"",""x"":0,""y"":0},{""cat"":""31"",""src"":""16"",""x"":0,""y"":0}]","[{""cat"":31,""src"":0,""loc"":7},{""cat"":4,""src"":17,""loc"":6},{""cat"":13,""src"":19,""loc"":8},{""cat"":4,""src"":2,""loc"":1},{""cat"":31,""src"":13,""loc"":0},{""cat"":13,""src"":10,""loc"":2},{""cat"":13,""src"":6,""loc"":5},{""cat"":4,""src"":3,""loc"":4},{""cat"":31,""src"":16,""loc"":3}]","3","31,4,13,31,4,13,4,31,13,13,2,10,16,3,6,17,0,19,0,1,2,3,4,5,6,7,8,4,3,5,8,7,6,1,0,2",NA
"1132","sort_feedback","32","html-keyboard-response","83","666476","0.0-3.0-50.0","3","2020-1-8 20:29:15","FISH",NA,NA,NA,NA,NA,NA,NA,NA,NA,NA,NA,NA,NA,NA
"19926","setup3",NA,"animation","84","686403","0.0-3.0-51.0","3","2020-1-8 20:29:15","FISH",NA,NA,"[{""cat"":23,""src"":11,""loc"":3},{""cat"":24,""src"":7,""loc"":1},{""cat"":29,""src"":14,""loc"":7},{""cat"":23,""src"":19,""loc"":4},{""cat"":29,""src"":16,""loc"":6},{""cat"":24,""src"":19,""loc"":2},{""cat"":24,""src"":6,""loc"":0},{""cat"":23,""src"":7,""loc"":5},{""cat"":29,""src"":12,""loc"":8}]","3","1105,1101,1102,1102,1103,1101,1104,1103,1103,10001",NA,NA,NA,NA,NA,NA,NA,NA,NA
"760","flanker_instructions","39","html-keyboard-response","85","687167","0.0-3.0-52.0","3","2020-1-8 20:29:15","FISH",NA,NA,NA,NA,NA,NA,NA,NA,NA,NA,NA,NA,NA,NA
"513","flanker_test","39","image-keyboard-response","86","688685","0.0-3.0-53.0-0.0","3","2020-1-8 20:29:15","FISH",NA,NA,NA,NA,NA,"congruent","right","TRUE",NA,NA,NA,NA,NA,NA
"661","flanker_test","39","image-keyboard-response","87","690336","0.0-3.0-53.0-0.1","3","2020-1-8 20:29:15","FISH",NA,NA,NA,NA,NA,"incongruent","right","TRUE",NA,NA,NA,NA,NA,NA
"471","flanker_test","37","image-keyboard-response","88","691539","0.0-3.0-53.0-0.2","3","2020-1-8 20:29:15","FISH",NA,NA,NA,NA,NA,"incongruent","left","TRUE",NA,NA,NA,NA,NA,NA
"417","flanker_test","37","image-keyboard-response","89","692276","0.0-3.0-53.0-0.3","3","2020-1-8 20:29:15","FISH",NA,NA,NA,NA,NA,"congruent","left","TRUE",NA,NA,NA,NA,NA,NA
"31881","sort_trial",NA,"free-sort","90","724710","0.0-3.0-54.0","3","2020-1-8 20:29:15","FISH",NA,NA,NA,NA,NA,NA,NA,NA,"[{""cat"":23,""src"":11,""x"":38,""y"":18},{""cat"":24,""src"":7,""x"":78,""y"":267},{""cat"":29,""src"":14,""x"":76,""y"":185},{""cat"":23,""src"":19,""x"":73,""y"":438},{""cat"":29,""src"":16,""x"":70,""y"":387},{""cat"":24,""src"":19,""x"":51,""y"":60},{""cat"":24,""src"":6,""x"":52,""y"":480},{""cat"":23,""src"":7,""x"":3,""y"":316},{""cat"":29,""src"":12,""x"":59,""y"":141}]","[{""cat"":""29"",""src"":""16"",""x"":0,""y"":0},{""cat"":""29"",""src"":""14"",""x"":0,""y"":0},{""cat"":""29"",""src"":""12"",""x"":0,""y"":0},{""cat"":""23"",""src"":""11"",""x"":0,""y"":0},{""cat"":""24"",""src"":""19"",""x"":0,""y"":0},{""cat"":""24"",""src"":""7"",""x"":0,""y"":0},{""cat"":""23"",""src"":""7"",""x"":651,""y"":125},{""cat"":""23"",""src"":""7"",""x"":0,""y"":0},{""cat"":""23"",""src"":""19"",""x"":0,""y"":0},{""cat"":""24"",""src"":""6"",""x"":0,""y"":0}]","[{""cat"":29,""src"":16,""loc"":6},{""cat"":29,""src"":14,""loc"":7},{""cat"":29,""src"":12,""loc"":8},{""cat"":23,""src"":11,""loc"":1},{""cat"":24,""src"":19,""loc"":0},{""cat"":24,""src"":7,""loc"":2},{""cat"":23,""src"":7,""loc"":5},{""cat"":23,""src"":19,""loc"":4},{""cat"":24,""src"":6,""loc"":3}]","5","24,23,24,24,23,23,29,29,29,19,11,7,6,19,7,16,14,12,0,1,2,3,4,5,6,7,8,4,3,5,8,7,6,0,1,2",NA
"1479","sort_feedback","32","html-keyboard-response","91","726193","0.0-3.0-55.0","3","2020-1-8 20:29:15","FISH",NA,NA,NA,NA,NA,NA,NA,NA,NA,NA,NA,NA,NA,NA
"19925","setup1",NA,"animation","92","746119","0.0-3.0-56.0","3","2020-1-8 20:29:15","FISH",NA,NA,"[{""cat"":15,""src"":3,""loc"":6},{""cat"":15,""src"":0,""loc"":7},{""cat"":15,""src"":15,""loc"":8},{""cat"":0,""src"":9,""loc"":3},{""cat"":0,""src"":15,""loc"":4},{""cat"":0,""src"":13,""loc"":5},{""cat"":27,""src"":15,""loc"":2},{""cat"":27,""src"":2,""loc"":0},{""cat"":27,""src"":13,""loc"":1}]","1","1107,1102,1102,1102,1102,1101,1103,1103,1103,10000",NA,NA,NA,NA,NA,NA,NA,NA,NA
"1694","flanker_instructions","39","html-keyboard-response","93","747817","0.0-3.0-57.0","3","2020-1-8 20:29:15","FISH",NA,NA,NA,NA,NA,NA,NA,NA,NA,NA,NA,NA,NA,NA
"825","flanker_test","37","image-keyboard-response","94","749647","0.0-3.0-58.0-0.0","3","2020-1-8 20:29:15","FISH",NA,NA,NA,NA,NA,"incongruent","left","TRUE",NA,NA,NA,NA,NA,NA
"658","flanker_test","39","image-keyboard-response","95","751370","0.0-3.0-58.0-0.1","3","2020-1-8 20:29:15","FISH",NA,NA,NA,NA,NA,"incongruent","right","TRUE",NA,NA,NA,NA,NA,NA
"460","flanker_test","37","image-keyboard-response","96","752805","0.0-3.0-58.0-0.2","3","2020-1-8 20:29:15","FISH",NA,NA,NA,NA,NA,"congruent","left","TRUE",NA,NA,NA,NA,NA,NA
"527","flanker_test","39","image-keyboard-response","97","753737","0.0-3.0-58.0-0.3","3","2020-1-8 20:29:15","FISH",NA,NA,NA,NA,NA,"congruent","right","TRUE",NA,NA,NA,NA,NA,NA
"27386","sort_trial",NA,"free-sort","98","781543","0.0-3.0-59.0","3","2020-1-8 20:29:15","FISH",NA,NA,NA,NA,NA,NA,NA,NA,"[{""cat"":15,""src"":3,""x"":48,""y"":136},{""cat"":15,""src"":0,""x"":1,""y"":308},{""cat"":15,""src"":15,""x"":24,""y"":490},{""cat"":0,""src"":9,""x"":8,""y"":247},{""cat"":0,""src"":15,""x"":31,""y"":367},{""cat"":0,""src"":13,""x"":5,""y"":60},{""cat"":27,""src"":15,""x"":37,""y"":436},{""cat"":27,""src"":2,""x"":44,""y"":202},{""cat"":27,""src"":13,""x"":39,""y"":1}]","[{""cat"":""15"",""src"":""0"",""x"":0,""y"":0},{""cat"":""15"",""src"":""3"",""x"":0,""y"":0},{""cat"":""15"",""src"":""15"",""x"":0,""y"":0},{""cat"":""0"",""src"":""9"",""x"":0,""y"":0},{""cat"":""27"",""src"":""13"",""x"":0,""y"":0},{""cat"":""0"",""src"":""13"",""x"":0,""y"":0},{""cat"":""27"",""src"":""2"",""x"":0,""y"":0},{""cat"":""0"",""src"":""15"",""x"":0,""y"":0},{""cat"":""27"",""src"":""15"",""x"":0,""y"":0}]","[{""cat"":15,""src"":0,""loc"":7},{""cat"":15,""src"":3,""loc"":6},{""cat"":15,""src"":15,""loc"":8},{""cat"":0,""src"":9,""loc"":3},{""cat"":27,""src"":13,""loc"":1},{""cat"":0,""src"":13,""loc"":0},{""cat"":27,""src"":2,""loc"":2},{""cat"":0,""src"":15,""loc"":5},{""cat"":27,""src"":15,""loc"":4}]","5","0,27,27,0,27,0,15,15,15,13,13,2,9,15,15,3,0,15,0,1,2,3,4,5,6,7,8,5,4,6,3,8,7,1,0,2",NA
"656","sort_feedback","32","html-keyboard-response","99","782204","0.0-3.0-60.0","3","2020-1-8 20:29:15","FISH",NA,NA,NA,NA,NA,NA,NA,NA,NA,NA,NA,NA,NA,NA
"19926","setup2",NA,"animation","100","802131","0.0-3.0-61.0","3","2020-1-8 20:29:15","FISH",NA,NA,"[{""cat"":23,""src"":10,""loc"":2},{""cat"":10,""src"":16,""loc"":0},{""cat"":33,""src"":17,""loc"":1},{""cat"":23,""src"":15,""loc"":3},{""cat"":33,""src"":3,""loc"":4},{""cat"":10,""src"":18,""loc"":5},{""cat"":23,""src"":14,""loc"":8},{""cat"":10,""src"":1,""loc"":7},{""cat"":33,""src"":18,""loc"":6}]","2","1104,1102,1102,1104,1102,1102,1103,1103,1103,10000",NA,NA,NA,NA,NA,NA,NA,NA,NA
"554","flanker_instructions","39","html-keyboard-response","101","802689","0.0-3.0-62.0","3","2020-1-8 20:29:15","FISH",NA,NA,NA,NA,NA,NA,NA,NA,NA,NA,NA,NA,NA,NA
"516","flanker_test","39","image-keyboard-response","102","804207","0.0-3.0-63.0-0.0","3","2020-1-8 20:29:15","FISH",NA,NA,NA,NA,NA,"congruent","right","TRUE",NA,NA,NA,NA,NA,NA
"400","flanker_test","37","image-keyboard-response","103","805486","0.0-3.0-63.0-0.1","3","2020-1-8 20:29:15","FISH",NA,NA,NA,NA,NA,"congruent","left","TRUE",NA,NA,NA,NA,NA,NA
"678","flanker_test","39","image-keyboard-response","104","807145","0.0-3.0-63.0-0.2","3","2020-1-8 20:29:15","FISH",NA,NA,NA,NA,NA,"incongruent","right","TRUE",NA,NA,NA,NA,NA,NA
"558","flanker_test","37","image-keyboard-response","105","808304","0.0-3.0-63.0-0.3","3","2020-1-8 20:29:15","FISH",NA,NA,NA,NA,NA,"incongruent","left","TRUE",NA,NA,NA,NA,NA,NA
"31234","sort_trial",NA,"free-sort","106","840437","0.0-3.0-64.0","3","2020-1-8 20:29:15","FISH",NA,NA,NA,NA,NA,NA,NA,NA,"[{""cat"":23,""src"":10,""x"":13,""y"":253},{""cat"":10,""src"":16,""x"":51,""y"":387},{""cat"":33,""src"":17,""x"":46,""y"":129},{""cat"":23,""src"":15,""x"":63,""y"":19},{""cat"":33,""src"":3,""x"":63,""y"":447},{""cat"":10,""src"":18,""x"":54,""y"":66},{""cat"":23,""src"":14,""x"":45,""y"":301},{""cat"":10,""src"":1,""x"":83,""y"":200},{""cat"":33,""src"":18,""x"":71,""y"":498}]","[{""cat"":""10"",""src"":""1"",""x"":0,""y"":0},{""cat"":""23"",""src"":""14"",""x"":0,""y"":0},{""cat"":""33"",""src"":""18"",""x"":0,""y"":0},{""cat"":""23"",""src"":""15"",""x"":0,""y"":0},{""cat"":""10"",""src"":""18"",""x"":0,""y"":0},{""cat"":""33"",""src"":""17"",""x"":0,""y"":0},{""cat"":""23"",""src"":""10"",""x"":0,""y"":0},{""cat"":""10"",""src"":""16"",""x"":0,""y"":0},{""cat"":""33"",""src"":""3"",""x"":0,""y"":0}]","[{""cat"":10,""src"":1,""loc"":7},{""cat"":23,""src"":14,""loc"":8},{""cat"":33,""src"":18,""loc"":6},{""cat"":23,""src"":15,""loc"":3},{""cat"":10,""src"":18,""loc"":4},{""cat"":33,""src"":17,""loc"":5},{""cat"":23,""src"":10,""loc"":1},{""cat"":10,""src"":16,""loc"":0},{""cat"":33,""src"":3,""loc"":2}]","5","10,23,33,23,10,33,33,10,23,16,10,3,15,18,17,18,1,14,0,1,2,3,4,5,6,7,8,7,6,8,3,4,5,2,0,1",NA
"952","sort_feedback","32","html-keyboard-response","107","841393","0.0-3.0-65.0","3","2020-1-8 20:29:15","FISH",NA,NA,NA,NA,NA,NA,NA,NA,NA,NA,NA,NA,NA,NA
"19928","setup5",NA,"animation","108","861321","0.0-3.0-66.0","3","2020-1-8 20:29:15","FISH",NA,NA,"[{""cat"":29,""src"":0,""loc"":5},{""cat"":32,""src"":12,""loc"":0},{""cat"":7,""src"":10,""loc"":7},{""cat"":29,""src"":3,""loc"":2},{""cat"":32,""src"":14,""loc"":6},{""cat"":7,""src"":2,""loc"":3},{""cat"":32,""src"":0,""loc"":4},{""cat"":29,""src"":11,""loc"":8},{""cat"":7,""src"":19,""loc"":1}]","5","1107,1102,1103,1102,1103,1103,1101,1103,1103,10001",NA,NA,NA,NA,NA,NA,NA,NA,NA
"566","flanker_instructions","39","html-keyboard-response","109","861891","0.0-3.0-67.0","3","2020-1-8 20:29:15","FISH",NA,NA,NA,NA,NA,NA,NA,NA,NA,NA,NA,NA,NA,NA
"483","flanker_test","37","image-keyboard-response","110","863379","0.0-3.0-68.0-0.0","3","2020-1-8 20:29:15","FISH",NA,NA,NA,NA,NA,"congruent","left","TRUE",NA,NA,NA,NA,NA,NA
"670","flanker_test","39","image-keyboard-response","111","864403","0.0-3.0-68.0-0.1","3","2020-1-8 20:29:15","FISH",NA,NA,NA,NA,NA,"congruent","right","TRUE",NA,NA,NA,NA,NA,NA
"589","flanker_test","37","image-keyboard-response","112","865903","0.0-3.0-68.0-0.2","3","2020-1-8 20:29:15","FISH",NA,NA,NA,NA,NA,"incongruent","left","TRUE",NA,NA,NA,NA,NA,NA
"709","flanker_test","39","image-keyboard-response","113","867423","0.0-3.0-68.0-0.3","3","2020-1-8 20:29:15","FISH",NA,NA,NA,NA,NA,"incongruent","right","TRUE",NA,NA,NA,NA,NA,NA
"44705","sort_trial",NA,"free-sort","114","913166","0.0-3.0-69.0","3","2020-1-8 20:29:15","FISH",NA,NA,NA,NA,NA,NA,NA,NA,"[{""cat"":29,""src"":0,""x"":43,""y"":75},{""cat"":32,""src"":12,""x"":28,""y"":492},{""cat"":7,""src"":10,""x"":56,""y"":129},{""cat"":29,""src"":3,""x"":27,""y"":13},{""cat"":32,""src"":14,""x"":5,""y"":201},{""cat"":7,""src"":2,""x"":36,""y"":251},{""cat"":32,""src"":0,""x"":32,""y"":315},{""cat"":29,""src"":11,""x"":25,""y"":438},{""cat"":7,""src"":19,""x"":42,""y"":370}]","[{""cat"":""32"",""src"":""14"",""x"":0,""y"":0},{""cat"":""7"",""src"":""10"",""x"":0,""y"":0},{""cat"":""7"",""src"":""2"",""x"":0,""y"":0},{""cat"":""29"",""src"":""3"",""x"":0,""y"":0},{""cat"":""29"",""src"":""0"",""x"":0,""y"":0},{""cat"":""32"",""src"":""0"",""x"":538,""y"":0},{""cat"":""32"",""src"":""0"",""x"":51,""y"":310},{""cat"":""32"",""src"":""0"",""x"":0,""y"":0},{""cat"":""7"",""src"":""19"",""x"":0,""y"":0},{""cat"":""29"",""src"":""11"",""x"":0,""y"":0},{""cat"":""32"",""src"":""12"",""x"":0,""y"":0}]","[{""cat"":32,""src"":14,""loc"":6},{""cat"":7,""src"":10,""loc"":7},{""cat"":7,""src"":2,""loc"":8},{""cat"":29,""src"":3,""loc"":2},{""cat"":29,""src"":0,""loc"":0},{""cat"":32,""src"":0,""loc"":1},{""cat"":7,""src"":19,""loc"":5},{""cat"":29,""src"":11,""loc"":4},{""cat"":32,""src"":12,""loc"":3}]","3","29,32,29,32,29,7,32,7,7,0,0,3,12,11,19,14,10,2,0,1,2,3,4,5,6,7,8,4,5,3,8,7,6,0,1,2",NA
"1097","sort_feedback","32","html-keyboard-response","115","914267","0.0-3.0-70.0","3","2020-1-8 20:29:15","FISH",NA,NA,NA,NA,NA,NA,NA,NA,NA,NA,NA,NA,NA,NA
"19925","setup4",NA,"animation","116","934194","0.0-3.0-71.0","3","2020-1-8 20:29:15","FISH",NA,NA,"[{""cat"":6,""src"":12,""loc"":4},{""cat"":6,""src"":6,""loc"":0},{""cat"":6,""src"":11,""loc"":6},{""cat"":25,""src"":13,""loc"":3},{""cat"":25,""src"":8,""loc"":7},{""cat"":25,""src"":17,""loc"":2},{""cat"":23,""src"":14,""loc"":8},{""cat"":23,""src"":6,""loc"":5},{""cat"":23,""src"":16,""loc"":1}]","4","1104,1102,1102,1103,1102,1103,1103,1103,1103,10000",NA,NA,NA,NA,NA,NA,NA,NA,NA
"702","flanker_instructions","39","html-keyboard-response","117","934899","0.0-3.0-72.0","3","2020-1-8 20:29:15","FISH",NA,NA,NA,NA,NA,NA,NA,NA,NA,NA,NA,NA,NA,NA
"457","flanker_test","39","image-keyboard-response","118","936359","0.0-3.0-73.0-0.0","3","2020-1-8 20:29:15","FISH",NA,NA,NA,NA,NA,"incongruent","left","FALSE",NA,NA,NA,NA,NA,NA
"525","flanker_test","39","image-keyboard-response","119","937714","0.0-3.0-73.0-0.1","3","2020-1-8 20:29:15","FISH",NA,NA,NA,NA,NA,"congruent","right","TRUE",NA,NA,NA,NA,NA,NA
"630","flanker_test","39","image-keyboard-response","120","939176","0.0-3.0-73.0-0.2","3","2020-1-8 20:29:15","FISH",NA,NA,NA,NA,NA,"incongruent","right","TRUE",NA,NA,NA,NA,NA,NA
"508","flanker_test","37","image-keyboard-response","121","940401","0.0-3.0-73.0-0.3","3","2020-1-8 20:29:15","FISH",NA,NA,NA,NA,NA,"congruent","left","TRUE",NA,NA,NA,NA,NA,NA
"28205","sort_trial",NA,"free-sort","122","969340","0.0-3.0-74.0","3","2020-1-8 20:29:15","FISH",NA,NA,NA,NA,NA,NA,NA,NA,"[{""cat"":6,""src"":12,""x"":13,""y"":388},{""cat"":6,""src"":6,""x"":73,""y"":424},{""cat"":6,""src"":11,""x"":26,""y"":201},{""cat"":25,""src"":13,""x"":57,""y"":301},{""cat"":25,""src"":8,""x"":34,""y"":248},{""cat"":25,""src"":17,""x"":44,""y"":498},{""cat"":23,""src"":14,""x"":49,""y"":64},{""cat"":23,""src"":6,""x"":75,""y"":5},{""cat"":23,""src"":16,""x"":20,""y"":131}]","[{""cat"":""25"",""src"":""8"",""x"":0,""y"":0},{""cat"":""6"",""src"":""11"",""x"":0,""y"":0},{""cat"":""25"",""src"":""13"",""x"":0,""y"":0},{""cat"":""23"",""src"":""6"",""x"":0,""y"":0},{""cat"":""23"",""src"":""14"",""x"":0,""y"":0},{""cat"":""23"",""src"":""16"",""x"":0,""y"":0},{""cat"":""6"",""src"":""12"",""x"":0,""y"":0},{""cat"":""6"",""src"":""6"",""x"":0,""y"":0},{""cat"":""25"",""src"":""17"",""x"":0,""y"":0}]","[{""cat"":25,""src"":8,""loc"":7},{""cat"":6,""src"":11,""loc"":6},{""cat"":25,""src"":13,""loc"":8},{""cat"":23,""src"":6,""loc"":1},{""cat"":23,""src"":14,""loc"":0},{""cat"":23,""src"":16,""loc"":2},{""cat"":6,""src"":12,""loc"":5},{""cat"":6,""src"":6,""loc"":4},{""cat"":25,""src"":17,""loc"":3}]","2","23,23,23,25,6,6,6,25,25,14,6,16,17,6,12,11,8,13,0,1,2,3,4,5,6,7,8,4,3,5,8,7,6,1,0,2",NA
"1176","sort_feedback","32","html-keyboard-response","123","970520","0.0-3.0-75.0","3","2020-1-8 20:29:15","FISH",NA,NA,NA,NA,NA,NA,NA,NA,NA,NA,NA,NA,NA,NA
"19921","setup1",NA,"animation","124","990442","0.0-3.0-76.0","3","2020-1-8 20:29:15","FISH",NA,NA,"[{""cat"":30,""src"":18,""loc"":2},{""cat"":30,""src"":15,""loc"":1},{""cat"":30,""src"":17,""loc"":0},{""cat"":13,""src"":4,""loc"":6},{""cat"":13,""src"":1,""loc"":8},{""cat"":13,""src"":15,""loc"":7},{""cat"":23,""src"":4,""loc"":5},{""cat"":23,""src"":7,""loc"":4},{""cat"":23,""src"":9,""loc"":3}]","1","1103,1102,1102,1102,1102,1102,1101,1103,1102,10002",NA,NA,NA,NA,NA,NA,NA,NA,NA
"486","flanker_instructions","39","html-keyboard-response","125","990932","0.0-3.0-77.0","3","2020-1-8 20:29:15","FISH",NA,NA,NA,NA,NA,NA,NA,NA,NA,NA,NA,NA,NA,NA
"522","flanker_test","39","image-keyboard-response","126","992459","0.0-3.0-78.0-0.0","3","2020-1-8 20:29:15","FISH",NA,NA,NA,NA,NA,"congruent","right","TRUE",NA,NA,NA,NA,NA,NA
"578","flanker_test","37","image-keyboard-response","127","994032","0.0-3.0-78.0-0.1","3","2020-1-8 20:29:15","FISH",NA,NA,NA,NA,NA,"incongruent","left","TRUE",NA,NA,NA,NA,NA,NA
"500","flanker_test","37","image-keyboard-response","128","995308","0.0-3.0-78.0-0.2","3","2020-1-8 20:29:15","FISH",NA,NA,NA,NA,NA,"congruent","left","TRUE",NA,NA,NA,NA,NA,NA
"551","flanker_test","39","image-keyboard-response","129","996300","0.0-3.0-78.0-0.3","3","2020-1-8 20:29:15","FISH",NA,NA,NA,NA,NA,"incongruent","right","TRUE",NA,NA,NA,NA,NA,NA
"26639","sort_trial",NA,"free-sort","130","1023828","0.0-3.0-79.0","3","2020-1-8 20:29:15","FISH",NA,NA,NA,NA,NA,NA,NA,NA,"[{""cat"":30,""src"":18,""x"":42,""y"":245},{""cat"":30,""src"":15,""x"":11,""y"":136},{""cat"":30,""src"":17,""x"":77,""y"":434},{""cat"":13,""src"":4,""x"":49,""y"":9},{""cat"":13,""src"":1,""x"":48,""y"":189},{""cat"":13,""src"":15,""x"":14,""y"":66},{""cat"":23,""src"":4,""x"":28,""y"":361},{""cat"":23,""src"":7,""x"":80,""y"":498},{""cat"":23,""src"":9,""x"":69,""y"":312}]","[{""cat"":""13"",""src"":""15"",""x"":0,""y"":0},{""cat"":""13"",""src"":""4"",""x"":0,""y"":0},{""cat"":""13"",""src"":""1"",""x"":0,""y"":0},{""cat"":""30"",""src"":""15"",""x"":0,""y"":0},{""cat"":""30"",""src"":""18"",""x"":0,""y"":0},{""cat"":""23"",""src"":""9"",""x"":0,""y"":0},{""cat"":""23"",""src"":""4"",""x"":0,""y"":0},{""cat"":""30"",""src"":""17"",""x"":0,""y"":0},{""cat"":""23"",""src"":""7"",""x"":0,""y"":0}]","[{""cat"":13,""src"":15,""loc"":7},{""cat"":13,""src"":4,""loc"":6},{""cat"":13,""src"":1,""loc"":8},{""cat"":30,""src"":15,""loc"":1},{""cat"":30,""src"":18,""loc"":0},{""cat"":23,""src"":9,""loc"":2},{""cat"":23,""src"":4,""loc"":5},{""cat"":30,""src"":17,""loc"":4},{""cat"":23,""src"":7,""loc"":3}]","5","30,30,23,23,30,23,13,13,13,18,15,9,7,17,4,4,15,1,0,1,2,3,4,5,6,7,8,4,3,5,8,7,6,1,0,2",NA
"901","sort_feedback","32","html-keyboard-response","131","1024733","0.0-3.0-80.0","3","2020-1-8 20:29:15","FISH",NA,NA,NA,NA,NA,NA,NA,NA,NA,NA,NA,NA,NA,NA
"19925","setup5",NA,"animation","132","1044659","0.0-3.0-81.0","3","2020-1-8 20:29:15","FISH",NA,NA,"[{""cat"":19,""src"":15,""loc"":7},{""cat"":17,""src"":10,""loc"":0},{""cat"":16,""src"":10,""loc"":3},{""cat"":16,""src"":8,""loc"":1},{""cat"":17,""src"":12,""loc"":8},{""cat"":19,""src"":19,""loc"":5},{""cat"":17,""src"":1,""loc"":4},{""cat"":16,""src"":1,""loc"":6},{""cat"":19,""src"":11,""loc"":2}]","5","1103,1102,1102,1102,1103,1103,1103,1102,1104,10000",NA,NA,NA,NA,NA,NA,NA,NA,NA
"682","flanker_instructions","39","html-keyboard-response","133","1045345","0.0-3.0-82.0","3","2020-1-8 20:29:15","FISH",NA,NA,NA,NA,NA,NA,NA,NA,NA,NA,NA,NA,NA,NA
"895","flanker_test","37","image-keyboard-response","134","1047244","0.0-3.0-83.0-0.0","3","2020-1-8 20:29:15","FISH",NA,NA,NA,NA,NA,"incongruent","left","TRUE",NA,NA,NA,NA,NA,NA
"510","flanker_test","37","image-keyboard-response","135","1048906","0.0-3.0-83.0-0.1","3","2020-1-8 20:29:15","FISH",NA,NA,NA,NA,NA,"congruent","left","TRUE",NA,NA,NA,NA,NA,NA
"598","flanker_test","39","image-keyboard-response","136","1049897","0.0-3.0-83.0-0.2","3","2020-1-8 20:29:15","FISH",NA,NA,NA,NA,NA,"incongruent","right","TRUE",NA,NA,NA,NA,NA,NA
"515","flanker_test","39","image-keyboard-response","137","1050728","0.0-3.0-83.0-0.3","3","2020-1-8 20:29:15","FISH",NA,NA,NA,NA,NA,"congruent","right","TRUE",NA,NA,NA,NA,NA,NA
"32761","sort_trial",NA,"free-sort","138","1084574","0.0-3.0-84.0","3","2020-1-8 20:29:15","FISH",NA,NA,NA,NA,NA,NA,NA,NA,"[{""cat"":19,""src"":15,""x"":30,""y"":0},{""cat"":17,""src"":10,""x"":46,""y"":317},{""cat"":16,""src"":10,""x"":38,""y"":145},{""cat"":16,""src"":8,""x"":79,""y"":185},{""cat"":17,""src"":12,""x"":19,""y"":75},{""cat"":19,""src"":19,""x"":40,""y"":253},{""cat"":17,""src"":1,""x"":63,""y"":438},{""cat"":16,""src"":1,""x"":12,""y"":386},{""cat"":19,""src"":11,""x"":60,""y"":493}]","[{""cat"":""16"",""src"":""1"",""x"":0,""y"":0},{""cat"":""19"",""src"":""15"",""x"":0,""y"":0},{""cat"":""17"",""src"":""12"",""x"":0,""y"":0},{""cat"":""16"",""src"":""10"",""x"":0,""y"":0},{""cat"":""16"",""src"":""8"",""x"":0,""y"":0},{""cat"":""19"",""src"":""19"",""x"":0,""y"":0},{""cat"":""17"",""src"":""10"",""x"":0,""y"":0},{""cat"":""17"",""src"":""1"",""x"":0,""y"":0},{""cat"":""19"",""src"":""11"",""x"":0,""y"":0}]","[{""cat"":16,""src"":1,""loc"":6},{""cat"":19,""src"":15,""loc"":7},{""cat"":17,""src"":12,""loc"":8},{""cat"":16,""src"":10,""loc"":0},{""cat"":16,""src"":8,""loc"":1},{""cat"":19,""src"":19,""loc"":2},{""cat"":17,""src"":10,""loc"":5},{""cat"":17,""src"":1,""loc"":4},{""cat"":19,""src"":11,""loc"":3}]","5","16,16,19,19,17,17,16,19,17,10,8,19,11,1,10,1,15,12,0,1,2,3,4,5,6,7,8,3,4,5,8,7,6,0,1,2",NA
"1531","sort_feedback","32","html-keyboard-response","139","1086109","0.0-3.0-85.0","3","2020-1-8 20:29:15","FISH",NA,NA,NA,NA,NA,NA,NA,NA,NA,NA,NA,NA,NA,NA
"19924","setup3",NA,"animation","140","1106035","0.0-3.0-86.0","3","2020-1-8 20:29:15","FISH",NA,NA,"[{""cat"":6,""src"":5,""loc"":7},{""cat"":31,""src"":8,""loc"":5},{""cat"":33,""src"":4,""loc"":1},{""cat"":6,""src"":9,""loc"":6},{""cat"":31,""src"":6,""loc"":3},{""cat"":33,""src"":14,""loc"":2},{""cat"":33,""src"":1,""loc"":0},{""cat"":31,""src"":13,""loc"":4},{""cat"":6,""src"":6,""loc"":8}]","3","1104,1102,1102,1102,1103,1102,1103,1102,1103,10001",NA,NA,NA,NA,NA,NA,NA,NA,NA
"383","flanker_instructions","39","html-keyboard-response","141","1106422","0.0-3.0-87.0","3","2020-1-8 20:29:15","FISH",NA,NA,NA,NA,NA,NA,NA,NA,NA,NA,NA,NA,NA,NA
"853","flanker_test","37","image-keyboard-response","142","1108280","0.0-3.0-88.0-0.0","3","2020-1-8 20:29:15","FISH",NA,NA,NA,NA,NA,"incongruent","left","TRUE",NA,NA,NA,NA,NA,NA
"600","flanker_test","39","image-keyboard-response","143","1109987","0.0-3.0-88.0-0.1","3","2020-1-8 20:29:15","FISH",NA,NA,NA,NA,NA,"incongruent","right","TRUE",NA,NA,NA,NA,NA,NA
"500","flanker_test","39","image-keyboard-response","144","1110976","0.0-3.0-88.0-0.2","3","2020-1-8 20:29:15","FISH",NA,NA,NA,NA,NA,"congruent","right","TRUE",NA,NA,NA,NA,NA,NA
"467","flanker_test","37","image-keyboard-response","145","1112456","0.0-3.0-88.0-0.3","3","2020-1-8 20:29:15","FISH",NA,NA,NA,NA,NA,"congruent","left","TRUE",NA,NA,NA,NA,NA,NA
"28567","sort_trial",NA,"free-sort","146","1141685","0.0-3.0-89.0","3","2020-1-8 20:29:15","FISH",NA,NA,NA,NA,NA,NA,NA,NA,"[{""cat"":6,""src"":5,""x"":27,""y"":134},{""cat"":31,""src"":8,""x"":8,""y"":508},{""cat"":33,""src"":4,""x"":59,""y"":322},{""cat"":6,""src"":9,""x"":40,""y"":445},{""cat"":31,""src"":6,""x"":25,""y"":263},{""cat"":33,""src"":14,""x"":45,""y"":10},{""cat"":33,""src"":1,""x"":26,""y"":182},{""cat"":31,""src"":13,""x"":50,""y"":380},{""cat"":6,""src"":6,""x"":17,""y"":72}]","[{""cat"":""6"",""src"":""5"",""x"":0,""y"":0},{""cat"":""33"",""src"":""1"",""x"":0,""y"":0},{""cat"":""6"",""src"":""6"",""x"":0,""y"":0},{""cat"":""6"",""src"":""9"",""x"":0,""y"":0},{""cat"":""31"",""src"":""13"",""x"":0,""y"":0},{""cat"":""31"",""src"":""6"",""x"":0,""y"":0},{""cat"":""31"",""src"":""8"",""x"":0,""y"":0},{""cat"":""33"",""src"":""4"",""x"":0,""y"":0},{""cat"":""33"",""src"":""14"",""x"":0,""y"":0}]","[{""cat"":6,""src"":5,""loc"":7},{""cat"":33,""src"":1,""loc"":2},{""cat"":6,""src"":6,""loc"":8},{""cat"":6,""src"":9,""loc"":6},{""cat"":31,""src"":13,""loc"":5},{""cat"":31,""src"":6,""loc"":4},{""cat"":31,""src"":8,""loc"":3},{""cat"":33,""src"":4,""loc"":0},{""cat"":33,""src"":14,""loc"":1}]","3","33,33,33,31,31,31,6,6,6,4,14,1,8,6,13,9,5,6,0,1,2,3,4,5,6,7,8,7,8,1,6,5,4,3,0,2",NA
"953","sort_feedback","32","html-keyboard-response","147","1142642","0.0-3.0-90.0","3","2020-1-8 20:29:15","FISH",NA,NA,NA,NA,NA,NA,NA,NA,NA,NA,NA,NA,NA,NA
"19922","setup2",NA,"animation","148","1162565","0.0-3.0-91.0","3","2020-1-8 20:29:15","FISH",NA,NA,"[{""cat"":11,""src"":6,""loc"":5},{""cat"":8,""src"":7,""loc"":4},{""cat"":24,""src"":5,""loc"":3},{""cat"":11,""src"":14,""loc"":2},{""cat"":8,""src"":18,""loc"":0},{""cat"":24,""src"":7,""loc"":1},{""cat"":11,""src"":17,""loc"":8},{""cat"":24,""src"":2,""loc"":7},{""cat"":8,""src"":10,""loc"":6}]","2","1103,1102,1101,1102,1102,1102,1103,1103,1103,10001",NA,NA,NA,NA,NA,NA,NA,NA,NA
"420","flanker_instructions","39","html-keyboard-response","149","1162990","0.0-3.0-92.0","3","2020-1-8 20:29:15","FISH",NA,NA,NA,NA,NA,NA,NA,NA,NA,NA,NA,NA,NA,NA
"810","flanker_test","39","image-keyboard-response","150","1164805","0.0-3.0-93.0-0.0","3","2020-1-8 20:29:15","FISH",NA,NA,NA,NA,NA,"incongruent","right","TRUE",NA,NA,NA,NA,NA,NA
"492","flanker_test","37","image-keyboard-response","151","1166127","0.0-3.0-93.0-0.1","3","2020-1-8 20:29:15","FISH",NA,NA,NA,NA,NA,"congruent","left","TRUE",NA,NA,NA,NA,NA,NA
"678","flanker_test","37","image-keyboard-response","152","1167431","0.0-3.0-93.0-0.2","3","2020-1-8 20:29:15","FISH",NA,NA,NA,NA,NA,"incongruent","left","TRUE",NA,NA,NA,NA,NA,NA
"635","flanker_test","39","image-keyboard-response","153","1168649","0.0-3.0-93.0-0.3","3","2020-1-8 20:29:15","FISH",NA,NA,NA,NA,NA,"congruent","right","TRUE",NA,NA,NA,NA,NA,NA
"31242","sort_trial",NA,"free-sort","154","1200292","0.0-3.0-94.0","3","2020-1-8 20:29:15","FISH",NA,NA,NA,NA,NA,NA,NA,NA,"[{""cat"":11,""src"":6,""x"":45,""y"":488},{""cat"":8,""src"":7,""x"":58,""y"":436},{""cat"":24,""src"":5,""x"":10,""y"":259},{""cat"":11,""src"":14,""x"":55,""y"":367},{""cat"":8,""src"":18,""x"":10,""y"":86},{""cat"":24,""src"":7,""x"":21,""y"":23},{""cat"":11,""src"":17,""x"":44,""y"":208},{""cat"":24,""src"":2,""x"":49,""y"":147},{""cat"":8,""src"":10,""x"":4,""y"":308}]","[{""cat"":""24"",""src"":""2"",""x"":0,""y"":0},{""cat"":""8"",""src"":""10"",""x"":0,""y"":0},{""cat"":""11"",""src"":""17"",""x"":0,""y"":0},{""cat"":""24"",""src"":""7"",""x"":0,""y"":0},{""cat"":""8"",""src"":""18"",""x"":0,""y"":0},{""cat"":""24"",""src"":""5"",""x"":0,""y"":0},{""cat"":""11"",""src"":""14"",""x"":0,""y"":0},{""cat"":""8"",""src"":""7"",""x"":0,""y"":0},{""cat"":""11"",""src"":""6"",""x"":0,""y"":0}]","[{""cat"":24,""src"":2,""loc"":7},{""cat"":8,""src"":10,""loc"":6},{""cat"":11,""src"":17,""loc"":8},{""cat"":24,""src"":7,""loc"":1},{""cat"":8,""src"":18,""loc"":0},{""cat"":24,""src"":5,""loc"":2},{""cat"":11,""src"":14,""loc"":5},{""cat"":8,""src"":7,""loc"":4},{""cat"":11,""src"":6,""loc"":3}]","6","8,24,24,11,8,11,8,24,11,18,7,5,6,7,14,10,2,17,0,1,2,3,4,5,6,7,8,4,3,5,8,7,6,1,0,2",NA
"1264","sort_feedback","32","html-keyboard-response","155","1201559","0.0-3.0-95.0","3","2020-1-8 20:29:15","FISH",NA,NA,NA,NA,NA,NA,NA,NA,NA,NA,NA,NA,NA,NA
"19923","setup4",NA,"animation","156","1221483","0.0-3.0-96.0","3","2020-1-8 20:29:15","FISH",NA,NA,"[{""cat"":26,""src"":5,""loc"":2},{""cat"":26,""src"":19,""loc"":7},{""cat"":26,""src"":6,""loc"":4},{""cat"":22,""src"":4,""loc"":5},{""cat"":22,""src"":10,""loc"":1},{""cat"":22,""src"":6,""loc"":6},{""cat"":24,""src"":8,""loc"":8},{""cat"":24,""src"":11,""loc"":0},{""cat"":24,""src"":18,""loc"":3}]","4","1104,1103,1102,1103,1101,1102,1103,1103,1101,10001",NA,NA,NA,NA,NA,NA,NA,NA,NA
"667","flanker_instructions","39","html-keyboard-response","157","1222155","0.0-3.0-97.0","3","2020-1-8 20:29:15","FISH",NA,NA,NA,NA,NA,NA,NA,NA,NA,NA,NA,NA,NA,NA
"707","flanker_test","39","image-keyboard-response","158","1223866","0.0-3.0-98.0-0.0","3","2020-1-8 20:29:15","FISH",NA,NA,NA,NA,NA,"congruent","right","TRUE",NA,NA,NA,NA,NA,NA
"451","flanker_test","37","image-keyboard-response","159","1224739","0.0-3.0-98.0-0.1","3","2020-1-8 20:29:15","FISH",NA,NA,NA,NA,NA,"congruent","left","TRUE",NA,NA,NA,NA,NA,NA
"623","flanker_test","37","image-keyboard-response","160","1225713","0.0-3.0-98.0-0.2","3","2020-1-8 20:29:15","FISH",NA,NA,NA,NA,NA,"incongruent","left","TRUE",NA,NA,NA,NA,NA,NA
"514","flanker_test","39","image-keyboard-response","161","1226537","0.0-3.0-98.0-0.3","3","2020-1-8 20:29:15","FISH",NA,NA,NA,NA,NA,"incongruent","right","TRUE",NA,NA,NA,NA,NA,NA
"28951","sort_trial",NA,"free-sort","162","1256061","0.0-3.0-99.0","3","2020-1-8 20:29:15","FISH",NA,NA,NA,NA,NA,NA,NA,NA,"[{""cat"":26,""src"":5,""x"":38,""y"":328},{""cat"":26,""src"":19,""x"":6,""y"":376},{""cat"":26,""src"":6,""x"":4,""y"":82},{""cat"":22,""src"":4,""x"":44,""y"":195},{""cat"":22,""src"":10,""x"":48,""y"":249},{""cat"":22,""src"":6,""x"":27,""y"":422},{""cat"":24,""src"":8,""x"":25,""y"":146},{""cat"":24,""src"":11,""x"":21,""y"":5},{""cat"":24,""src"":18,""x"":40,""y"":495}]","[{""cat"":""26"",""src"":""19"",""x"":0,""y"":0},{""cat"":""22"",""src"":""6"",""x"":0,""y"":0},{""cat"":""24"",""src"":""8"",""x"":0,""y"":0},{""cat"":""24"",""src"":""18"",""x"":0,""y"":0},{""cat"":""24"",""src"":""11"",""x"":0,""y"":0},{""cat"":""26"",""src"":""6"",""x"":0,""y"":0},{""cat"":""22"",""src"":""4"",""x"":0,""y"":0},{""cat"":""22"",""src"":""10"",""x"":0,""y"":0},{""cat"":""26"",""src"":""5"",""x"":0,""y"":0}]","[{""cat"":26,""src"":19,""loc"":7},{""cat"":22,""src"":6,""loc"":6},{""cat"":24,""src"":8,""loc"":8},{""cat"":24,""src"":18,""loc"":2},{""cat"":24,""src"":11,""loc"":0},{""cat"":26,""src"":6,""loc"":1},{""cat"":22,""src"":4,""loc"":5},{""cat"":22,""src"":10,""loc"":4},{""cat"":26,""src"":5,""loc"":3}]","5","24,26,24,26,22,22,22,26,24,11,6,18,5,10,4,6,19,8,0,1,2,3,4,5,6,7,8,4,5,3,8,7,6,1,0,2",NA
"953","sort_feedback","32","html-keyboard-response","163","1257017","0.0-3.0-100.0","3","2020-1-8 20:29:15","FISH",NA,NA,NA,NA,NA,NA,NA,NA,NA,NA,NA,NA,NA,NA
NA,"breakStart",NA,"html-keyboard-response","164","1287034","0.0-4.0-0.0","3","2020-1-8 20:29:15","FISH",NA,NA,NA,NA,NA,NA,NA,NA,NA,NA,NA,NA,NA,NA
"6183","breakEnd",NA,"html-button-response","165","1293225","0.0-4.0-1.0","3","2020-1-8 20:29:15","FISH","0",NA,NA,NA,NA,NA,NA,NA,NA,NA,NA,NA,NA,NA
"19923","setup3",NA,"animation","166","1313150","0.0-5.0-0.0","3","2020-1-8 20:29:15","FISH",NA,NA,"[{""cat"":14,""src"":11,""loc"":5},{""cat"":10,""src"":8,""loc"":2},{""cat"":27,""src"":15,""loc"":7},{""cat"":10,""src"":13,""loc"":0},{""cat"":14,""src"":5,""loc"":4},{""cat"":27,""src"":0,""loc"":6},{""cat"":14,""src"":19,""loc"":3},{""cat"":27,""src"":1,""loc"":8},{""cat"":10,""src"":2,""loc"":1}]","3","1103,1101,1103,1101,1102,1103,1103,1103,1102,10001",NA,NA,NA,NA,NA,NA,NA,NA,NA
"960","flanker_instructions","39","html-keyboard-response","167","1314115","0.0-5.0-1.0","3","2020-1-8 20:29:15","FISH",NA,NA,NA,NA,NA,NA,NA,NA,NA,NA,NA,NA,NA,NA
"669","flanker_test","39","image-keyboard-response","168","1315790","0.0-5.0-2.0-0.0","3","2020-1-8 20:29:15","FISH",NA,NA,NA,NA,NA,"congruent","right","TRUE",NA,NA,NA,NA,NA,NA
"489","flanker_test","37","image-keyboard-response","169","1316832","0.0-5.0-2.0-0.1","3","2020-1-8 20:29:15","FISH",NA,NA,NA,NA,NA,"congruent","left","TRUE",NA,NA,NA,NA,NA,NA
"625","flanker_test","39","image-keyboard-response","170","1318552","0.0-5.0-2.0-0.2","3","2020-1-8 20:29:15","FISH",NA,NA,NA,NA,NA,"incongruent","right","TRUE",NA,NA,NA,NA,NA,NA
"533","flanker_test","37","image-keyboard-response","171","1320084","0.0-5.0-2.0-0.3","3","2020-1-8 20:29:15","FISH",NA,NA,NA,NA,NA,"incongruent","left","TRUE",NA,NA,NA,NA,NA,NA
"35429","sort_trial",NA,"free-sort","172","1356666","0.0-5.0-3.0","3","2020-1-8 20:29:15","FISH",NA,NA,NA,NA,NA,NA,NA,NA,"[{""cat"":14,""src"":11,""x"":22,""y"":79},{""cat"":10,""src"":8,""x"":39,""y"":250},{""cat"":27,""src"":15,""x"":61,""y"":508},{""cat"":10,""src"":13,""x"":38,""y"":445},{""cat"":14,""src"":5,""x"":34,""y"":372},{""cat"":27,""src"":0,""x"":74,""y"":143},{""cat"":14,""src"":19,""x"":81,""y"":19},{""cat"":27,""src"":1,""x"":81,""y"":317},{""cat"":10,""src"":2,""x"":24,""y"":205}]","[{""cat"":""27"",""src"":""15"",""x"":0,""y"":0},{""cat"":""27"",""src"":""0"",""x"":0,""y"":0},{""cat"":""14"",""src"":""11"",""x"":0,""y"":0},{""cat"":""27"",""src"":""1"",""x"":0,""y"":0},{""cat"":""14"",""src"":""5"",""x"":0,""y"":0},{""cat"":""14"",""src"":""19"",""x"":0,""y"":0},{""cat"":""10"",""src"":""2"",""x"":0,""y"":0},{""cat"":""10"",""src"":""8"",""x"":0,""y"":0},{""cat"":""10"",""src"":""13"",""x"":0,""y"":0}]","[{""cat"":27,""src"":15,""loc"":7},{""cat"":27,""src"":0,""loc"":6},{""cat"":14,""src"":11,""loc"":5},{""cat"":27,""src"":1,""loc"":8},{""cat"":14,""src"":5,""loc"":4},{""cat"":14,""src"":19,""loc"":3},{""cat"":10,""src"":2,""loc"":0},{""cat"":10,""src"":8,""loc"":1},{""cat"":10,""src"":13,""loc"":2}]","6","10,10,10,14,14,14,27,27,27,2,8,13,19,5,11,0,15,1,0,1,2,3,4,5,6,7,8,6,7,8,5,4,2,1,0,3",NA
"1189","sort_feedback","32","html-keyboard-response","173","1357859","0.0-5.0-4.0","3","2020-1-8 20:29:15","FISH",NA,NA,NA,NA,NA,NA,NA,NA,NA,NA,NA,NA,NA,NA
"19922","setup5",NA,"animation","174","1377782","0.0-5.0-5.0","3","2020-1-8 20:29:15","FISH",NA,NA,"[{""cat"":19,""src"":9,""loc"":0},{""cat"":21,""src"":0,""loc"":6},{""cat"":14,""src"":4,""loc"":4},{""cat"":21,""src"":8,""loc"":2},{""cat"":19,""src"":15,""loc"":3},{""cat"":14,""src"":6,""loc"":7},{""cat"":14,""src"":12,""loc"":1},{""cat"":21,""src"":1,""loc"":5},{""cat"":19,""src"":16,""loc"":8}]","5","1105,1102,1102,1102,1101,1103,1102,1101,1103,10000",NA,NA,NA,NA,NA,NA,NA,NA,NA
"1194","flanker_instructions","39","html-keyboard-response","175","1378979","0.0-5.0-6.0","3","2020-1-8 20:29:15","FISH",NA,NA,NA,NA,NA,NA,NA,NA,NA,NA,NA,NA,NA,NA
"757","flanker_test","39","image-keyboard-response","176","1380741","0.0-5.0-7.0-0.0","3","2020-1-8 20:29:15","FISH",NA,NA,NA,NA,NA,"incongruent","right","TRUE",NA,NA,NA,NA,NA,NA
"512","flanker_test","39","image-keyboard-response","177","1381939","0.0-5.0-7.0-0.1","3","2020-1-8 20:29:15","FISH",NA,NA,NA,NA,NA,"congruent","right","TRUE",NA,NA,NA,NA,NA,NA
"539","flanker_test","37","image-keyboard-response","178","1383436","0.0-5.0-7.0-0.2","3","2020-1-8 20:29:15","FISH",NA,NA,NA,NA,NA,"incongruent","left","TRUE",NA,NA,NA,NA,NA,NA
"494","flanker_test","37","image-keyboard-response","179","1384627","0.0-5.0-7.0-0.3","3","2020-1-8 20:29:15","FISH",NA,NA,NA,NA,NA,"congruent","left","TRUE",NA,NA,NA,NA,NA,NA
"25664","sort_trial",NA,"free-sort","180","1410894","0.0-5.0-8.0","3","2020-1-8 20:29:15","FISH",NA,NA,NA,NA,NA,NA,NA,NA,"[{""cat"":19,""src"":9,""x"":60,""y"":186},{""cat"":21,""src"":0,""x"":55,""y"":253},{""cat"":14,""src"":4,""x"":17,""y"":448},{""cat"":21,""src"":8,""x"":78,""y"":19},{""cat"":19,""src"":15,""x"":42,""y"":137},{""cat"":14,""src"":6,""x"":47,""y"":493},{""cat"":14,""src"":12,""x"":49,""y"":361},{""cat"":21,""src"":1,""x"":62,""y"":323},{""cat"":19,""src"":16,""x"":62,""y"":83}]","[{""cat"":""14"",""src"":""6"",""x"":0,""y"":0},{""cat"":""21"",""src"":""0"",""x"":0,""y"":0},{""cat"":""19"",""src"":""16"",""x"":0,""y"":0},{""cat"":""19"",""src"":""15"",""x"":0,""y"":0},{""cat"":""19"",""src"":""9"",""x"":0,""y"":0},{""cat"":""21"",""src"":""8"",""x"":0,""y"":0},{""cat"":""21"",""src"":""1"",""x"":0,""y"":0},{""cat"":""14"",""src"":""12"",""x"":0,""y"":0},{""cat"":""14"",""src"":""4"",""x"":0,""y"":0}]","[{""cat"":14,""src"":6,""loc"":7},{""cat"":21,""src"":0,""loc"":6},{""cat"":19,""src"":16,""loc"":8},{""cat"":19,""src"":15,""loc"":0},{""cat"":19,""src"":9,""loc"":2},{""cat"":21,""src"":8,""loc"":1},{""cat"":21,""src"":1,""loc"":5},{""cat"":14,""src"":12,""loc"":4},{""cat"":14,""src"":4,""loc"":3}]","4","19,21,19,14,14,21,21,14,19,15,8,9,4,12,1,0,6,16,0,1,2,3,4,5,6,7,8,3,5,4,8,7,6,1,0,2",NA
"1037","sort_feedback","32","html-keyboard-response","181","1411935","0.0-5.0-9.0","3","2020-1-8 20:29:15","FISH",NA,NA,NA,NA,NA,NA,NA,NA,NA,NA,NA,NA,NA,NA
"19921","setup2",NA,"animation","182","1431857","0.0-5.0-10.0","3","2020-1-8 20:29:15","FISH",NA,NA,"[{""cat"":8,""src"":10,""loc"":4},{""cat"":12,""src"":11,""loc"":5},{""cat"":26,""src"":4,""loc"":3},{""cat"":26,""src"":11,""loc"":8},{""cat"":12,""src"":4,""loc"":7},{""cat"":8,""src"":6,""loc"":6},{""cat"":12,""src"":9,""loc"":1},{""cat"":8,""src"":15,""loc"":0},{""cat"":26,""src"":6,""loc"":2}]","2","1103,1101,1101,1102,1103,1103,1102,1103,1102,10000",NA,NA,NA,NA,NA,NA,NA,NA,NA
"413","flanker_instructions","39","html-keyboard-response","183","1432274","0.0-5.0-11.0","3","2020-1-8 20:29:15","FISH",NA,NA,NA,NA,NA,NA,NA,NA,NA,NA,NA,NA,NA,NA
"639","flanker_test","37","image-keyboard-response","184","1433918","0.0-5.0-12.0-0.0","3","2020-1-8 20:29:15","FISH",NA,NA,NA,NA,NA,"congruent","left","TRUE",NA,NA,NA,NA,NA,NA
"662","flanker_test","39","image-keyboard-response","185","1435419","0.0-5.0-12.0-0.1","3","2020-1-8 20:29:15","FISH",NA,NA,NA,NA,NA,"incongruent","right","TRUE",NA,NA,NA,NA,NA,NA
"520","flanker_test","39","image-keyboard-response","186","1437122","0.0-5.0-12.0-0.2","3","2020-1-8 20:29:15","FISH",NA,NA,NA,NA,NA,"congruent","right","TRUE",NA,NA,NA,NA,NA,NA
"490","flanker_test","37","image-keyboard-response","187","1438446","0.0-5.0-12.0-0.3","3","2020-1-8 20:29:15","FISH",NA,NA,NA,NA,NA,"incongruent","left","TRUE",NA,NA,NA,NA,NA,NA
"30858","sort_trial",NA,"free-sort","188","1469658","0.0-5.0-13.0","3","2020-1-8 20:29:15","FISH",NA,NA,NA,NA,NA,NA,NA,NA,"[{""cat"":8,""src"":10,""x"":64,""y"":306},{""cat"":12,""src"":11,""x"":39,""y"":491},{""cat"":26,""src"":4,""x"":27,""y"":448},{""cat"":26,""src"":11,""x"":18,""y"":248},{""cat"":12,""src"":4,""x"":49,""y"":146},{""cat"":8,""src"":6,""x"":61,""y"":359},{""cat"":12,""src"":9,""x"":5,""y"":186},{""cat"":8,""src"":15,""x"":37,""y"":64},{""cat"":26,""src"":6,""x"":72,""y"":2}]","[{""cat"":""12"",""src"":""4"",""x"":0,""y"":0},{""cat"":""8"",""src"":""6"",""x"":0,""y"":0},{""cat"":""26"",""src"":""11"",""x"":0,""y"":0},{""cat"":""26"",""src"":""6"",""x"":0,""y"":0},{""cat"":""8"",""src"":""15"",""x"":0,""y"":0},{""cat"":""12"",""src"":""9"",""x"":0,""y"":0},{""cat"":""8"",""src"":""10"",""x"":0,""y"":0},{""cat"":""26"",""src"":""4"",""x"":0,""y"":0},{""cat"":""12"",""src"":""11"",""x"":39,""y"":491},{""cat"":""12"",""src"":""11"",""x"":0,""y"":0}]","[{""cat"":12,""src"":4,""loc"":7},{""cat"":8,""src"":6,""loc"":6},{""cat"":26,""src"":11,""loc"":8},{""cat"":26,""src"":6,""loc"":1},{""cat"":8,""src"":15,""loc"":2},{""cat"":12,""src"":9,""loc"":0},{""cat"":8,""src"":10,""loc"":5},{""cat"":26,""src"":4,""loc"":4},{""cat"":12,""src"":11,""loc"":3}]","3","12,26,8,12,26,8,8,12,26,9,6,15,11,4,10,6,4,11,0,1,2,3,4,5,6,7,8,5,3,4,8,7,6,1,0,2",NA
"1164","sort_feedback","32","html-keyboard-response","189","1470826","0.0-5.0-14.0","3","2020-1-8 20:29:15","FISH",NA,NA,NA,NA,NA,NA,NA,NA,NA,NA,NA,NA,NA,NA
"19917","setup1",NA,"animation","190","1490744","0.0-5.0-15.0","3","2020-1-8 20:29:15","FISH",NA,NA,"[{""cat"":18,""src"":5,""loc"":1},{""cat"":18,""src"":4,""loc"":2},{""cat"":18,""src"":18,""loc"":0},{""cat"":33,""src"":5,""loc"":3},{""cat"":33,""src"":10,""loc"":4},{""cat"":33,""src"":8,""loc"":5},{""cat"":21,""src"":16,""loc"":8},{""cat"":21,""src"":14,""loc"":6},{""cat"":21,""src"":2,""loc"":7}]","1","1103,1102,1101,1101,1102,1101,1102,1101,1103,10000",NA,NA,NA,NA,NA,NA,NA,NA,NA
"968","flanker_instructions","39","html-keyboard-response","191","1491715","0.0-5.0-16.0","3","2020-1-8 20:29:15","FISH",NA,NA,NA,NA,NA,NA,NA,NA,NA,NA,NA,NA,NA,NA
"677","flanker_test","37","image-keyboard-response","192","1493397","0.0-5.0-17.0-0.0","3","2020-1-8 20:29:15","FISH",NA,NA,NA,NA,NA,"congruent","left","TRUE",NA,NA,NA,NA,NA,NA
"676","flanker_test","37","image-keyboard-response","193","1494692","0.0-5.0-17.0-0.1","3","2020-1-8 20:29:15","FISH",NA,NA,NA,NA,NA,"incongruent","left","TRUE",NA,NA,NA,NA,NA,NA
"519","flanker_test","39","image-keyboard-response","194","1495677","0.0-5.0-17.0-0.2","3","2020-1-8 20:29:15","FISH",NA,NA,NA,NA,NA,"congruent","right","TRUE",NA,NA,NA,NA,NA,NA
"654","flanker_test","39","image-keyboard-response","195","1497286","0.0-5.0-17.0-0.3","3","2020-1-8 20:29:15","FISH",NA,NA,NA,NA,NA,"incongruent","right","TRUE",NA,NA,NA,NA,NA,NA
"31726","sort_trial",NA,"free-sort","196","1529843","0.0-5.0-18.0","3","2020-1-8 20:29:15","FISH",NA,NA,NA,NA,NA,NA,NA,NA,"[{""cat"":18,""src"":5,""x"":29,""y"":201},{""cat"":18,""src"":4,""x"":40,""y"":13},{""cat"":18,""src"":18,""x"":14,""y"":379},{""cat"":33,""src"":5,""x"":45,""y"":258},{""cat"":33,""src"":10,""x"":56,""y"":435},{""cat"":33,""src"":8,""x"":10,""y"":129},{""cat"":21,""src"":16,""x"":1,""y"":310},{""cat"":21,""src"":14,""x"":61,""y"":60},{""cat"":21,""src"":2,""x"":75,""y"":504}]","[{""cat"":""21"",""src"":""2"",""x"":0,""y"":0},{""cat"":""21"",""src"":""14"",""x"":0,""y"":0},{""cat"":""21"",""src"":""16"",""x"":0,""y"":0},{""cat"":""18"",""src"":""4"",""x"":0,""y"":0},{""cat"":""33"",""src"":""8"",""x"":0,""y"":0},{""cat"":""18"",""src"":""5"",""x"":377,""y"":210},{""cat"":""33"",""src"":""5"",""x"":0,""y"":0},{""cat"":""18"",""src"":""5"",""x"":0,""y"":0},{""cat"":""18"",""src"":""18"",""x"":0,""y"":0},{""cat"":""33"",""src"":""10"",""x"":0,""y"":0}]","[{""cat"":21,""src"":2,""loc"":7},{""cat"":21,""src"":14,""loc"":6},{""cat"":21,""src"":16,""loc"":8},{""cat"":18,""src"":4,""loc"":0},{""cat"":33,""src"":8,""loc"":1},{""cat"":33,""src"":5,""loc"":2},{""cat"":18,""src"":5,""loc"":5},{""cat"":18,""src"":18,""loc"":4},{""cat"":33,""src"":10,""loc"":3}]","3","18,33,33,33,18,18,21,21,21,4,8,5,10,18,5,14,2,16,0,1,2,3,4,5,6,7,8,3,4,5,8,7,6,1,0,2",NA
"1088","sort_feedback","32","html-keyboard-response","197","1530933","0.0-5.0-19.0","3","2020-1-8 20:29:15","FISH",NA,NA,NA,NA,NA,NA,NA,NA,NA,NA,NA,NA,NA,NA
"19925","setup4",NA,"animation","198","1550859","0.0-5.0-20.0","3","2020-1-8 20:29:15","FISH",NA,NA,"[{""cat"":3,""src"":4,""loc"":8},{""cat"":3,""src"":3,""loc"":2},{""cat"":3,""src"":7,""loc"":3},{""cat"":15,""src"":10,""loc"":4},{""cat"":15,""src"":13,""loc"":0},{""cat"":15,""src"":18,""loc"":6},{""cat"":26,""src"":3,""loc"":1},{""cat"":26,""src"":0,""loc"":5},{""cat"":26,""src"":2,""loc"":7}]","4","1104,1102,1102,1102,1104,1102,1102,1103,1103,10001",NA,NA,NA,NA,NA,NA,NA,NA,NA
"427","flanker_instructions","39","html-keyboard-response","199","1551292","0.0-5.0-21.0","3","2020-1-8 20:29:15","FISH",NA,NA,NA,NA,NA,NA,NA,NA,NA,NA,NA,NA,NA,NA
"558","flanker_test","39","image-keyboard-response","200","1552855","0.0-5.0-22.0-0.0","3","2020-1-8 20:29:15","FISH",NA,NA,NA,NA,NA,"congruent","right","TRUE",NA,NA,NA,NA,NA,NA
"420","flanker_test","37","image-keyboard-response","201","1553697","0.0-5.0-22.0-0.1","3","2020-1-8 20:29:15","FISH",NA,NA,NA,NA,NA,"congruent","left","TRUE",NA,NA,NA,NA,NA,NA
"578","flanker_test","37","image-keyboard-response","202","1554671","0.0-5.0-22.0-0.2","3","2020-1-8 20:29:15","FISH",NA,NA,NA,NA,NA,"incongruent","left","TRUE",NA,NA,NA,NA,NA,NA
"600","flanker_test","39","image-keyboard-response","203","1556201","0.0-5.0-22.0-0.3","3","2020-1-8 20:29:15","FISH",NA,NA,NA,NA,NA,"incongruent","right","TRUE",NA,NA,NA,NA,NA,NA
"28207","sort_trial",NA,"free-sort","204","1585385","0.0-5.0-23.0","3","2020-1-8 20:29:15","FISH",NA,NA,NA,NA,NA,NA,NA,NA,"[{""cat"":3,""src"":4,""x"":21,""y"":205},{""cat"":3,""src"":3,""x"":7,""y"":23},{""cat"":3,""src"":7,""x"":68,""y"":129},{""cat"":15,""src"":10,""x"":79,""y"":426},{""cat"":15,""src"":13,""x"":20,""y"":262},{""cat"":15,""src"":18,""x"":29,""y"":309},{""cat"":26,""src"":3,""x"":6,""y"":382},{""cat"":26,""src"":0,""x"":20,""y"":67},{""cat"":26,""src"":2,""x"":45,""y"":496}]","[{""cat"":""26"",""src"":""2"",""x"":0,""y"":0},{""cat"":""15"",""src"":""18"",""x"":0,""y"":0},{""cat"":""3"",""src"":""4"",""x"":0,""y"":0},{""cat"":""3"",""src"":""7"",""x"":0,""y"":0},{""cat"":""3"",""src"":""3"",""x"":0,""y"":0},{""cat"":""26"",""src"":""0"",""x"":0,""y"":0},{""cat"":""15"",""src"":""13"",""x"":0,""y"":0},{""cat"":""26"",""src"":""3"",""x"":0,""y"":0},{""cat"":""15"",""src"":""10"",""x"":0,""y"":0}]","[{""cat"":26,""src"":2,""loc"":7},{""cat"":15,""src"":18,""loc"":6},{""cat"":3,""src"":4,""loc"":8},{""cat"":3,""src"":7,""loc"":2},{""cat"":3,""src"":3,""loc"":0},{""cat"":26,""src"":0,""loc"":1},{""cat"":15,""src"":13,""loc"":5},{""cat"":26,""src"":3,""loc"":4},{""cat"":15,""src"":10,""loc"":3}]","3","3,26,3,15,26,15,15,26,3,3,0,7,10,3,13,18,2,4,0,1,2,3,4,5,6,7,8,4,5,3,8,7,6,1,0,2",NA
"977","sort_feedback","32","html-keyboard-response","205","1586366","0.0-5.0-24.0","3","2020-1-8 20:29:15","FISH",NA,NA,NA,NA,NA,NA,NA,NA,NA,NA,NA,NA,NA,NA
"19921","setup3",NA,"animation","206","1606289","0.0-5.0-25.0","3","2020-1-8 20:29:15","FISH",NA,NA,"[{""cat"":18,""src"":18,""loc"":3},{""cat"":28,""src"":6,""loc"":6},{""cat"":5,""src"":1,""loc"":0},{""cat"":18,""src"":8,""loc"":5},{""cat"":5,""src"":14,""loc"":2},{""cat"":28,""src"":16,""loc"":7},{""cat"":18,""src"":11,""loc"":4},{""cat"":5,""src"":11,""loc"":1},{""cat"":28,""src"":10,""loc"":8}]","3","1104,1101,1101,1101,1103,1102,1102,1103,1103,10001",NA,NA,NA,NA,NA,NA,NA,NA,NA
"452","flanker_instructions","39","html-keyboard-response","207","1606745","0.0-5.0-26.0","3","2020-1-8 20:29:15","FISH",NA,NA,NA,NA,NA,NA,NA,NA,NA,NA,NA,NA,NA,NA
"522","flanker_test","37","image-keyboard-response","208","1608273","0.0-5.0-27.0-0.0","3","2020-1-8 20:29:15","FISH",NA,NA,NA,NA,NA,"congruent","left","TRUE",NA,NA,NA,NA,NA,NA
"603","flanker_test","37","image-keyboard-response","209","1609720","0.0-5.0-27.0-0.1","3","2020-1-8 20:29:15","FISH",NA,NA,NA,NA,NA,"incongruent","left","TRUE",NA,NA,NA,NA,NA,NA
"498","flanker_test","39","image-keyboard-response","210","1610583","0.0-5.0-27.0-0.2","3","2020-1-8 20:29:15","FISH",NA,NA,NA,NA,NA,"congruent","right","TRUE",NA,NA,NA,NA,NA,NA
"590","flanker_test","39","image-keyboard-response","211","1611759","0.0-5.0-27.0-0.3","3","2020-1-8 20:29:15","FISH",NA,NA,NA,NA,NA,"incongruent","right","TRUE",NA,NA,NA,NA,NA,NA
"33339","sort_trial",NA,"free-sort","212","1645435","0.0-5.0-28.0","3","2020-1-8 20:29:15","FISH",NA,NA,NA,NA,NA,NA,NA,NA,"[{""cat"":18,""src"":18,""x"":11,""y"":248},{""cat"":28,""src"":6,""x"":26,""y"":72},{""cat"":5,""src"":1,""x"":16,""y"":440},{""cat"":18,""src"":8,""x"":66,""y"":309},{""cat"":5,""src"":14,""x"":55,""y"":204},{""cat"":28,""src"":16,""x"":56,""y"":371},{""cat"":18,""src"":11,""x"":12,""y"":501},{""cat"":5,""src"":11,""x"":29,""y"":12},{""cat"":28,""src"":10,""x"":5,""y"":136}]","[{""cat"":""28"",""src"":""16"",""x"":0,""y"":0},{""cat"":""28"",""src"":""6"",""x"":0,""y"":0},{""cat"":""28"",""src"":""10"",""x"":0,""y"":0},{""cat"":""18"",""src"":""18"",""x"":0,""y"":0},{""cat"":""18"",""src"":""8"",""x"":0,""y"":0},{""cat"":""18"",""src"":""11"",""x"":0,""y"":0},{""cat"":""5"",""src"":""14"",""x"":0,""y"":0},{""cat"":""5"",""src"":""1"",""x"":0,""y"":0},{""cat"":""5"",""src"":""11"",""x"":0,""y"":0}]","[{""cat"":28,""src"":16,""loc"":7},{""cat"":28,""src"":6,""loc"":6},{""cat"":28,""src"":10,""loc"":8},{""cat"":18,""src"":18,""loc"":3},{""cat"":18,""src"":8,""loc"":5},{""cat"":18,""src"":11,""loc"":4},{""cat"":5,""src"":14,""loc"":2},{""cat"":5,""src"":1,""loc"":0},{""cat"":5,""src"":11,""loc"":1}]","9","5,5,5,18,18,18,28,28,28,1,11,14,18,11,8,6,16,10,0,1,2,3,4,5,6,7,8,7,8,6,3,5,4,1,0,2",NA
"2742","sort_feedback","32","html-keyboard-response","213","1648182","0.0-5.0-29.0","3","2020-1-8 20:29:15","FISH",NA,NA,NA,NA,NA,NA,NA,NA,NA,NA,NA,NA,NA,NA
"19920","setup5",NA,"animation","214","1668104","0.0-5.0-30.0","3","2020-1-8 20:29:15","FISH",NA,NA,"[{""cat"":7,""src"":14,""loc"":2},{""cat"":33,""src"":8,""loc"":7},{""cat"":13,""src"":14,""loc"":3},{""cat"":7,""src"":1,""loc"":6},{""cat"":33,""src"":12,""loc"":4},{""cat"":13,""src"":18,""loc"":0},{""cat"":13,""src"":5,""loc"":8},{""cat"":33,""src"":3,""loc"":1},{""cat"":7,""src"":18,""loc"":5}]","5","1105,1102,1101,1102,1103,1102,1101,1102,1101,10001",NA,NA,NA,NA,NA,NA,NA,NA,NA
"574","flanker_instructions","39","html-keyboard-response","215","1668682","0.0-5.0-31.0","3","2020-1-8 20:29:15","FISH",NA,NA,NA,NA,NA,NA,NA,NA,NA,NA,NA,NA,NA,NA
"586","flanker_test","39","image-keyboard-response","216","1670271","0.0-5.0-32.0-0.0","3","2020-1-8 20:29:15","FISH",NA,NA,NA,NA,NA,"congruent","right","TRUE",NA,NA,NA,NA,NA,NA
"593","flanker_test","39","image-keyboard-response","217","1671711","0.0-5.0-32.0-0.1","3","2020-1-8 20:29:15","FISH",NA,NA,NA,NA,NA,"incongruent","right","TRUE",NA,NA,NA,NA,NA,NA
NA,"flanker_test",NA,"image-keyboard-response","218","1673036","0.0-5.0-32.0-0.2","3","2020-1-8 20:29:15","FISH",NA,NA,NA,NA,NA,"incongruent","left","FALSE",NA,NA,NA,NA,NA,NA
"871","flanker_test","37","image-keyboard-response","219","1674773","0.0-5.0-32.0-0.3","3","2020-1-8 20:29:15","FISH",NA,NA,NA,NA,NA,"congruent","left","TRUE",NA,NA,NA,NA,NA,NA
"29316","sort_trial",NA,"free-sort","220","1704500","0.0-5.0-33.0","3","2020-1-8 20:29:15","FISH",NA,NA,NA,NA,NA,NA,NA,NA,"[{""cat"":7,""src"":14,""x"":65,""y"":83},{""cat"":33,""src"":8,""x"":15,""y"":304},{""cat"":13,""src"":14,""x"":4,""y"":432},{""cat"":7,""src"":1,""x"":10,""y"":137},{""cat"":33,""src"":12,""x"":65,""y"":252},{""cat"":13,""src"":18,""x"":48,""y"":208},{""cat"":13,""src"":5,""x"":78,""y"":6},{""cat"":33,""src"":3,""x"":75,""y"":361},{""cat"":7,""src"":18,""x"":2,""y"":508}]","[{""cat"":""33"",""src"":""8"",""x"":0,""y"":0},{""cat"":""7"",""src"":""1"",""x"":0,""y"":0},{""cat"":""13"",""src"":""5"",""x"":0,""y"":0},{""cat"":""7"",""src"":""14"",""x"":0,""y"":0},{""cat"":""13"",""src"":""18"",""x"":0,""y"":0},{""cat"":""33"",""src"":""12"",""x"":0,""y"":0},{""cat"":""33"",""src"":""3"",""x"":0,""y"":0},{""cat"":""13"",""src"":""14"",""x"":0,""y"":0},{""cat"":""7"",""src"":""18"",""x"":0,""y"":0}]","[{""cat"":33,""src"":8,""loc"":7},{""cat"":7,""src"":1,""loc"":6},{""cat"":13,""src"":5,""loc"":8},{""cat"":7,""src"":14,""loc"":0},{""cat"":13,""src"":18,""loc"":1},{""cat"":33,""src"":12,""loc"":2},{""cat"":33,""src"":3,""loc"":5},{""cat"":13,""src"":14,""loc"":4},{""cat"":7,""src"":18,""loc"":3}]","3","7,13,33,7,13,33,7,33,13,14,18,12,18,14,3,1,8,5,0,1,2,3,4,5,6,7,8,3,4,5,8,7,6,1,0,2",NA
"910","sort_feedback","32","html-keyboard-response","221","1705413","0.0-5.0-34.0","3","2020-1-8 20:29:15","FISH",NA,NA,NA,NA,NA,NA,NA,NA,NA,NA,NA,NA,NA,NA
"19926","setup2",NA,"animation","222","1725341","0.0-5.0-35.0","3","2020-1-8 20:29:15","FISH",NA,NA,"[{""cat"":1,""src"":6,""loc"":1},{""cat"":25,""src"":12,""loc"":2},{""cat"":6,""src"":2,""loc"":0},{""cat"":6,""src"":13,""loc"":7},{""cat"":1,""src"":13,""loc"":6},{""cat"":25,""src"":15,""loc"":8},{""cat"":25,""src"":5,""loc"":4},{""cat"":6,""src"":0,""loc"":3},{""cat"":1,""src"":0,""loc"":5}]","2","1104,1102,1101,1102,1103,1102,1103,1104,1104,10001",NA,NA,NA,NA,NA,NA,NA,NA,NA
"424","flanker_instructions","39","html-keyboard-response","223","1725769","0.0-5.0-36.0","3","2020-1-8 20:29:15","FISH",NA,NA,NA,NA,NA,NA,NA,NA,NA,NA,NA,NA,NA,NA
"834","flanker_test","37","image-keyboard-response","224","1727609","0.0-5.0-37.0-0.0","3","2020-1-8 20:29:15","FISH",NA,NA,NA,NA,NA,"incongruent","left","TRUE",NA,NA,NA,NA,NA,NA
"454","flanker_test","37","image-keyboard-response","225","1728799","0.0-5.0-37.0-0.1","3","2020-1-8 20:29:15","FISH",NA,NA,NA,NA,NA,"congruent","left","TRUE",NA,NA,NA,NA,NA,NA
"711","flanker_test","39","image-keyboard-response","226","1730418","0.0-5.0-37.0-0.2","3","2020-1-8 20:29:15","FISH",NA,NA,NA,NA,NA,"incongruent","right","TRUE",NA,NA,NA,NA,NA,NA
"484","flanker_test","39","image-keyboard-response","227","1731236","0.0-5.0-37.0-0.3","3","2020-1-8 20:29:15","FISH",NA,NA,NA,NA,NA,"congruent","right","TRUE",NA,NA,NA,NA,NA,NA
"34862","sort_trial",NA,"free-sort","228","1767026","0.0-5.0-38.0","3","2020-1-8 20:29:15","FISH",NA,NA,NA,NA,NA,NA,NA,NA,"[{""cat"":1,""src"":6,""x"":39,""y"":266},{""cat"":25,""src"":12,""x"":48,""y"":209},{""cat"":6,""src"":2,""x"":45,""y"":1},{""cat"":6,""src"":13,""x"":53,""y"":490},{""cat"":1,""src"":13,""x"":47,""y"":426},{""cat"":25,""src"":15,""x"":27,""y"":142},{""cat"":25,""src"":5,""x"":81,""y"":363},{""cat"":6,""src"":0,""x"":63,""y"":304},{""cat"":1,""src"":0,""x"":38,""y"":85}]","[{""cat"":""6"",""src"":""13"",""x"":283,""y"":400},{""cat"":""6"",""src"":""13"",""x"":0,""y"":0},{""cat"":""1"",""src"":""13"",""x"":0,""y"":0},{""cat"":""25"",""src"":""15"",""x"":0,""y"":0},{""cat"":""6"",""src"":""0"",""x"":0,""y"":0},{""cat"":""25"",""src"":""5"",""x"":0,""y"":0},{""cat"":""25"",""src"":""12"",""x"":0,""y"":0},{""cat"":""1"",""src"":""6"",""x"":0,""y"":0},{""cat"":""1"",""src"":""0"",""x"":0,""y"":0},{""cat"":""6"",""src"":""2"",""x"":0,""y"":0}]","[{""cat"":6,""src"":13,""loc"":7},{""cat"":1,""src"":13,""loc"":6},{""cat"":25,""src"":15,""loc"":8},{""cat"":6,""src"":0,""loc"":3},{""cat"":25,""src"":5,""loc"":5},{""cat"":25,""src"":12,""loc"":2},{""cat"":1,""src"":6,""loc"":0},{""cat"":1,""src"":0,""loc"":1},{""cat"":6,""src"":2,""loc"":4}]","5","1,1,25,6,6,25,1,6,25,6,0,12,0,2,5,13,13,15,0,1,2,3,4,5,6,7,8,6,7,5,3,8,4,1,0,2",NA
"1449","sort_feedback","32","html-keyboard-response","229","1768478","0.0-5.0-39.0","3","2020-1-8 20:29:15","FISH",NA,NA,NA,NA,NA,NA,NA,NA,NA,NA,NA,NA,NA,NA
"19925","setup4",NA,"animation","230","1788404","0.0-5.0-40.0","3","2020-1-8 20:29:15","FISH",NA,NA,"[{""cat"":29,""src"":15,""loc"":1},{""cat"":29,""src"":5,""loc"":6},{""cat"":29,""src"":2,""loc"":5},{""cat"":9,""src"":10,""loc"":4},{""cat"":9,""src"":1,""loc"":8},{""cat"":9,""src"":13,""loc"":0},{""cat"":4,""src"":19,""loc"":2},{""cat"":4,""src"":0,""loc"":7},{""cat"":4,""src"":13,""loc"":3}]","4","1104,1103,1103,1102,1101,1103,1103,1102,1103,10001",NA,NA,NA,NA,NA,NA,NA,NA,NA
"497","flanker_instructions","39","html-keyboard-response","231","1788906","0.0-5.0-41.0","3","2020-1-8 20:29:15","FISH",NA,NA,NA,NA,NA,NA,NA,NA,NA,NA,NA,NA,NA,NA
"699","flanker_test","37","image-keyboard-response","232","1790610","0.0-5.0-42.0-0.0","3","2020-1-8 20:29:15","FISH",NA,NA,NA,NA,NA,"incongruent","left","TRUE",NA,NA,NA,NA,NA,NA
"446","flanker_test","39","image-keyboard-response","233","1791472","0.0-5.0-42.0-0.1","3","2020-1-8 20:29:15","FISH",NA,NA,NA,NA,NA,"congruent","right","TRUE",NA,NA,NA,NA,NA,NA
"443","flanker_test","37","image-keyboard-response","234","1792500","0.0-5.0-42.0-0.2","3","2020-1-8 20:29:15","FISH",NA,NA,NA,NA,NA,"congruent","left","TRUE",NA,NA,NA,NA,NA,NA
"644","flanker_test","39","image-keyboard-response","235","1793679","0.0-5.0-42.0-0.3","3","2020-1-8 20:29:15","FISH",NA,NA,NA,NA,NA,"incongruent","right","TRUE",NA,NA,NA,NA,NA,NA
"27589","sort_trial",NA,"free-sort","236","1821995","0.0-5.0-43.0","3","2020-1-8 20:29:15","FISH",NA,NA,NA,NA,NA,NA,NA,NA,"[{""cat"":29,""src"":15,""x"":48,""y"":63},{""cat"":29,""src"":5,""x"":27,""y"":486},{""cat"":29,""src"":2,""x"":51,""y"":139},{""cat"":9,""src"":10,""x"":14,""y"":388},{""cat"":9,""src"":1,""x"":54,""y"":427},{""cat"":9,""src"":13,""x"":83,""y"":321},{""cat"":4,""src"":19,""x"":21,""y"":183},{""cat"":4,""src"":0,""x"":63,""y"":239},{""cat"":4,""src"":13,""x"":72,""y"":18}]","[{""cat"":""4"",""src"":""0"",""x"":0,""y"":0},{""cat"":""29"",""src"":""5"",""x"":0,""y"":0},{""cat"":""9"",""src"":""1"",""x"":0,""y"":0},{""cat"":""4"",""src"":""13"",""x"":0,""y"":0},{""cat"":""29"",""src"":""15"",""x"":0,""y"":0},{""cat"":""29"",""src"":""2"",""x"":0,""y"":0},{""cat"":""4"",""src"":""19"",""x"":0,""y"":0},{""cat"":""9"",""src"":""13"",""x"":0,""y"":0},{""cat"":""9"",""src"":""10"",""x"":0,""y"":0}]","[{""cat"":4,""src"":0,""loc"":7},{""cat"":29,""src"":5,""loc"":6},{""cat"":9,""src"":1,""loc"":8},{""cat"":4,""src"":13,""loc"":0},{""cat"":29,""src"":15,""loc"":1},{""cat"":29,""src"":2,""loc"":2},{""cat"":4,""src"":19,""loc"":5},{""cat"":9,""src"":13,""loc"":3},{""cat"":9,""src"":10,""loc"":4}]","5","4,29,29,9,9,4,29,4,9,13,15,2,13,10,19,5,0,1,0,1,2,3,4,5,6,7,8,3,4,5,7,8,6,1,0,2",NA
"921","sort_feedback","32","html-keyboard-response","237","1822920","0.0-5.0-44.0","3","2020-1-8 20:29:15","FISH",NA,NA,NA,NA,NA,NA,NA,NA,NA,NA,NA,NA,NA,NA
"19926","setup1",NA,"animation","238","1842847","0.0-5.0-45.0","3","2020-1-8 20:29:15","FISH",NA,NA,"[{""cat"":26,""src"":8,""loc"":8},{""cat"":26,""src"":19,""loc"":7},{""cat"":26,""src"":0,""loc"":6},{""cat"":14,""src"":15,""loc"":1},{""cat"":14,""src"":7,""loc"":2},{""cat"":14,""src"":0,""loc"":0},{""cat"":16,""src"":2,""loc"":3},{""cat"":16,""src"":3,""loc"":5},{""cat"":16,""src"":5,""loc"":4}]","1","1103,1101,1102,1102,1103,1104,1103,1103,1103,10002",NA,NA,NA,NA,NA,NA,NA,NA,NA
"342","flanker_instructions","39","html-keyboard-response","239","1843195","0.0-5.0-46.0","3","2020-1-8 20:29:15","FISH",NA,NA,NA,NA,NA,NA,NA,NA,NA,NA,NA,NA,NA,NA
"678","flanker_test","37","image-keyboard-response","240","1844876","0.0-5.0-47.0-0.0","3","2020-1-8 20:29:15","FISH",NA,NA,NA,NA,NA,"congruent","left","TRUE",NA,NA,NA,NA,NA,NA
"510","flanker_test","39","image-keyboard-response","241","1845795","0.0-5.0-47.0-0.1","3","2020-1-8 20:29:15","FISH",NA,NA,NA,NA,NA,"congruent","right","TRUE",NA,NA,NA,NA,NA,NA
"605","flanker_test","39","image-keyboard-response","242","1847335","0.0-5.0-47.0-0.2","3","2020-1-8 20:29:15","FISH",NA,NA,NA,NA,NA,"incongruent","right","TRUE",NA,NA,NA,NA,NA,NA
"498","flanker_test","37","image-keyboard-response","243","1848226","0.0-5.0-47.0-0.3","3","2020-1-8 20:29:15","FISH",NA,NA,NA,NA,NA,"incongruent","left","TRUE",NA,NA,NA,NA,NA,NA
"38531","sort_trial",NA,"free-sort","244","1887400","0.0-5.0-48.0","3","2020-1-8 20:29:15","FISH",NA,NA,NA,NA,NA,NA,NA,NA,"[{""cat"":26,""src"":8,""x"":70,""y"":375},{""cat"":26,""src"":19,""x"":78,""y"":490},{""cat"":26,""src"":0,""x"":17,""y"":193},{""cat"":14,""src"":15,""x"":59,""y"":440},{""cat"":14,""src"":7,""x"":78,""y"":134},{""cat"":14,""src"":0,""x"":56,""y"":258},{""cat"":16,""src"":2,""x"":8,""y"":16},{""cat"":16,""src"":3,""x"":23,""y"":82},{""cat"":16,""src"":5,""x"":36,""y"":319}]","[{""cat"":""26"",""src"":""19"",""x"":0,""y"":0},{""cat"":""26"",""src"":""0"",""x"":0,""y"":0},{""cat"":""26"",""src"":""8"",""x"":0,""y"":0},{""cat"":""16"",""src"":""2"",""x"":0,""y"":0},{""cat"":""14"",""src"":""7"",""x"":0,""y"":0},{""cat"":""16"",""src"":""3"",""x"":0,""y"":0},{""cat"":""14"",""src"":""15"",""x"":0,""y"":0},{""cat"":""16"",""src"":""5"",""x"":0,""y"":0},{""cat"":""14"",""src"":""0"",""x"":0,""y"":0}]","[{""cat"":26,""src"":19,""loc"":7},{""cat"":26,""src"":0,""loc"":6},{""cat"":26,""src"":8,""loc"":8},{""cat"":16,""src"":2,""loc"":2},{""cat"":14,""src"":7,""loc"":3},{""cat"":16,""src"":3,""loc"":5},{""cat"":14,""src"":15,""loc"":1},{""cat"":16,""src"":5,""loc"":0},{""cat"":14,""src"":0,""loc"":4}]","5","16,14,16,14,14,16,26,26,26,5,15,2,7,0,3,0,19,8,0,1,2,3,4,5,6,7,8,7,6,3,4,8,5,1,0,2",NA
"951","sort_feedback","32","html-keyboard-response","245","1888355","0.0-5.0-49.0","3","2020-1-8 20:29:15","FISH",NA,NA,NA,NA,NA,NA,NA,NA,NA,NA,NA,NA,NA,NA
"2831","demographics",NA,"html-button-response","246","1891189","0.0-6.0-0.0","3","2020-1-8 20:29:15","FISH","0",NA,NA,NA,NA,NA,NA,NA,NA,NA,NA,NA,NA,NA
"3702","workerID",NA,"survey-text","247","1894896","0.0-6.0-1.0","3","2020-1-8 20:29:15","FISH",NA,NA,NA,NA,NA,NA,NA,NA,NA,NA,NA,NA,NA,"{""Q0"":""A5NHP0N1XC09K""}"
"13148","attn_check",NA,"survey-multi-choice","248","1908059","0.0-6.0-2.0","3","2020-1-8 20:29:15","FISH",NA,NA,NA,NA,NA,NA,NA,NA,NA,NA,NA,NA,NA,"{""Q0"":""FISH""}"
"4141","age",NA,"survey-text","249","1912206","0.0-6.0-3.0","3","2020-1-8 20:29:15","FISH",NA,NA,NA,NA,NA,NA,NA,NA,NA,NA,NA,NA,NA,"{""Q0"":""54""}"
"2848","gender",NA,"survey-multi-choice","250","1915061","0.0-6.0-4.0","3","2020-1-8 20:29:15","FISH",NA,NA,NA,NA,NA,NA,NA,NA,NA,NA,NA,NA,NA,"{""Q0"":""Male""}"
"2600","ethnic",NA,"survey-multi-choice","251","1917666","0.0-6.0-5.0","3","2020-1-8 20:29:15","FISH",NA,NA,NA,NA,NA,NA,NA,NA,NA,NA,NA,NA,NA,"{""Q0"":""Not Hispanic or Latino""}"
"2792","race",NA,"survey-multi-select","252","1920466","0.0-6.0-6.0","3","2020-1-8 20:29:15","FISH",NA,NA,NA,NA,NA,NA,NA,NA,NA,NA,NA,NA,NA,"{""Q0"":[""White""]}"
"3335","english",NA,"survey-multi-choice","253","1923807","0.0-6.0-7.0","3","2020-1-8 20:29:15","FISH",NA,NA,NA,NA,NA,NA,NA,NA,NA,NA,NA,NA,NA,"{""Q0"":""Yes""}"
"3605","understand",NA,"survey-multi-choice","254","1927417","0.0-6.0-8.0","3","2020-1-8 20:29:15","FISH",NA,NA,NA,NA,NA,NA,NA,NA,NA,NA,NA,NA,NA,"{""Q0"":""No""}"
"13878","strategies",NA,"survey-text","255","1941302","0.0-6.0-9.0","3","2020-1-8 20:29:15","FISH",NA,NA,NA,NA,NA,NA,NA,NA,NA,NA,NA,NA,NA,"{""Q0"":""three words""}"
"2143","comments",NA,"survey-text","256","1943448","0.0-6.0-10.0","3","2020-1-8 20:29:15","FISH",NA,NA,NA,NA,NA,NA,NA,NA,NA,NA,NA,NA,NA,"{""Q0"":""""}"
"1634","study_end",NA,"html-button-response","257","1945086","0.0-7.0","3","2020-1-8 20:29:15","FISH","0",NA,NA,NA,NA,NA,NA,NA,NA,NA,NA,NA,NA,NA
