"rt","stimulus","key_press","trial_type","trial_index","time_elapsed","internal_node_id","session","startTime","attn_word","button_pressed","view_history","animation_sequence","condition","time_sequence","stim_type","direction","correct","init_locations","moves","final_locations","sort_correct","finalLocations","responses"
"102785","welcome","74","html-keyboard-response","0","102802","0.0-0.0","3","2020-1-8 21:4:28","MOUSE",NA,NA,NA,NA,NA,NA,NA,NA,NA,NA,NA,NA,NA,NA
"5141","consent",NA,"html-button-response","1","107951","0.0-1.0","3","2020-1-8 21:4:28","MOUSE","0",NA,NA,NA,NA,NA,NA,NA,NA,NA,NA,NA,NA,NA
"11466","instructions",NA,"instructions","2","119422","0.0-2.0","3","2020-1-8 21:4:28","MOUSE",NA,"[{""page_index"":0,""viewing_time"":2785},{""page_index"":1,""viewing_time"":1324},{""page_index"":2,""viewing_time"":1360},{""page_index"":3,""viewing_time"":2076},{""page_index"":4,""viewing_time"":1245},{""page_index"":5,""viewing_time"":2675}]",NA,NA,NA,NA,NA,NA,NA,NA,NA,NA,NA,NA
"3299","finalInstructions",NA,"html-button-response","3","122726","0.0-3.0-0.0","3","2020-1-8 21:4:28","MOUSE","0",NA,NA,NA,NA,NA,NA,NA,NA,NA,NA,NA,NA,NA
"19955","setup4",NA,"animation","4","142686","0.0-3.0-1.0","3","2020-1-8 21:4:28","MOUSE",NA,NA,"[{""cat"":11,""src"":1,""loc"":2},{""cat"":11,""src"":17,""loc"":8},{""cat"":11,""src"":8,""loc"":3},{""cat"":16,""src"":5,""loc"":7},{""cat"":16,""src"":19,""loc"":1},{""cat"":16,""src"":3,""loc"":5},{""cat"":10,""src"":6,""loc"":4},{""cat"":10,""src"":8,""loc"":0},{""cat"":10,""src"":0,""loc"":6}]","4","1108,1106,1103,1104,1106,1107,1105,1103,1107,10006",NA,NA,NA,NA,NA,NA,NA,NA,NA
"1264","flanker_instructions","39","html-keyboard-response","5","143962","0.0-3.0-2.0","3","2020-1-8 21:4:28","MOUSE",NA,NA,NA,NA,NA,NA,NA,NA,NA,NA,NA,NA,NA,NA
"690","flanker_test","39","image-keyboard-response","6","145666","0.0-3.0-3.0-0.0","3","2020-1-8 21:4:28","MOUSE",NA,NA,NA,NA,NA,"incongruent","right","TRUE",NA,NA,NA,NA,NA,NA
"433","flanker_test","39","image-keyboard-response","7","146965","0.0-3.0-3.0-0.1","3","2020-1-8 21:4:28","MOUSE",NA,NA,NA,NA,NA,"congruent","right","TRUE",NA,NA,NA,NA,NA,NA
"887","flanker_test","37","image-keyboard-response","8","148225","0.0-3.0-3.0-0.2","3","2020-1-8 21:4:28","MOUSE",NA,NA,NA,NA,NA,"incongruent","left","TRUE",NA,NA,NA,NA,NA,NA
"447","flanker_test","37","image-keyboard-response","9","149464","0.0-3.0-3.0-0.3","3","2020-1-8 21:4:28","MOUSE",NA,NA,NA,NA,NA,"congruent","left","TRUE",NA,NA,NA,NA,NA,NA
"31199","sort_trial",NA,"free-sort","10","181178","0.0-3.0-4.0","3","2020-1-8 21:4:28","MOUSE",NA,NA,NA,NA,NA,NA,NA,NA,"[{""cat"":11,""src"":1,""x"":18,""y"":191},{""cat"":11,""src"":17,""x"":79,""y"":506},{""cat"":11,""src"":8,""x"":54,""y"":428},{""cat"":16,""src"":5,""x"":25,""y"":73},{""cat"":16,""src"":19,""x"":23,""y"":134},{""cat"":16,""src"":3,""x"":29,""y"":247},{""cat"":10,""src"":6,""x"":73,""y"":326},{""cat"":10,""src"":8,""x"":74,""y"":379},{""cat"":10,""src"":0,""x"":28,""y"":10}]","[{""cat"":""16"",""src"":""3"",""x"":0,""y"":0},{""cat"":""10"",""src"":""6"",""x"":0,""y"":0},{""cat"":""11"",""src"":""8"",""x"":0,""y"":0},{""cat"":""11"",""src"":""17"",""x"":0,""y"":0},{""cat"":""11"",""src"":""1"",""x"":0,""y"":0},{""cat"":""10"",""src"":""8"",""x"":0,""y"":0},{""cat"":""10"",""src"":""0"",""x"":0,""y"":0},{""cat"":""16"",""src"":""19"",""x"":0,""y"":0},{""cat"":""16"",""src"":""5"",""x"":0,""y"":0}]","[{""cat"":16,""src"":3,""loc"":5},{""cat"":10,""src"":6,""loc"":4},{""cat"":11,""src"":8,""loc"":3},{""cat"":11,""src"":17,""loc"":8},{""cat"":11,""src"":1,""loc"":2},{""cat"":10,""src"":8,""loc"":1},{""cat"":10,""src"":0,""loc"":6},{""cat"":16,""src"":19,""loc"":0},{""cat"":16,""src"":5,""loc"":7}]","7","16,10,11,11,10,16,10,16,11,19,8,1,8,6,3,0,5,17,0,1,2,3,4,5,6,7,8,7,5,4,2,1,0,6,8,3",NA
"4188","sort_feedback","78","html-keyboard-response","11","185429","0.0-3.0-5.0","3","2020-1-8 21:4:28","MOUSE",NA,NA,NA,NA,NA,NA,NA,NA,NA,NA,NA,NA,NA,NA
"19981","setup5",NA,"animation","12","205411","0.0-3.0-6.0","3","2020-1-8 21:4:28","MOUSE",NA,NA,"[{""cat"":26,""src"":8,""loc"":1},{""cat"":30,""src"":4,""loc"":3},{""cat"":3,""src"":18,""loc"":7},{""cat"":3,""src"":6,""loc"":5},{""cat"":26,""src"":5,""loc"":6},{""cat"":30,""src"":16,""loc"":2},{""cat"":26,""src"":17,""loc"":4},{""cat"":30,""src"":17,""loc"":8},{""cat"":3,""src"":0,""loc"":0}]","5","1127,1106,1107,1103,1104,1115,1107,1106,1102,10003",NA,NA,NA,NA,NA,NA,NA,NA,NA
"2113","flanker_instructions","37","html-keyboard-response","13","207531","0.0-3.0-7.0","3","2020-1-8 21:4:28","MOUSE",NA,NA,NA,NA,NA,NA,NA,NA,NA,NA,NA,NA,NA,NA
"559","flanker_test","37","image-keyboard-response","14","209100","0.0-3.0-8.0-0.0","3","2020-1-8 21:4:28","MOUSE",NA,NA,NA,NA,NA,"congruent","left","TRUE",NA,NA,NA,NA,NA,NA
"441","flanker_test","39","image-keyboard-response","15","210222","0.0-3.0-8.0-0.1","3","2020-1-8 21:4:28","MOUSE",NA,NA,NA,NA,NA,"congruent","right","TRUE",NA,NA,NA,NA,NA,NA
"515","flanker_test","37","image-keyboard-response","16","211130","0.0-3.0-8.0-0.2","3","2020-1-8 21:4:28","MOUSE",NA,NA,NA,NA,NA,"incongruent","left","TRUE",NA,NA,NA,NA,NA,NA
"473","flanker_test","39","image-keyboard-response","17","212313","0.0-3.0-8.0-0.3","3","2020-1-8 21:4:28","MOUSE",NA,NA,NA,NA,NA,"incongruent","right","TRUE",NA,NA,NA,NA,NA,NA
"24651","sort_trial",NA,"free-sort","18","237801","0.0-3.0-9.0","3","2020-1-8 21:4:28","MOUSE",NA,NA,NA,NA,NA,NA,NA,NA,"[{""cat"":26,""src"":8,""x"":75,""y"":495},{""cat"":30,""src"":4,""x"":72,""y"":311},{""cat"":3,""src"":18,""x"":79,""y"":7},{""cat"":3,""src"":6,""x"":7,""y"":426},{""cat"":26,""src"":5,""x"":70,""y"":259},{""cat"":30,""src"":16,""x"":32,""y"":67},{""cat"":26,""src"":17,""x"":68,""y"":386},{""cat"":30,""src"":17,""x"":70,""y"":184},{""cat"":3,""src"":0,""x"":77,""y"":126}]","[{""cat"":""3"",""src"":""6"",""x"":0,""y"":0},{""cat"":""26"",""src"":""17"",""x"":0,""y"":0},{""cat"":""30"",""src"":""4"",""x"":0,""y"":0},{""cat"":""26"",""src"":""8"",""x"":0,""y"":0},{""cat"":""30"",""src"":""16"",""x"":0,""y"":0},{""cat"":""26"",""src"":""5"",""x"":0,""y"":0},{""cat"":""3"",""src"":""0"",""x"":0,""y"":0},{""cat"":""30"",""src"":""17"",""x"":0,""y"":0},{""cat"":""3"",""src"":""18"",""x"":0,""y"":0}]","[{""cat"":3,""src"":6,""loc"":5},{""cat"":26,""src"":17,""loc"":4},{""cat"":30,""src"":4,""loc"":3},{""cat"":26,""src"":8,""loc"":1},{""cat"":30,""src"":16,""loc"":2},{""cat"":26,""src"":5,""loc"":0},{""cat"":3,""src"":0,""loc"":7},{""cat"":30,""src"":17,""loc"":6},{""cat"":3,""src"":18,""loc"":8}]","5","26,26,30,30,26,3,30,3,3,5,8,16,4,17,6,17,0,18,0,1,2,3,4,5,6,7,8,5,3,4,2,1,0,7,6,8",NA
"3470","sort_feedback","74","html-keyboard-response","19","241277","0.0-3.0-10.0","3","2020-1-8 21:4:28","MOUSE",NA,NA,NA,NA,NA,NA,NA,NA,NA,NA,NA,NA,NA,NA
"19958","setup2",NA,"animation","20","261240","0.0-3.0-11.0","3","2020-1-8 21:4:28","MOUSE",NA,NA,"[{""cat"":8,""src"":18,""loc"":5},{""cat"":17,""src"":5,""loc"":4},{""cat"":5,""src"":19,""loc"":3},{""cat"":8,""src"":8,""loc"":7},{""cat"":5,""src"":12,""loc"":6},{""cat"":17,""src"":6,""loc"":8},{""cat"":5,""src"":18,""loc"":0},{""cat"":8,""src"":13,""loc"":1},{""cat"":17,""src"":3,""loc"":2}]","2","1110,1104,1103,1103,1106,1107,1109,1107,1106,10003",NA,NA,NA,NA,NA,NA,NA,NA,NA
"2405","flanker_instructions","39","html-keyboard-response","21","263653","0.0-3.0-12.0","3","2020-1-8 21:4:28","MOUSE",NA,NA,NA,NA,NA,NA,NA,NA,NA,NA,NA,NA,NA,NA
"666","flanker_test","37","image-keyboard-response","22","265327","0.0-3.0-13.0-0.0","3","2020-1-8 21:4:28","MOUSE",NA,NA,NA,NA,NA,"incongruent","left","TRUE",NA,NA,NA,NA,NA,NA
"511","flanker_test","39","image-keyboard-response","23","266254","0.0-3.0-13.0-0.1","3","2020-1-8 21:4:28","MOUSE",NA,NA,NA,NA,NA,"congruent","right","TRUE",NA,NA,NA,NA,NA,NA
"602","flanker_test","39","image-keyboard-response","24","267721","0.0-3.0-13.0-0.2","3","2020-1-8 21:4:28","MOUSE",NA,NA,NA,NA,NA,"incongruent","right","TRUE",NA,NA,NA,NA,NA,NA
"412","flanker_test","39","image-keyboard-response","25","268714","0.0-3.0-13.0-0.3","3","2020-1-8 21:4:28","MOUSE",NA,NA,NA,NA,NA,"congruent","left","FALSE",NA,NA,NA,NA,NA,NA
"25440","sort_trial",NA,"free-sort","26","294783","0.0-3.0-14.0","3","2020-1-8 21:4:28","MOUSE",NA,NA,NA,NA,NA,NA,NA,NA,"[{""cat"":8,""src"":18,""x"":30,""y"":365},{""cat"":17,""src"":5,""x"":23,""y"":306},{""cat"":5,""src"":19,""x"":35,""y"":445},{""cat"":8,""src"":8,""x"":49,""y"":486},{""cat"":5,""src"":12,""x"":14,""y"":256},{""cat"":17,""src"":6,""x"":47,""y"":28},{""cat"":5,""src"":18,""x"":64,""y"":180},{""cat"":8,""src"":13,""x"":8,""y"":149},{""cat"":17,""src"":3,""x"":32,""y"":87}]","[{""cat"":""5"",""src"":""18"",""x"":0,""y"":0},{""cat"":""17"",""src"":""6"",""x"":47,""y"":28},{""cat"":""8"",""src"":""13"",""x"":0,""y"":0},{""cat"":""17"",""src"":""3"",""x"":0,""y"":0},{""cat"":""17"",""src"":""5"",""x"":0,""y"":0},{""cat"":""8"",""src"":""18"",""x"":0,""y"":0},{""cat"":""8"",""src"":""8"",""x"":0,""y"":0},{""cat"":""5"",""src"":""12"",""x"":0,""y"":0},{""cat"":""5"",""src"":""19"",""x"":0,""y"":0},{""cat"":""17"",""src"":""6"",""x"":0,""y"":0}]","[{""cat"":5,""src"":18,""loc"":0},{""cat"":8,""src"":13,""loc"":1},{""cat"":17,""src"":3,""loc"":2},{""cat"":17,""src"":5,""loc"":4},{""cat"":8,""src"":18,""loc"":5},{""cat"":8,""src"":8,""loc"":3},{""cat"":5,""src"":12,""loc"":6},{""cat"":5,""src"":19,""loc"":8},{""cat"":17,""src"":6,""loc"":7}]","6","5,8,17,8,17,8,5,17,5,18,13,3,8,5,18,12,6,19,0,1,2,3,4,5,6,7,8,0,1,2,5,3,4,6,8,7",NA
"912","sort_feedback","188","html-keyboard-response","27","295700","0.0-3.0-15.0","3","2020-1-8 21:4:28","MOUSE",NA,NA,NA,NA,NA,NA,NA,NA,NA,NA,NA,NA,NA,NA
"19970","setup3",NA,"animation","28","315678","0.0-3.0-16.0","3","2020-1-8 21:4:28","MOUSE",NA,NA,"[{""cat"":3,""src"":7,""loc"":2},{""cat"":22,""src"":5,""loc"":3},{""cat"":19,""src"":3,""loc"":6},{""cat"":22,""src"":18,""loc"":4},{""cat"":19,""src"":8,""loc"":7},{""cat"":3,""src"":11,""loc"":1},{""cat"":3,""src"":9,""loc"":0},{""cat"":19,""src"":15,""loc"":8},{""cat"":22,""src"":14,""loc"":5}]","3","1113,1105,1109,1106,1106,1109,1103,1109,1106,10003",NA,NA,NA,NA,NA,NA,NA,NA,NA
"2416","flanker_instructions","39","html-keyboard-response","29","318102","0.0-3.0-17.0","3","2020-1-8 21:4:28","MOUSE",NA,NA,NA,NA,NA,NA,NA,NA,NA,NA,NA,NA,NA,NA
"517","flanker_test","37","image-keyboard-response","30","319623","0.0-3.0-18.0-0.0","3","2020-1-8 21:4:28","MOUSE",NA,NA,NA,NA,NA,"congruent","left","TRUE",NA,NA,NA,NA,NA,NA
NA,"flanker_test",NA,"image-keyboard-response","31","321132","0.0-3.0-18.0-0.1","3","2020-1-8 21:4:28","MOUSE",NA,NA,NA,NA,NA,"congruent","right","FALSE",NA,NA,NA,NA,NA,NA
"552","flanker_test","37","image-keyboard-response","32","322742","0.0-3.0-18.0-0.2","3","2020-1-8 21:4:28","MOUSE",NA,NA,NA,NA,NA,"incongruent","left","TRUE",NA,NA,NA,NA,NA,NA
"514","flanker_test","39","image-keyboard-response","33","324279","0.0-3.0-18.0-0.3","3","2020-1-8 21:4:28","MOUSE",NA,NA,NA,NA,NA,"incongruent","right","TRUE",NA,NA,NA,NA,NA,NA
"27608","sort_trial",NA,"free-sort","34","352836","0.0-3.0-19.0","3","2020-1-8 21:4:28","MOUSE",NA,NA,NA,NA,NA,NA,NA,NA,"[{""cat"":3,""src"":7,""x"":18,""y"":311},{""cat"":22,""src"":5,""x"":74,""y"":197},{""cat"":19,""src"":3,""x"":17,""y"":423},{""cat"":22,""src"":18,""x"":10,""y"":23},{""cat"":19,""src"":8,""x"":55,""y"":488},{""cat"":3,""src"":11,""x"":19,""y"":149},{""cat"":3,""src"":9,""x"":4,""y"":64},{""cat"":19,""src"":15,""x"":29,""y"":254},{""cat"":22,""src"":14,""x"":81,""y"":368}]","[{""cat"":""3"",""src"":""11"",""x"":0,""y"":0},{""cat"":""3"",""src"":""9"",""x"":0,""y"":0},{""cat"":""3"",""src"":""7"",""x"":0,""y"":0},{""cat"":""19"",""src"":""3"",""x"":0,""y"":0},{""cat"":""19"",""src"":""8"",""x"":0,""y"":0},{""cat"":""19"",""src"":""15"",""x"":0,""y"":0},{""cat"":""22"",""src"":""5"",""x"":0,""y"":0},{""cat"":""22"",""src"":""18"",""x"":0,""y"":0},{""cat"":""22"",""src"":""14"",""x"":0,""y"":0}]","[{""cat"":3,""src"":11,""loc"":1},{""cat"":3,""src"":9,""loc"":0},{""cat"":3,""src"":7,""loc"":2},{""cat"":19,""src"":3,""loc"":6},{""cat"":19,""src"":8,""loc"":7},{""cat"":19,""src"":15,""loc"":8},{""cat"":22,""src"":5,""loc"":3},{""cat"":22,""src"":18,""loc"":5},{""cat"":22,""src"":14,""loc"":4}]","7","3,3,3,22,22,22,19,19,19,9,11,7,5,14,18,3,8,15,0,1,2,3,4,5,6,7,8,1,0,2,6,8,7,3,4,5",NA
"2072","sort_feedback","74","html-keyboard-response","35","354918","0.0-3.0-20.0","3","2020-1-8 21:4:28","MOUSE",NA,NA,NA,NA,NA,NA,NA,NA,NA,NA,NA,NA,NA,NA
"19975","setup1",NA,"animation","36","374896","0.0-3.0-21.0","3","2020-1-8 21:4:28","MOUSE",NA,NA,"[{""cat"":12,""src"":16,""loc"":7},{""cat"":12,""src"":0,""loc"":6},{""cat"":12,""src"":1,""loc"":8},{""cat"":26,""src"":13,""loc"":0},{""cat"":26,""src"":2,""loc"":2},{""cat"":26,""src"":8,""loc"":1},{""cat"":32,""src"":12,""loc"":5},{""cat"":32,""src"":17,""loc"":3},{""cat"":32,""src"":1,""loc"":4}]","1","1112,1105,1106,1108,1108,1110,1110,1104,1108,10004",NA,NA,NA,NA,NA,NA,NA,NA,NA
"1891","flanker_instructions","39","html-keyboard-response","37","376791","0.0-3.0-22.0","3","2020-1-8 21:4:28","MOUSE",NA,NA,NA,NA,NA,NA,NA,NA,NA,NA,NA,NA,NA,NA
"531","flanker_test","37","image-keyboard-response","38","378330","0.0-3.0-23.0-0.0","3","2020-1-8 21:4:28","MOUSE",NA,NA,NA,NA,NA,"incongruent","left","TRUE",NA,NA,NA,NA,NA,NA
"518","flanker_test","37","image-keyboard-response","39","379518","0.0-3.0-23.0-0.1","3","2020-1-8 21:4:28","MOUSE",NA,NA,NA,NA,NA,"congruent","left","TRUE",NA,NA,NA,NA,NA,NA
"488","flanker_test","39","image-keyboard-response","40","380761","0.0-3.0-23.0-0.2","3","2020-1-8 21:4:28","MOUSE",NA,NA,NA,NA,NA,"congruent","right","TRUE",NA,NA,NA,NA,NA,NA
"579","flanker_test","39","image-keyboard-response","41","382447","0.0-3.0-23.0-0.3","3","2020-1-8 21:4:28","MOUSE",NA,NA,NA,NA,NA,"incongruent","right","TRUE",NA,NA,NA,NA,NA,NA
"23544","sort_trial",NA,"free-sort","42","407062","0.0-3.0-24.0","3","2020-1-8 21:4:28","MOUSE",NA,NA,NA,NA,NA,NA,NA,NA,"[{""cat"":12,""src"":16,""x"":15,""y"":14},{""cat"":12,""src"":0,""x"":23,""y"":248},{""cat"":12,""src"":1,""x"":50,""y"":499},{""cat"":26,""src"":13,""x"":44,""y"":369},{""cat"":26,""src"":2,""x"":55,""y"":315},{""cat"":26,""src"":8,""x"":40,""y"":144},{""cat"":32,""src"":12,""x"":53,""y"":435},{""cat"":32,""src"":17,""x"":57,""y"":81},{""cat"":32,""src"":1,""x"":69,""y"":179}]","[{""cat"":""12"",""src"":""0"",""x"":0,""y"":0},{""cat"":""12"",""src"":""16"",""x"":0,""y"":0},{""cat"":""12"",""src"":""1"",""x"":0,""y"":0},{""cat"":""26"",""src"":""13"",""x"":0,""y"":0},{""cat"":""26"",""src"":""8"",""x"":0,""y"":0},{""cat"":""26"",""src"":""2"",""x"":0,""y"":0},{""cat"":""32"",""src"":""17"",""x"":0,""y"":0},{""cat"":""32"",""src"":""1"",""x"":0,""y"":0},{""cat"":""32"",""src"":""12"",""x"":0,""y"":0}]","[{""cat"":12,""src"":0,""loc"":0},{""cat"":12,""src"":16,""loc"":1},{""cat"":12,""src"":1,""loc"":2},{""cat"":26,""src"":13,""loc"":7},{""cat"":26,""src"":8,""loc"":6},{""cat"":26,""src"":2,""loc"":8},{""cat"":32,""src"":17,""loc"":5},{""cat"":32,""src"":1,""loc"":3},{""cat"":32,""src"":12,""loc"":4}]","0","12,12,12,32,32,32,26,26,26,0,16,1,1,12,17,8,13,2,0,1,2,3,4,5,6,7,8,0,1,2,7,8,6,4,3,5",NA
"1694","sort_feedback","75","html-keyboard-response","43","408760","0.0-3.0-25.0","3","2020-1-8 21:4:28","MOUSE",NA,NA,NA,NA,NA,NA,NA,NA,NA,NA,NA,NA,NA,NA
"19967","setup4",NA,"animation","44","428730","0.0-3.0-26.0","3","2020-1-8 21:4:28","MOUSE",NA,NA,"[{""cat"":5,""src"":10,""loc"":5},{""cat"":5,""src"":15,""loc"":8},{""cat"":5,""src"":13,""loc"":1},{""cat"":21,""src"":9,""loc"":3},{""cat"":21,""src"":2,""loc"":6},{""cat"":21,""src"":16,""loc"":0},{""cat"":14,""src"":13,""loc"":7},{""cat"":14,""src"":15,""loc"":4},{""cat"":14,""src"":12,""loc"":2}]","4","1108,1108,1102,1105,1109,1107,1111,1106,1109,10002",NA,NA,NA,NA,NA,NA,NA,NA,NA
"2361","flanker_instructions","37","html-keyboard-response","45","431100","0.0-3.0-27.0","3","2020-1-8 21:4:28","MOUSE",NA,NA,NA,NA,NA,NA,NA,NA,NA,NA,NA,NA,NA,NA
"468","flanker_test","39","image-keyboard-response","46","432579","0.0-3.0-28.0-0.0","3","2020-1-8 21:4:28","MOUSE",NA,NA,NA,NA,NA,"congruent","right","TRUE",NA,NA,NA,NA,NA,NA
"533","flanker_test","37","image-keyboard-response","47","433936","0.0-3.0-28.0-0.1","3","2020-1-8 21:4:28","MOUSE",NA,NA,NA,NA,NA,"incongruent","left","TRUE",NA,NA,NA,NA,NA,NA
"515","flanker_test","39","image-keyboard-response","48","434895","0.0-3.0-28.0-0.2","3","2020-1-8 21:4:28","MOUSE",NA,NA,NA,NA,NA,"incongruent","right","TRUE",NA,NA,NA,NA,NA,NA
"614","flanker_test","37","image-keyboard-response","49","436013","0.0-3.0-28.0-0.3","3","2020-1-8 21:4:28","MOUSE",NA,NA,NA,NA,NA,"congruent","left","TRUE",NA,NA,NA,NA,NA,NA
"22743","sort_trial",NA,"free-sort","50","459157","0.0-3.0-29.0","3","2020-1-8 21:4:28","MOUSE",NA,NA,NA,NA,NA,NA,NA,NA,"[{""cat"":5,""src"":10,""x"":28,""y"":245},{""cat"":5,""src"":15,""x"":38,""y"":326},{""cat"":5,""src"":13,""x"":4,""y"":7},{""cat"":21,""src"":9,""x"":27,""y"":61},{""cat"":21,""src"":2,""x"":42,""y"":148},{""cat"":21,""src"":16,""x"":49,""y"":182},{""cat"":14,""src"":13,""x"":77,""y"":375},{""cat"":14,""src"":15,""x"":56,""y"":490},{""cat"":14,""src"":12,""x"":39,""y"":432}]","[{""cat"":""5"",""src"":""10"",""x"":0,""y"":0},{""cat"":""14"",""src"":""15"",""x"":0,""y"":0},{""cat"":""21"",""src"":""9"",""x"":0,""y"":0},{""cat"":""21"",""src"":""16"",""x"":0,""y"":0},{""cat"":""21"",""src"":""2"",""x"":0,""y"":0},{""cat"":""14"",""src"":""12"",""x"":0,""y"":0},{""cat"":""5"",""src"":""13"",""x"":0,""y"":0},{""cat"":""5"",""src"":""15"",""x"":0,""y"":0},{""cat"":""14"",""src"":""13"",""x"":0,""y"":0}]","[{""cat"":5,""src"":10,""loc"":5},{""cat"":14,""src"":15,""loc"":4},{""cat"":21,""src"":9,""loc"":3},{""cat"":21,""src"":16,""loc"":2},{""cat"":21,""src"":2,""loc"":6},{""cat"":14,""src"":12,""loc"":7},{""cat"":5,""src"":13,""loc"":1},{""cat"":5,""src"":15,""loc"":0},{""cat"":14,""src"":13,""loc"":8}]","5","5,5,21,21,14,5,21,14,14,15,13,16,9,15,10,2,12,13,0,1,2,3,4,5,6,7,8,7,6,3,2,1,0,4,5,8",NA
"1672","sort_feedback","75","html-keyboard-response","51","460836","0.0-3.0-30.0","3","2020-1-8 21:4:28","MOUSE",NA,NA,NA,NA,NA,NA,NA,NA,NA,NA,NA,NA,NA,NA
"19961","setup3",NA,"animation","52","480800","0.0-3.0-31.0","3","2020-1-8 21:4:28","MOUSE",NA,NA,"[{""cat"":33,""src"":16,""loc"":5},{""cat"":18,""src"":17,""loc"":2},{""cat"":27,""src"":5,""loc"":6},{""cat"":27,""src"":0,""loc"":7},{""cat"":33,""src"":4,""loc"":3},{""cat"":18,""src"":13,""loc"":0},{""cat"":27,""src"":1,""loc"":8},{""cat"":18,""src"":5,""loc"":1},{""cat"":33,""src"":10,""loc"":4}]","3","1108,1104,1103,1107,1105,1111,1104,1108,1106,10005",NA,NA,NA,NA,NA,NA,NA,NA,NA
"2719","flanker_instructions","37","html-keyboard-response","53","483523","0.0-3.0-32.0","3","2020-1-8 21:4:28","MOUSE",NA,NA,NA,NA,NA,NA,NA,NA,NA,NA,NA,NA,NA,NA
"538","flanker_test","37","image-keyboard-response","54","485071","0.0-3.0-33.0-0.0","3","2020-1-8 21:4:28","MOUSE",NA,NA,NA,NA,NA,"congruent","left","TRUE",NA,NA,NA,NA,NA,NA
"490","flanker_test","39","image-keyboard-response","55","486162","0.0-3.0-33.0-0.1","3","2020-1-8 21:4:28","MOUSE",NA,NA,NA,NA,NA,"congruent","right","TRUE",NA,NA,NA,NA,NA,NA
"458","flanker_test","39","image-keyboard-response","56","487805","0.0-3.0-33.0-0.2","3","2020-1-8 21:4:28","MOUSE",NA,NA,NA,NA,NA,"incongruent","right","TRUE",NA,NA,NA,NA,NA,NA
"397","flanker_test","37","image-keyboard-response","57","488977","0.0-3.0-33.0-0.3","3","2020-1-8 21:4:28","MOUSE",NA,NA,NA,NA,NA,"incongruent","left","TRUE",NA,NA,NA,NA,NA,NA
"23218","sort_trial",NA,"free-sort","58","512797","0.0-3.0-34.0","3","2020-1-8 21:4:28","MOUSE",NA,NA,NA,NA,NA,NA,NA,NA,"[{""cat"":33,""src"":16,""x"":26,""y"":362},{""cat"":18,""src"":17,""x"":44,""y"":148},{""cat"":27,""src"":5,""x"":68,""y"":305},{""cat"":27,""src"":0,""x"":2,""y"":258},{""cat"":33,""src"":4,""x"":81,""y"":0},{""cat"":18,""src"":13,""x"":78,""y"":192},{""cat"":27,""src"":1,""x"":32,""y"":479},{""cat"":18,""src"":5,""x"":39,""y"":88},{""cat"":33,""src"":10,""x"":37,""y"":429}]","[{""cat"":""18"",""src"":""5"",""x"":0,""y"":0},{""cat"":""18"",""src"":""13"",""x"":0,""y"":0},{""cat"":""18"",""src"":""17"",""x"":0,""y"":0},{""cat"":""27"",""src"":""0"",""x"":0,""y"":0},{""cat"":""27"",""src"":""5"",""x"":0,""y"":0},{""cat"":""27"",""src"":""1"",""x"":0,""y"":0},{""cat"":""33"",""src"":""16"",""x"":0,""y"":0},{""cat"":""33"",""src"":""4"",""x"":0,""y"":0},{""cat"":""33"",""src"":""10"",""x"":0,""y"":0}]","[{""cat"":18,""src"":5,""loc"":1},{""cat"":18,""src"":13,""loc"":0},{""cat"":18,""src"":17,""loc"":2},{""cat"":27,""src"":0,""loc"":7},{""cat"":27,""src"":5,""loc"":6},{""cat"":27,""src"":1,""loc"":8},{""cat"":33,""src"":16,""loc"":5},{""cat"":33,""src"":4,""loc"":3},{""cat"":33,""src"":10,""loc"":4}]","9","18,18,18,33,33,33,27,27,27,13,5,17,4,10,16,5,0,1,0,1,2,3,4,5,6,7,8,1,0,2,7,8,6,4,3,5",NA
"2756","sort_feedback","77","html-keyboard-response","59","515560","0.0-3.0-35.0","3","2020-1-8 21:4:28","MOUSE",NA,NA,NA,NA,NA,NA,NA,NA,NA,NA,NA,NA,NA,NA
"19976","setup2",NA,"animation","60","535541","0.0-3.0-36.0","3","2020-1-8 21:4:28","MOUSE",NA,NA,"[{""cat"":30,""src"":17,""loc"":6},{""cat"":0,""src"":9,""loc"":8},{""cat"":29,""src"":4,""loc"":7},{""cat"":0,""src"":13,""loc"":2},{""cat"":30,""src"":0,""loc"":0},{""cat"":29,""src"":7,""loc"":1},{""cat"":0,""src"":10,""loc"":5},{""cat"":30,""src"":6,""loc"":4},{""cat"":29,""src"":19,""loc"":3}]","2","1119,1111,1107,1108,1105,1104,1104,1107,1108,10003",NA,NA,NA,NA,NA,NA,NA,NA,NA
"841","flanker_instructions","39","html-keyboard-response","61","536401","0.0-3.0-37.0","3","2020-1-8 21:4:28","MOUSE",NA,NA,NA,NA,NA,NA,NA,NA,NA,NA,NA,NA,NA,NA
"595","flanker_test","39","image-keyboard-response","62","538007","0.0-3.0-38.0-0.0","3","2020-1-8 21:4:28","MOUSE",NA,NA,NA,NA,NA,"congruent","right","TRUE",NA,NA,NA,NA,NA,NA
"425","flanker_test","37","image-keyboard-response","63","539474","0.0-3.0-38.0-0.1","3","2020-1-8 21:4:28","MOUSE",NA,NA,NA,NA,NA,"congruent","left","TRUE",NA,NA,NA,NA,NA,NA
"475","flanker_test","39","image-keyboard-response","64","540500","0.0-3.0-38.0-0.2","3","2020-1-8 21:4:28","MOUSE",NA,NA,NA,NA,NA,"incongruent","right","TRUE",NA,NA,NA,NA,NA,NA
"494","flanker_test","37","image-keyboard-response","65","541471","0.0-3.0-38.0-0.3","3","2020-1-8 21:4:28","MOUSE",NA,NA,NA,NA,NA,"incongruent","left","TRUE",NA,NA,NA,NA,NA,NA
"26299","sort_trial",NA,"free-sort","66","568967","0.0-3.0-39.0","3","2020-1-8 21:4:28","MOUSE",NA,NA,NA,NA,NA,NA,NA,NA,"[{""cat"":30,""src"":17,""x"":41,""y"":200},{""cat"":0,""src"":9,""x"":7,""y"":26},{""cat"":29,""src"":4,""x"":50,""y"":481},{""cat"":0,""src"":13,""x"":36,""y"":375},{""cat"":30,""src"":0,""x"":55,""y"":444},{""cat"":29,""src"":7,""x"":24,""y"":67},{""cat"":0,""src"":10,""x"":43,""y"":261},{""cat"":30,""src"":6,""x"":77,""y"":326},{""cat"":29,""src"":19,""x"":35,""y"":141}]","[{""cat"":""29"",""src"":""7"",""x"":0,""y"":0},{""cat"":""30"",""src"":""0"",""x"":0,""y"":0},{""cat"":""0"",""src"":""13"",""x"":0,""y"":0},{""cat"":""0"",""src"":""9"",""x"":0,""y"":0},{""cat"":""29"",""src"":""4"",""x"":0,""y"":0},{""cat"":""0"",""src"":""10"",""x"":43,""y"":261},{""cat"":""30"",""src"":""17"",""x"":0,""y"":0},{""cat"":""0"",""src"":""10"",""x"":0,""y"":0},{""cat"":""29"",""src"":""19"",""x"":0,""y"":0},{""cat"":""30"",""src"":""6"",""x"":0,""y"":0}]","[{""cat"":29,""src"":7,""loc"":1},{""cat"":30,""src"":0,""loc"":0},{""cat"":0,""src"":13,""loc"":2},{""cat"":0,""src"":9,""loc"":8},{""cat"":29,""src"":4,""loc"":7},{""cat"":30,""src"":17,""loc"":6},{""cat"":0,""src"":10,""loc"":5},{""cat"":29,""src"":19,""loc"":3},{""cat"":30,""src"":6,""loc"":4}]","9","30,29,0,29,30,0,30,29,0,0,7,13,19,6,10,17,4,9,0,1,2,3,4,5,6,7,8,1,0,2,7,8,6,5,4,3",NA
"1912","sort_feedback","72","html-keyboard-response","67","570883","0.0-3.0-40.0","3","2020-1-8 21:4:28","MOUSE",NA,NA,NA,NA,NA,NA,NA,NA,NA,NA,NA,NA,NA,NA
"19967","setup5",NA,"animation","68","590851","0.0-3.0-41.0","3","2020-1-8 21:4:28","MOUSE",NA,NA,"[{""cat"":19,""src"":6,""loc"":2},{""cat"":7,""src"":13,""loc"":5},{""cat"":9,""src"":16,""loc"":7},{""cat"":19,""src"":17,""loc"":6},{""cat"":9,""src"":15,""loc"":4},{""cat"":7,""src"":4,""loc"":0},{""cat"":7,""src"":12,""loc"":8},{""cat"":9,""src"":18,""loc"":1},{""cat"":19,""src"":11,""loc"":3}]","5","1108,1102,1106,1108,1106,1115,1105,1105,1109,10003",NA,NA,NA,NA,NA,NA,NA,NA,NA
"2070","flanker_instructions","39","html-keyboard-response","69","592926","0.0-3.0-42.0","3","2020-1-8 21:4:28","MOUSE",NA,NA,NA,NA,NA,NA,NA,NA,NA,NA,NA,NA,NA,NA
"598","flanker_test","39","image-keyboard-response","70","594538","0.0-3.0-43.0-0.0","3","2020-1-8 21:4:28","MOUSE",NA,NA,NA,NA,NA,"incongruent","right","TRUE",NA,NA,NA,NA,NA,NA
"376","flanker_test","39","image-keyboard-response","71","595911","0.0-3.0-43.0-0.1","3","2020-1-8 21:4:28","MOUSE",NA,NA,NA,NA,NA,"congruent","right","TRUE",NA,NA,NA,NA,NA,NA
"484","flanker_test","37","image-keyboard-response","72","597212","0.0-3.0-43.0-0.2","3","2020-1-8 21:4:28","MOUSE",NA,NA,NA,NA,NA,"incongruent","left","TRUE",NA,NA,NA,NA,NA,NA
"635","flanker_test","37","image-keyboard-response","73","598941","0.0-3.0-43.0-0.3","3","2020-1-8 21:4:28","MOUSE",NA,NA,NA,NA,NA,"congruent","left","TRUE",NA,NA,NA,NA,NA,NA
"23062","sort_trial",NA,"free-sort","74","622863","0.0-3.0-44.0","3","2020-1-8 21:4:28","MOUSE",NA,NA,NA,NA,NA,NA,NA,NA,"[{""cat"":19,""src"":6,""x"":71,""y"":131},{""cat"":7,""src"":13,""x"":8,""y"":384},{""cat"":9,""src"":16,""x"":78,""y"":185},{""cat"":19,""src"":17,""x"":30,""y"":263},{""cat"":9,""src"":15,""x"":54,""y"":496},{""cat"":7,""src"":4,""x"":57,""y"":317},{""cat"":7,""src"":12,""x"":44,""y"":424},{""cat"":9,""src"":18,""x"":77,""y"":70},{""cat"":19,""src"":11,""x"":61,""y"":13}]","[{""cat"":""9"",""src"":""16"",""x"":0,""y"":0},{""cat"":""19"",""src"":""17"",""x"":0,""y"":0},{""cat"":""7"",""src"":""12"",""x"":0,""y"":0},{""cat"":""19"",""src"":""6"",""x"":0,""y"":0},{""cat"":""7"",""src"":""13"",""x"":0,""y"":0},{""cat"":""9"",""src"":""15"",""x"":0,""y"":0},{""cat"":""19"",""src"":""11"",""x"":0,""y"":0},{""cat"":""7"",""src"":""4"",""x"":0,""y"":0},{""cat"":""9"",""src"":""18"",""x"":0,""y"":0}]","[{""cat"":9,""src"":16,""loc"":7},{""cat"":19,""src"":17,""loc"":6},{""cat"":7,""src"":12,""loc"":8},{""cat"":19,""src"":6,""loc"":2},{""cat"":7,""src"":13,""loc"":5},{""cat"":9,""src"":15,""loc"":4},{""cat"":19,""src"":11,""loc"":3},{""cat"":7,""src"":4,""loc"":0},{""cat"":9,""src"":18,""loc"":1}]","9","7,9,19,19,9,7,19,9,7,4,18,6,11,15,13,17,16,12,0,1,2,3,4,5,6,7,8,7,8,3,6,5,4,1,0,2",NA
"2297","sort_feedback","74","html-keyboard-response","75","625166","0.0-3.0-45.0","3","2020-1-8 21:4:28","MOUSE",NA,NA,NA,NA,NA,NA,NA,NA,NA,NA,NA,NA,NA,NA
"19960","setup1",NA,"animation","76","645130","0.0-3.0-46.0","3","2020-1-8 21:4:28","MOUSE",NA,NA,"[{""cat"":25,""src"":17,""loc"":1},{""cat"":25,""src"":7,""loc"":2},{""cat"":25,""src"":19,""loc"":0},{""cat"":18,""src"":6,""loc"":5},{""cat"":18,""src"":2,""loc"":4},{""cat"":18,""src"":10,""loc"":3},{""cat"":8,""src"":4,""loc"":8},{""cat"":8,""src"":9,""loc"":7},{""cat"":8,""src"":6,""loc"":6}]","1","1111,1106,1110,1103,1108,1104,1103,1105,1107,10002",NA,NA,NA,NA,NA,NA,NA,NA,NA
"2431","flanker_instructions","39","html-keyboard-response","77","647573","0.0-3.0-47.0","3","2020-1-8 21:4:28","MOUSE",NA,NA,NA,NA,NA,NA,NA,NA,NA,NA,NA,NA,NA,NA
"684","flanker_test","37","image-keyboard-response","78","649264","0.0-3.0-48.0-0.0","3","2020-1-8 21:4:28","MOUSE",NA,NA,NA,NA,NA,"incongruent","left","TRUE",NA,NA,NA,NA,NA,NA
"504","flanker_test","39","image-keyboard-response","79","650188","0.0-3.0-48.0-0.1","3","2020-1-8 21:4:28","MOUSE",NA,NA,NA,NA,NA,"incongruent","right","TRUE",NA,NA,NA,NA,NA,NA
"427","flanker_test","39","image-keyboard-response","80","651305","0.0-3.0-48.0-0.2","3","2020-1-8 21:4:28","MOUSE",NA,NA,NA,NA,NA,"congruent","right","TRUE",NA,NA,NA,NA,NA,NA
"439","flanker_test","37","image-keyboard-response","81","652625","0.0-3.0-48.0-0.3","3","2020-1-8 21:4:28","MOUSE",NA,NA,NA,NA,NA,"congruent","left","TRUE",NA,NA,NA,NA,NA,NA
"32128","sort_trial",NA,"free-sort","82","685591","0.0-3.0-49.0","3","2020-1-8 21:4:28","MOUSE",NA,NA,NA,NA,NA,NA,NA,NA,"[{""cat"":25,""src"":17,""x"":12,""y"":184},{""cat"":25,""src"":7,""x"":12,""y"":489},{""cat"":25,""src"":19,""x"":6,""y"":435},{""cat"":18,""src"":6,""x"":21,""y"":135},{""cat"":18,""src"":2,""x"":18,""y"":2},{""cat"":18,""src"":10,""x"":48,""y"":318},{""cat"":8,""src"":4,""x"":14,""y"":63},{""cat"":8,""src"":9,""x"":45,""y"":375},{""cat"":8,""src"":6,""x"":55,""y"":245}]","[{""cat"":""8"",""src"":""9"",""x"":0,""y"":0},{""cat"":""8"",""src"":""4"",""x"":0,""y"":0},{""cat"":""8"",""src"":""6"",""x"":0,""y"":0},{""cat"":""18"",""src"":""6"",""x"":0,""y"":0},{""cat"":""18"",""src"":""2"",""x"":0,""y"":0},{""cat"":""18"",""src"":""10"",""x"":0,""y"":0},{""cat"":""25"",""src"":""17"",""x"":0,""y"":0},{""cat"":""25"",""src"":""7"",""x"":0,""y"":0},{""cat"":""25"",""src"":""19"",""x"":0,""y"":0}]","[{""cat"":8,""src"":9,""loc"":7},{""cat"":8,""src"":4,""loc"":8},{""cat"":8,""src"":6,""loc"":6},{""cat"":18,""src"":6,""loc"":5},{""cat"":18,""src"":2,""loc"":4},{""cat"":18,""src"":10,""loc"":3},{""cat"":25,""src"":17,""loc"":1},{""cat"":25,""src"":7,""loc"":0},{""cat"":25,""src"":19,""loc"":2}]","7","25,25,25,18,18,18,8,8,8,7,17,19,10,2,6,6,9,4,0,1,2,3,4,5,6,7,8,7,6,8,5,4,3,2,0,1",NA
"1914","sort_feedback","73","html-keyboard-response","83","687511","0.0-3.0-50.0","3","2020-1-8 21:4:28","MOUSE",NA,NA,NA,NA,NA,NA,NA,NA,NA,NA,NA,NA,NA,NA
"19960","setup4",NA,"animation","84","707476","0.0-3.0-51.0","3","2020-1-8 21:4:28","MOUSE",NA,NA,"[{""cat"":2,""src"":11,""loc"":4},{""cat"":2,""src"":18,""loc"":1},{""cat"":2,""src"":4,""loc"":6},{""cat"":12,""src"":0,""loc"":0},{""cat"":12,""src"":17,""loc"":3},{""cat"":12,""src"":10,""loc"":7},{""cat"":20,""src"":18,""loc"":5},{""cat"":20,""src"":14,""loc"":2},{""cat"":20,""src"":7,""loc"":8}]","4","1106,1110,1105,1110,1102,1104,1103,1108,1110,10002",NA,NA,NA,NA,NA,NA,NA,NA,NA
"2171","flanker_instructions","39","html-keyboard-response","85","709656","0.0-3.0-52.0","3","2020-1-8 21:4:28","MOUSE",NA,NA,NA,NA,NA,NA,NA,NA,NA,NA,NA,NA,NA,NA
"601","flanker_test","37","image-keyboard-response","86","711266","0.0-3.0-53.0-0.0","3","2020-1-8 21:4:28","MOUSE",NA,NA,NA,NA,NA,"incongruent","left","TRUE",NA,NA,NA,NA,NA,NA
"414","flanker_test","39","image-keyboard-response","87","712686","0.0-3.0-53.0-0.1","3","2020-1-8 21:4:28","MOUSE",NA,NA,NA,NA,NA,"congruent","right","TRUE",NA,NA,NA,NA,NA,NA
"432","flanker_test","37","image-keyboard-response","88","713922","0.0-3.0-53.0-0.2","3","2020-1-8 21:4:28","MOUSE",NA,NA,NA,NA,NA,"congruent","left","TRUE",NA,NA,NA,NA,NA,NA
"731","flanker_test","39","image-keyboard-response","89","715713","0.0-3.0-53.0-0.3","3","2020-1-8 21:4:28","MOUSE",NA,NA,NA,NA,NA,"incongruent","right","TRUE",NA,NA,NA,NA,NA,NA
"23346","sort_trial",NA,"free-sort","90","740073","0.0-3.0-54.0","3","2020-1-8 21:4:28","MOUSE",NA,NA,NA,NA,NA,NA,NA,NA,"[{""cat"":2,""src"":11,""x"":78,""y"":268},{""cat"":2,""src"":18,""x"":1,""y"":447},{""cat"":2,""src"":4,""x"":56,""y"":318},{""cat"":12,""src"":0,""x"":54,""y"":80},{""cat"":12,""src"":17,""x"":57,""y"":137},{""cat"":12,""src"":10,""x"":40,""y"":8},{""cat"":20,""src"":18,""x"":2,""y"":385},{""cat"":20,""src"":14,""x"":76,""y"":481},{""cat"":20,""src"":7,""x"":47,""y"":201}]","[{""cat"":""12"",""src"":""10"",""x"":0,""y"":0},{""cat"":""2"",""src"":""4"",""x"":424,""y"":298},{""cat"":""20"",""src"":""7"",""x"":0,""y"":0},{""cat"":""2"",""src"":""4"",""x"":0,""y"":0},{""cat"":""2"",""src"":""18"",""x"":0,""y"":0},{""cat"":""2"",""src"":""11"",""x"":0,""y"":0},{""cat"":""20"",""src"":""14"",""x"":0,""y"":0},{""cat"":""12"",""src"":""17"",""x"":0,""y"":0},{""cat"":""12"",""src"":""0"",""x"":0,""y"":0},{""cat"":""20"",""src"":""18"",""x"":0,""y"":0}]","[{""cat"":12,""src"":10,""loc"":7},{""cat"":20,""src"":7,""loc"":8},{""cat"":2,""src"":4,""loc"":6},{""cat"":2,""src"":18,""loc"":1},{""cat"":2,""src"":11,""loc"":4},{""cat"":20,""src"":14,""loc"":2},{""cat"":12,""src"":17,""loc"":0},{""cat"":12,""src"":0,""loc"":5},{""cat"":20,""src"":18,""loc"":3}]","6","12,2,20,20,2,12,2,12,20,17,18,14,18,11,0,4,10,7,0,1,2,3,4,5,6,7,8,6,3,5,8,4,7,2,0,1",NA
"3977","sort_feedback","75","html-keyboard-response","91","744055","0.0-3.0-55.0","3","2020-1-8 21:4:28","MOUSE",NA,NA,NA,NA,NA,NA,NA,NA,NA,NA,NA,NA,NA,NA
"19960","setup2",NA,"animation","92","764018","0.0-3.0-56.0","3","2020-1-8 21:4:28","MOUSE",NA,NA,"[{""cat"":16,""src"":2,""loc"":0},{""cat"":12,""src"":1,""loc"":1},{""cat"":4,""src"":7,""loc"":2},{""cat"":16,""src"":12,""loc"":7},{""cat"":12,""src"":4,""loc"":8},{""cat"":4,""src"":8,""loc"":6},{""cat"":4,""src"":11,""loc"":5},{""cat"":16,""src"":10,""loc"":3},{""cat"":12,""src"":2,""loc"":4}]","2","1105,1104,1104,1107,1111,1106,1105,1106,1108,10004",NA,NA,NA,NA,NA,NA,NA,NA,NA
"1984","flanker_instructions","39","html-keyboard-response","93","766012","0.0-3.0-57.0","3","2020-1-8 21:4:28","MOUSE",NA,NA,NA,NA,NA,NA,NA,NA,NA,NA,NA,NA,NA,NA
"486","flanker_test","37","image-keyboard-response","94","767509","0.0-3.0-58.0-0.0","3","2020-1-8 21:4:28","MOUSE",NA,NA,NA,NA,NA,"congruent","left","TRUE",NA,NA,NA,NA,NA,NA
"665","flanker_test","37","image-keyboard-response","95","768603","0.0-3.0-58.0-0.1","3","2020-1-8 21:4:28","MOUSE",NA,NA,NA,NA,NA,"incongruent","left","TRUE",NA,NA,NA,NA,NA,NA
"404","flanker_test","39","image-keyboard-response","96","769374","0.0-3.0-58.0-0.2","3","2020-1-8 21:4:28","MOUSE",NA,NA,NA,NA,NA,"incongruent","right","TRUE",NA,NA,NA,NA,NA,NA
"597","flanker_test","39","image-keyboard-response","97","770513","0.0-3.0-58.0-0.3","3","2020-1-8 21:4:28","MOUSE",NA,NA,NA,NA,NA,"congruent","right","TRUE",NA,NA,NA,NA,NA,NA
"25523","sort_trial",NA,"free-sort","98","797234","0.0-3.0-59.0","3","2020-1-8 21:4:28","MOUSE",NA,NA,NA,NA,NA,NA,NA,NA,"[{""cat"":16,""src"":2,""x"":52,""y"":146},{""cat"":12,""src"":1,""x"":14,""y"":77},{""cat"":4,""src"":7,""x"":64,""y"":504},{""cat"":16,""src"":12,""x"":71,""y"":29},{""cat"":12,""src"":4,""x"":33,""y"":260},{""cat"":4,""src"":8,""x"":60,""y"":366},{""cat"":4,""src"":11,""x"":28,""y"":439},{""cat"":16,""src"":10,""x"":78,""y"":193},{""cat"":12,""src"":2,""x"":49,""y"":318}]","[{""cat"":""4"",""src"":""7"",""x"":0,""y"":0},{""cat"":""4"",""src"":""8"",""x"":0,""y"":0},{""cat"":""4"",""src"":""11"",""x"":0,""y"":0},{""cat"":""16"",""src"":""12"",""x"":0,""y"":0},{""cat"":""12"",""src"":""1"",""x"":0,""y"":0},{""cat"":""12"",""src"":""2"",""x"":0,""y"":0},{""cat"":""16"",""src"":""10"",""x"":0,""y"":0},{""cat"":""12"",""src"":""4"",""x"":0,""y"":0},{""cat"":""16"",""src"":""2"",""x"":0,""y"":0}]","[{""cat"":4,""src"":7,""loc"":2},{""cat"":4,""src"":8,""loc"":6},{""cat"":4,""src"":11,""loc"":5},{""cat"":16,""src"":12,""loc"":0},{""cat"":12,""src"":1,""loc"":1},{""cat"":12,""src"":2,""loc"":4},{""cat"":16,""src"":10,""loc"":3},{""cat"":12,""src"":4,""loc"":7},{""cat"":16,""src"":2,""loc"":8}]","6","16,12,4,16,12,4,4,12,16,12,1,7,10,2,11,8,4,2,0,1,2,3,4,5,6,7,8,3,4,0,6,5,2,1,7,8",NA
"64381","sort_feedback","75","html-keyboard-response","99","861622","0.0-3.0-60.0","3","2020-1-8 21:4:28","MOUSE",NA,NA,NA,NA,NA,NA,NA,NA,NA,NA,NA,NA,NA,NA
"19962","setup5",NA,"animation","100","881585","0.0-3.0-61.0","3","2020-1-8 21:4:28","MOUSE",NA,NA,"[{""cat"":7,""src"":5,""loc"":8},{""cat"":17,""src"":5,""loc"":4},{""cat"":27,""src"":8,""loc"":0},{""cat"":7,""src"":18,""loc"":5},{""cat"":27,""src"":5,""loc"":6},{""cat"":17,""src"":2,""loc"":1},{""cat"":7,""src"":12,""loc"":2},{""cat"":17,""src"":18,""loc"":7},{""cat"":27,""src"":0,""loc"":3}]","5","1109,1104,1104,1108,1105,1106,1111,1108,1106,10001",NA,NA,NA,NA,NA,NA,NA,NA,NA
"1986","flanker_instructions","39","html-keyboard-response","101","883578","0.0-3.0-62.0","3","2020-1-8 21:4:28","MOUSE",NA,NA,NA,NA,NA,NA,NA,NA,NA,NA,NA,NA,NA,NA
"467","flanker_test","39","image-keyboard-response","102","885051","0.0-3.0-63.0-0.0","3","2020-1-8 21:4:28","MOUSE",NA,NA,NA,NA,NA,"congruent","right","TRUE",NA,NA,NA,NA,NA,NA
"454","flanker_test","37","image-keyboard-response","103","886112","0.0-3.0-63.0-0.1","3","2020-1-8 21:4:28","MOUSE",NA,NA,NA,NA,NA,"incongruent","left","TRUE",NA,NA,NA,NA,NA,NA
"522","flanker_test","39","image-keyboard-response","104","886944","0.0-3.0-63.0-0.2","3","2020-1-8 21:4:28","MOUSE",NA,NA,NA,NA,NA,"incongruent","right","TRUE",NA,NA,NA,NA,NA,NA
"400","flanker_test","37","image-keyboard-response","105","888097","0.0-3.0-63.0-0.3","3","2020-1-8 21:4:28","MOUSE",NA,NA,NA,NA,NA,"congruent","left","TRUE",NA,NA,NA,NA,NA,NA
"21132","sort_trial",NA,"free-sort","106","910292","0.0-3.0-64.0","3","2020-1-8 21:4:28","MOUSE",NA,NA,NA,NA,NA,NA,NA,NA,"[{""cat"":7,""src"":5,""x"":54,""y"":372},{""cat"":17,""src"":5,""x"":22,""y"":313},{""cat"":27,""src"":8,""x"":7,""y"":242},{""cat"":7,""src"":18,""x"":52,""y"":423},{""cat"":27,""src"":5,""x"":15,""y"":86},{""cat"":17,""src"":2,""x"":78,""y"":120},{""cat"":7,""src"":12,""x"":55,""y"":502},{""cat"":17,""src"":18,""x"":3,""y"":13},{""cat"":27,""src"":0,""x"":61,""y"":185}]","[{""cat"":""7"",""src"":""18"",""x"":0,""y"":0},{""cat"":""17"",""src"":""5"",""x"":0,""y"":0},{""cat"":""27"",""src"":""8"",""x"":0,""y"":0},{""cat"":""27"",""src"":""0"",""x"":0,""y"":0},{""cat"":""7"",""src"":""5"",""x"":0,""y"":0},{""cat"":""7"",""src"":""12"",""x"":0,""y"":0},{""cat"":""27"",""src"":""5"",""x"":0,""y"":0},{""cat"":""17"",""src"":""2"",""x"":0,""y"":0},{""cat"":""17"",""src"":""18"",""x"":0,""y"":0}]","[{""cat"":7,""src"":18,""loc"":5},{""cat"":17,""src"":5,""loc"":4},{""cat"":27,""src"":8,""loc"":2},{""cat"":27,""src"":0,""loc"":3},{""cat"":7,""src"":5,""loc"":8},{""cat"":7,""src"":12,""loc"":1},{""cat"":27,""src"":5,""loc"":0},{""cat"":17,""src"":2,""loc"":6},{""cat"":17,""src"":18,""loc"":7}]","5","27,7,27,27,17,7,17,17,7,5,12,8,0,5,18,2,18,5,0,1,2,3,4,5,6,7,8,6,5,2,3,1,0,7,8,4",NA
"780","sort_feedback","74","html-keyboard-response","107","911078","0.0-3.0-65.0","3","2020-1-8 21:4:28","MOUSE",NA,NA,NA,NA,NA,NA,NA,NA,NA,NA,NA,NA,NA,NA
"19954","setup1",NA,"animation","108","931033","0.0-3.0-66.0","3","2020-1-8 21:4:28","MOUSE",NA,NA,"[{""cat"":4,""src"":9,""loc"":7},{""cat"":4,""src"":16,""loc"":6},{""cat"":4,""src"":13,""loc"":8},{""cat"":28,""src"":10,""loc"":5},{""cat"":28,""src"":14,""loc"":3},{""cat"":28,""src"":7,""loc"":4},{""cat"":29,""src"":7,""loc"":1},{""cat"":29,""src"":4,""loc"":0},{""cat"":29,""src"":19,""loc"":2}]","1","1107,1102,1107,1107,1105,1105,1106,1104,1108,10003",NA,NA,NA,NA,NA,NA,NA,NA,NA
"797","flanker_instructions","39","html-keyboard-response","109","931842","0.0-3.0-67.0","3","2020-1-8 21:4:28","MOUSE",NA,NA,NA,NA,NA,NA,NA,NA,NA,NA,NA,NA,NA,NA
"582","flanker_test","39","image-keyboard-response","110","933434","0.0-3.0-68.0-0.0","3","2020-1-8 21:4:28","MOUSE",NA,NA,NA,NA,NA,"congruent","right","TRUE",NA,NA,NA,NA,NA,NA
"493","flanker_test","37","image-keyboard-response","111","935076","0.0-3.0-68.0-0.1","3","2020-1-8 21:4:28","MOUSE",NA,NA,NA,NA,NA,"incongruent","left","TRUE",NA,NA,NA,NA,NA,NA
"595","flanker_test","39","image-keyboard-response","112","936524","0.0-3.0-68.0-0.2","3","2020-1-8 21:4:28","MOUSE",NA,NA,NA,NA,NA,"incongruent","right","TRUE",NA,NA,NA,NA,NA,NA
"574","flanker_test","37","image-keyboard-response","113","937793","0.0-3.0-68.0-0.3","3","2020-1-8 21:4:28","MOUSE",NA,NA,NA,NA,NA,"congruent","left","TRUE",NA,NA,NA,NA,NA,NA
"25380","sort_trial",NA,"free-sort","114","963736","0.0-3.0-69.0","3","2020-1-8 21:4:28","MOUSE",NA,NA,NA,NA,NA,NA,NA,NA,"[{""cat"":4,""src"":9,""x"":72,""y"":141},{""cat"":4,""src"":16,""x"":4,""y"":198},{""cat"":4,""src"":13,""x"":33,""y"":306},{""cat"":28,""src"":10,""x"":83,""y"":65},{""cat"":28,""src"":14,""x"":80,""y"":388},{""cat"":28,""src"":7,""x"":24,""y"":255},{""cat"":29,""src"":7,""x"":3,""y"":8},{""cat"":29,""src"":4,""x"":37,""y"":439},{""cat"":29,""src"":19,""x"":61,""y"":495}]","[{""cat"":""4"",""src"":""9"",""x"":0,""y"":0},{""cat"":""4"",""src"":""16"",""x"":0,""y"":0},{""cat"":""4"",""src"":""13"",""x"":0,""y"":0},{""cat"":""28"",""src"":""14"",""x"":0,""y"":0},{""cat"":""28"",""src"":""7"",""x"":0,""y"":0},{""cat"":""28"",""src"":""10"",""x"":0,""y"":0},{""cat"":""29"",""src"":""7"",""x"":0,""y"":0},{""cat"":""29"",""src"":""4"",""x"":0,""y"":0},{""cat"":""29"",""src"":""19"",""x"":0,""y"":0}]","[{""cat"":4,""src"":9,""loc"":7},{""cat"":4,""src"":16,""loc"":6},{""cat"":4,""src"":13,""loc"":8},{""cat"":28,""src"":14,""loc"":3},{""cat"":28,""src"":7,""loc"":4},{""cat"":28,""src"":10,""loc"":5},{""cat"":29,""src"":7,""loc"":1},{""cat"":29,""src"":4,""loc"":0},{""cat"":29,""src"":19,""loc"":2}]","9","29,29,29,28,28,28,4,4,4,4,7,19,14,7,10,16,9,13,0,1,2,3,4,5,6,7,8,7,6,8,3,4,5,1,0,2",NA
"871","sort_feedback","75","html-keyboard-response","115","964612","0.0-3.0-70.0","3","2020-1-8 21:4:28","MOUSE",NA,NA,NA,NA,NA,NA,NA,NA,NA,NA,NA,NA,NA,NA
"19973","setup3",NA,"animation","116","984589","0.0-3.0-71.0","3","2020-1-8 21:4:28","MOUSE",NA,NA,"[{""cat"":12,""src"":0,""loc"":4},{""cat"":26,""src"":7,""loc"":6},{""cat"":1,""src"":3,""loc"":2},{""cat"":1,""src"":10,""loc"":1},{""cat"":26,""src"":14,""loc"":7},{""cat"":12,""src"":1,""loc"":5},{""cat"":1,""src"":0,""loc"":0},{""cat"":26,""src"":1,""loc"":8},{""cat"":12,""src"":3,""loc"":3}]","3","1109,1107,1107,1106,1106,1109,1108,1109,1108,10004",NA,NA,NA,NA,NA,NA,NA,NA,NA
"1438","flanker_instructions","39","html-keyboard-response","117","986032","0.0-3.0-72.0","3","2020-1-8 21:4:28","MOUSE",NA,NA,NA,NA,NA,NA,NA,NA,NA,NA,NA,NA,NA,NA
"633","flanker_test","39","image-keyboard-response","118","987678","0.0-3.0-73.0-0.0","3","2020-1-8 21:4:28","MOUSE",NA,NA,NA,NA,NA,"congruent","right","TRUE",NA,NA,NA,NA,NA,NA
"624","flanker_test","39","image-keyboard-response","119","988916","0.0-3.0-73.0-0.1","3","2020-1-8 21:4:28","MOUSE",NA,NA,NA,NA,NA,"incongruent","right","TRUE",NA,NA,NA,NA,NA,NA
"492","flanker_test","37","image-keyboard-response","120","990052","0.0-3.0-73.0-0.2","3","2020-1-8 21:4:28","MOUSE",NA,NA,NA,NA,NA,"congruent","left","TRUE",NA,NA,NA,NA,NA,NA
"608","flanker_test","37","image-keyboard-response","121","991070","0.0-3.0-73.0-0.3","3","2020-1-8 21:4:28","MOUSE",NA,NA,NA,NA,NA,"incongruent","left","TRUE",NA,NA,NA,NA,NA,NA
"19321","sort_trial",NA,"free-sort","122","1011562","0.0-3.0-74.0","3","2020-1-8 21:4:28","MOUSE",NA,NA,NA,NA,NA,NA,NA,NA,"[{""cat"":12,""src"":0,""x"":58,""y"":441},{""cat"":26,""src"":7,""x"":37,""y"":371},{""cat"":1,""src"":3,""x"":23,""y"":307},{""cat"":1,""src"":10,""x"":73,""y"":7},{""cat"":26,""src"":14,""x"":12,""y"":242},{""cat"":12,""src"":1,""x"":7,""y"":492},{""cat"":1,""src"":0,""x"":67,""y"":135},{""cat"":26,""src"":1,""x"":33,""y"":66},{""cat"":12,""src"":3,""x"":36,""y"":185}]","[{""cat"":""1"",""src"":""10"",""x"":0,""y"":0},{""cat"":""1"",""src"":""0"",""x"":0,""y"":0},{""cat"":""26"",""src"":""1"",""x"":0,""y"":0},{""cat"":""26"",""src"":""14"",""x"":0,""y"":0},{""cat"":""26"",""src"":""7"",""x"":0,""y"":0},{""cat"":""12"",""src"":""0"",""x"":0,""y"":0},{""cat"":""12"",""src"":""1"",""x"":0,""y"":0},{""cat"":""1"",""src"":""3"",""x"":0,""y"":0},{""cat"":""12"",""src"":""3"",""x"":0,""y"":0}]","[{""cat"":1,""src"":10,""loc"":1},{""cat"":1,""src"":0,""loc"":0},{""cat"":26,""src"":1,""loc"":2},{""cat"":26,""src"":14,""loc"":6},{""cat"":26,""src"":7,""loc"":8},{""cat"":12,""src"":0,""loc"":4},{""cat"":12,""src"":1,""loc"":5},{""cat"":1,""src"":3,""loc"":7},{""cat"":12,""src"":3,""loc"":3}]","5","1,1,26,12,12,12,26,1,26,0,10,1,3,0,1,14,3,7,0,1,2,3,4,5,6,7,8,1,0,2,8,5,6,3,7,4",NA
"681","sort_feedback","75","html-keyboard-response","123","1012254","0.0-3.0-75.0","3","2020-1-8 21:4:28","MOUSE",NA,NA,NA,NA,NA,NA,NA,NA,NA,NA,NA,NA,NA,NA
"19962","setup2",NA,"animation","124","1032223","0.0-3.0-76.0","3","2020-1-8 21:4:28","MOUSE",NA,NA,"[{""cat"":5,""src"":3,""loc"":0},{""cat"":11,""src"":8,""loc"":1},{""cat"":30,""src"":19,""loc"":2},{""cat"":11,""src"":0,""loc"":4},{""cat"":30,""src"":12,""loc"":3},{""cat"":5,""src"":4,""loc"":5},{""cat"":11,""src"":7,""loc"":8},{""cat"":30,""src"":16,""loc"":6},{""cat"":5,""src"":9,""loc"":7}]","2","1112,1104,1105,1105,1105,1106,1106,1105,1112,10002",NA,NA,NA,NA,NA,NA,NA,NA,NA
"906","flanker_instructions","39","html-keyboard-response","125","1033137","0.0-3.0-77.0","3","2020-1-8 21:4:28","MOUSE",NA,NA,NA,NA,NA,NA,NA,NA,NA,NA,NA,NA,NA,NA
"566","flanker_test","37","image-keyboard-response","126","1034707","0.0-3.0-78.0-0.0","3","2020-1-8 21:4:28","MOUSE",NA,NA,NA,NA,NA,"congruent","left","TRUE",NA,NA,NA,NA,NA,NA
"481","flanker_test","39","image-keyboard-response","127","1036297","0.0-3.0-78.0-0.1","3","2020-1-8 21:4:28","MOUSE",NA,NA,NA,NA,NA,"incongruent","right","TRUE",NA,NA,NA,NA,NA,NA
"578","flanker_test","37","image-keyboard-response","128","1038068","0.0-3.0-78.0-0.2","3","2020-1-8 21:4:28","MOUSE",NA,NA,NA,NA,NA,"incongruent","left","TRUE",NA,NA,NA,NA,NA,NA
"601","flanker_test","39","image-keyboard-response","129","1039003","0.0-3.0-78.0-0.3","3","2020-1-8 21:4:28","MOUSE",NA,NA,NA,NA,NA,"congruent","right","TRUE",NA,NA,NA,NA,NA,NA
"30625","sort_trial",NA,"free-sort","130","1070328","0.0-3.0-79.0","3","2020-1-8 21:4:28","MOUSE",NA,NA,NA,NA,NA,NA,NA,NA,"[{""cat"":5,""src"":3,""x"":24,""y"":424},{""cat"":11,""src"":8,""x"":38,""y"":198},{""cat"":30,""src"":19,""x"":47,""y"":134},{""cat"":11,""src"":0,""x"":12,""y"":245},{""cat"":30,""src"":12,""x"":74,""y"":371},{""cat"":5,""src"":4,""x"":77,""y"":3},{""cat"":11,""src"":7,""x"":54,""y"":324},{""cat"":30,""src"":16,""x"":52,""y"":68},{""cat"":5,""src"":9,""x"":15,""y"":500}]","[{""cat"":""11"",""src"":""8"",""x"":0,""y"":0},{""cat"":""5"",""src"":""3"",""x"":0,""y"":0},{""cat"":""30"",""src"":""19"",""x"":0,""y"":0},{""cat"":""11"",""src"":""0"",""x"":-20,""y"":227},{""cat"":""5"",""src"":""9"",""x"":0,""y"":0},{""cat"":""30"",""src"":""16"",""x"":0,""y"":0},{""cat"":""11"",""src"":""0"",""x"":0,""y"":0},{""cat"":""11"",""src"":""7"",""x"":0,""y"":0},{""cat"":""5"",""src"":""4"",""x"":0,""y"":0},{""cat"":""30"",""src"":""12"",""x"":0,""y"":0}]","[{""cat"":11,""src"":8,""loc"":1},{""cat"":5,""src"":3,""loc"":0},{""cat"":30,""src"":19,""loc"":2},{""cat"":5,""src"":9,""loc"":7},{""cat"":30,""src"":16,""loc"":6},{""cat"":11,""src"":0,""loc"":4},{""cat"":11,""src"":7,""loc"":8},{""cat"":5,""src"":4,""loc"":5},{""cat"":30,""src"":12,""loc"":3}]","9","5,11,30,30,11,5,30,5,11,3,8,19,12,0,4,16,9,7,0,1,2,3,4,5,6,7,8,1,0,2,8,5,7,4,3,6",NA
"1126","sort_feedback","74","html-keyboard-response","131","1071460","0.0-3.0-80.0","3","2020-1-8 21:4:28","MOUSE",NA,NA,NA,NA,NA,NA,NA,NA,NA,NA,NA,NA,NA,NA
"19966","setup3",NA,"animation","132","1091429","0.0-3.0-81.0","3","2020-1-8 21:4:28","MOUSE",NA,NA,"[{""cat"":32,""src"":19,""loc"":6},{""cat"":4,""src"":15,""loc"":3},{""cat"":15,""src"":9,""loc"":1},{""cat"":4,""src"":3,""loc"":5},{""cat"":32,""src"":6,""loc"":8},{""cat"":15,""src"":12,""loc"":0},{""cat"":32,""src"":2,""loc"":7},{""cat"":15,""src"":3,""loc"":2},{""cat"":4,""src"":5,""loc"":4}]","3","1110,1105,1109,1105,1105,1107,1105,1109,1109,10002",NA,NA,NA,NA,NA,NA,NA,NA,NA
"1740","flanker_instructions","39","html-keyboard-response","133","1093176","0.0-3.0-82.0","3","2020-1-8 21:4:28","MOUSE",NA,NA,NA,NA,NA,NA,NA,NA,NA,NA,NA,NA,NA,NA
"641","flanker_test","39","image-keyboard-response","134","1094829","0.0-3.0-83.0-0.0","3","2020-1-8 21:4:28","MOUSE",NA,NA,NA,NA,NA,"congruent","right","TRUE",NA,NA,NA,NA,NA,NA
"575","flanker_test","37","image-keyboard-response","135","1096441","0.0-3.0-83.0-0.1","3","2020-1-8 21:4:28","MOUSE",NA,NA,NA,NA,NA,"incongruent","left","TRUE",NA,NA,NA,NA,NA,NA
"486","flanker_test","39","image-keyboard-response","136","1097694","0.0-3.0-83.0-0.2","3","2020-1-8 21:4:28","MOUSE",NA,NA,NA,NA,NA,"incongruent","right","TRUE",NA,NA,NA,NA,NA,NA
"457","flanker_test","37","image-keyboard-response","137","1099124","0.0-3.0-83.0-0.3","3","2020-1-8 21:4:28","MOUSE",NA,NA,NA,NA,NA,"congruent","left","TRUE",NA,NA,NA,NA,NA,NA
"22857","sort_trial",NA,"free-sort","138","1122810","0.0-3.0-84.0","3","2020-1-8 21:4:28","MOUSE",NA,NA,NA,NA,NA,NA,NA,NA,"[{""cat"":32,""src"":19,""x"":59,""y"":13},{""cat"":4,""src"":15,""x"":64,""y"":143},{""cat"":15,""src"":9,""x"":83,""y"":448},{""cat"":4,""src"":3,""x"":74,""y"":301},{""cat"":32,""src"":6,""x"":57,""y"":81},{""cat"":15,""src"":12,""x"":56,""y"":197},{""cat"":32,""src"":2,""x"":56,""y"":493},{""cat"":15,""src"":3,""x"":46,""y"":258},{""cat"":4,""src"":5,""x"":9,""y"":369}]","[{""cat"":""15"",""src"":""3"",""x"":0,""y"":0},{""cat"":""4"",""src"":""3"",""x"":0,""y"":0},{""cat"":""4"",""src"":""5"",""x"":0,""y"":0},{""cat"":""32"",""src"":""2"",""x"":0,""y"":0},{""cat"":""15"",""src"":""9"",""x"":0,""y"":0},{""cat"":""32"",""src"":""19"",""x"":0,""y"":0},{""cat"":""32"",""src"":""6"",""x"":0,""y"":0},{""cat"":""4"",""src"":""15"",""x"":0,""y"":0},{""cat"":""15"",""src"":""12"",""x"":0,""y"":0}]","[{""cat"":15,""src"":3,""loc"":2},{""cat"":4,""src"":3,""loc"":5},{""cat"":4,""src"":5,""loc"":4},{""cat"":32,""src"":2,""loc"":7},{""cat"":15,""src"":9,""loc"":1},{""cat"":32,""src"":19,""loc"":6},{""cat"":32,""src"":6,""loc"":8},{""cat"":4,""src"":15,""loc"":3},{""cat"":15,""src"":12,""loc"":0}]","9","15,15,15,4,4,4,32,32,32,12,9,3,15,5,3,19,2,6,0,1,2,3,4,5,6,7,8,8,4,0,7,2,1,5,3,6",NA
"1302","sort_feedback","74","html-keyboard-response","139","1124118","0.0-3.0-85.0","3","2020-1-8 21:4:28","MOUSE",NA,NA,NA,NA,NA,NA,NA,NA,NA,NA,NA,NA,NA,NA
"19967","setup4",NA,"animation","140","1144086","0.0-3.0-86.0","3","2020-1-8 21:4:28","MOUSE",NA,NA,"[{""cat"":2,""src"":7,""loc"":1},{""cat"":2,""src"":10,""loc"":3},{""cat"":2,""src"":12,""loc"":7},{""cat"":19,""src"":12,""loc"":0},{""cat"":19,""src"":1,""loc"":5},{""cat"":19,""src"":15,""loc"":6},{""cat"":8,""src"":17,""loc"":2},{""cat"":8,""src"":2,""loc"":4},{""cat"":8,""src"":1,""loc"":8}]","4","1112,1107,1104,1107,1107,1108,1107,1107,1107,10000",NA,NA,NA,NA,NA,NA,NA,NA,NA
"726","flanker_instructions","39","html-keyboard-response","141","1144815","0.0-3.0-87.0","3","2020-1-8 21:4:28","MOUSE",NA,NA,NA,NA,NA,NA,NA,NA,NA,NA,NA,NA,NA,NA
"553","flanker_test","37","image-keyboard-response","142","1146379","0.0-3.0-88.0-0.0","3","2020-1-8 21:4:28","MOUSE",NA,NA,NA,NA,NA,"incongruent","left","TRUE",NA,NA,NA,NA,NA,NA
"527","flanker_test","37","image-keyboard-response","143","1147440","0.0-3.0-88.0-0.1","3","2020-1-8 21:4:28","MOUSE",NA,NA,NA,NA,NA,"congruent","left","TRUE",NA,NA,NA,NA,NA,NA
"596","flanker_test","39","image-keyboard-response","144","1148764","0.0-3.0-88.0-0.2","3","2020-1-8 21:4:28","MOUSE",NA,NA,NA,NA,NA,"incongruent","right","TRUE",NA,NA,NA,NA,NA,NA
"446","flanker_test","39","image-keyboard-response","145","1150233","0.0-3.0-88.0-0.3","3","2020-1-8 21:4:28","MOUSE",NA,NA,NA,NA,NA,"congruent","right","TRUE",NA,NA,NA,NA,NA,NA
"25748","sort_trial",NA,"free-sort","146","1176746","0.0-3.0-89.0","3","2020-1-8 21:4:28","MOUSE",NA,NA,NA,NA,NA,NA,NA,NA,"[{""cat"":2,""src"":7,""x"":12,""y"":385},{""cat"":2,""src"":10,""x"":47,""y"":143},{""cat"":2,""src"":12,""x"":38,""y"":256},{""cat"":19,""src"":12,""x"":36,""y"":82},{""cat"":19,""src"":1,""x"":35,""y"":505},{""cat"":19,""src"":15,""x"":83,""y"":14},{""cat"":8,""src"":17,""x"":44,""y"":304},{""cat"":8,""src"":2,""x"":47,""y"":448},{""cat"":8,""src"":1,""x"":40,""y"":196}]","[{""cat"":""2"",""src"":""7"",""x"":0,""y"":0},{""cat"":""19"",""src"":""12"",""x"":0,""y"":0},{""cat"":""8"",""src"":""17"",""x"":0,""y"":0},{""cat"":""8"",""src"":""1"",""x"":0,""y"":0},{""cat"":""2"",""src"":""12"",""x"":0,""y"":0},{""cat"":""2"",""src"":""10"",""x"":0,""y"":0},{""cat"":""19"",""src"":""1"",""x"":0,""y"":0},{""cat"":""19"",""src"":""15"",""x"":0,""y"":0},{""cat"":""8"",""src"":""2"",""x"":0,""y"":0}]","[{""cat"":2,""src"":7,""loc"":1},{""cat"":19,""src"":12,""loc"":0},{""cat"":8,""src"":17,""loc"":2},{""cat"":8,""src"":1,""loc"":6},{""cat"":2,""src"":12,""loc"":7},{""cat"":2,""src"":10,""loc"":4},{""cat"":19,""src"":1,""loc"":3},{""cat"":19,""src"":15,""loc"":8},{""cat"":8,""src"":2,""loc"":5}]","4","19,2,8,19,2,8,8,2,19,12,7,17,1,10,2,1,12,15,0,1,2,3,4,5,6,7,8,1,0,2,6,5,8,3,4,7",NA
"1115","sort_feedback","75","html-keyboard-response","147","1177867","0.0-3.0-90.0","3","2020-1-8 21:4:28","MOUSE",NA,NA,NA,NA,NA,NA,NA,NA,NA,NA,NA,NA,NA,NA
"19963","setup1",NA,"animation","148","1197831","0.0-3.0-91.0","3","2020-1-8 21:4:28","MOUSE",NA,NA,"[{""cat"":24,""src"":5,""loc"":8},{""cat"":24,""src"":14,""loc"":7},{""cat"":24,""src"":9,""loc"":6},{""cat"":0,""src"":1,""loc"":0},{""cat"":0,""src"":4,""loc"":1},{""cat"":0,""src"":16,""loc"":2},{""cat"":9,""src"":10,""loc"":3},{""cat"":9,""src"":9,""loc"":4},{""cat"":9,""src"":13,""loc"":5}]","1","1107,1107,1106,1106,1106,1109,1104,1108,1109,10001",NA,NA,NA,NA,NA,NA,NA,NA,NA
"597","flanker_instructions","39","html-keyboard-response","149","1198432","0.0-3.0-92.0","3","2020-1-8 21:4:28","MOUSE",NA,NA,NA,NA,NA,NA,NA,NA,NA,NA,NA,NA,NA,NA
"691","flanker_test","39","image-keyboard-response","150","1200128","0.0-3.0-93.0-0.0","3","2020-1-8 21:4:28","MOUSE",NA,NA,NA,NA,NA,"congruent","right","TRUE",NA,NA,NA,NA,NA,NA
"467","flanker_test","37","image-keyboard-response","151","1201342","0.0-3.0-93.0-0.1","3","2020-1-8 21:4:28","MOUSE",NA,NA,NA,NA,NA,"incongruent","right","FALSE",NA,NA,NA,NA,NA,NA
"496","flanker_test","37","image-keyboard-response","152","1202672","0.0-3.0-93.0-0.2","3","2020-1-8 21:4:28","MOUSE",NA,NA,NA,NA,NA,"incongruent","left","TRUE",NA,NA,NA,NA,NA,NA
"513","flanker_test","37","image-keyboard-response","153","1203573","0.0-3.0-93.0-0.3","3","2020-1-8 21:4:28","MOUSE",NA,NA,NA,NA,NA,"congruent","left","TRUE",NA,NA,NA,NA,NA,NA
"23278","sort_trial",NA,"free-sort","154","1227251","0.0-3.0-94.0","3","2020-1-8 21:4:28","MOUSE",NA,NA,NA,NA,NA,NA,NA,NA,"[{""cat"":24,""src"":5,""x"":7,""y"":323},{""cat"":24,""src"":14,""x"":49,""y"":136},{""cat"":24,""src"":9,""x"":9,""y"":2},{""cat"":0,""src"":1,""x"":22,""y"":79},{""cat"":0,""src"":4,""x"":5,""y"":446},{""cat"":0,""src"":16,""x"":4,""y"":373},{""cat"":9,""src"":10,""x"":9,""y"":488},{""cat"":9,""src"":9,""x"":5,""y"":184},{""cat"":9,""src"":13,""x"":38,""y"":254}]","[{""cat"":""9"",""src"":""13"",""x"":0,""y"":0},{""cat"":""9"",""src"":""9"",""x"":0,""y"":0},{""cat"":""9"",""src"":""10"",""x"":0,""y"":0},{""cat"":""0"",""src"":""4"",""x"":0,""y"":0},{""cat"":""0"",""src"":""1"",""x"":0,""y"":0},{""cat"":""0"",""src"":""16"",""x"":0,""y"":0},{""cat"":""24"",""src"":""5"",""x"":0,""y"":0},{""cat"":""24"",""src"":""9"",""x"":0,""y"":0},{""cat"":""24"",""src"":""14"",""x"":0,""y"":0}]","[{""cat"":9,""src"":13,""loc"":5},{""cat"":9,""src"":9,""loc"":4},{""cat"":9,""src"":10,""loc"":3},{""cat"":0,""src"":4,""loc"":1},{""cat"":0,""src"":1,""loc"":0},{""cat"":0,""src"":16,""loc"":2},{""cat"":24,""src"":5,""loc"":8},{""cat"":24,""src"":9,""loc"":6},{""cat"":24,""src"":14,""loc"":7}]","9","0,0,0,9,9,9,24,24,24,1,4,16,10,9,13,9,14,5,0,1,2,3,4,5,6,7,8,4,3,5,2,1,0,7,8,6",NA
"1035","sort_feedback","74","html-keyboard-response","155","1228295","0.0-3.0-95.0","3","2020-1-8 21:4:28","MOUSE",NA,NA,NA,NA,NA,NA,NA,NA,NA,NA,NA,NA,NA,NA
"19957","setup5",NA,"animation","156","1248258","0.0-3.0-96.0","3","2020-1-8 21:4:28","MOUSE",NA,NA,"[{""cat"":21,""src"":8,""loc"":4},{""cat"":22,""src"":6,""loc"":6},{""cat"":18,""src"":12,""loc"":0},{""cat"":18,""src"":15,""loc"":8},{""cat"":22,""src"":5,""loc"":3},{""cat"":21,""src"":13,""loc"":2},{""cat"":18,""src"":3,""loc"":5},{""cat"":21,""src"":11,""loc"":7},{""cat"":22,""src"":17,""loc"":1}]","5","1114,1106,1104,1105,1107,1102,1104,1104,1106,10004",NA,NA,NA,NA,NA,NA,NA,NA,NA
"1858","flanker_instructions","39","html-keyboard-response","157","1250127","0.0-3.0-97.0","3","2020-1-8 21:4:28","MOUSE",NA,NA,NA,NA,NA,NA,NA,NA,NA,NA,NA,NA,NA,NA
"612","flanker_test","37","image-keyboard-response","158","1251748","0.0-3.0-98.0-0.0","3","2020-1-8 21:4:28","MOUSE",NA,NA,NA,NA,NA,"congruent","left","TRUE",NA,NA,NA,NA,NA,NA
"469","flanker_test","39","image-keyboard-response","159","1253061","0.0-3.0-98.0-0.1","3","2020-1-8 21:4:28","MOUSE",NA,NA,NA,NA,NA,"congruent","right","TRUE",NA,NA,NA,NA,NA,NA
"486","flanker_test","37","image-keyboard-response","160","1254617","0.0-3.0-98.0-0.2","3","2020-1-8 21:4:28","MOUSE",NA,NA,NA,NA,NA,"incongruent","left","TRUE",NA,NA,NA,NA,NA,NA
"590","flanker_test","39","image-keyboard-response","161","1256076","0.0-3.0-98.0-0.3","3","2020-1-8 21:4:28","MOUSE",NA,NA,NA,NA,NA,"incongruent","right","TRUE",NA,NA,NA,NA,NA,NA
"22145","sort_trial",NA,"free-sort","162","1279405","0.0-3.0-99.0","3","2020-1-8 21:4:28","MOUSE",NA,NA,NA,NA,NA,NA,NA,NA,"[{""cat"":21,""src"":8,""x"":17,""y"":15},{""cat"":22,""src"":6,""x"":2,""y"":445},{""cat"":18,""src"":12,""x"":70,""y"":494},{""cat"":18,""src"":15,""x"":65,""y"":192},{""cat"":22,""src"":5,""x"":35,""y"":81},{""cat"":21,""src"":13,""x"":68,""y"":381},{""cat"":18,""src"":3,""x"":40,""y"":326},{""cat"":21,""src"":11,""x"":19,""y"":146},{""cat"":22,""src"":17,""x"":7,""y"":250}]","[{""cat"":""22"",""src"":""17"",""x"":0,""y"":0},{""cat"":""21"",""src"":""8"",""x"":0,""y"":0},{""cat"":""21"",""src"":""13"",""x"":0,""y"":0},{""cat"":""18"",""src"":""12"",""x"":0,""y"":0},{""cat"":""22"",""src"":""6"",""x"":0,""y"":0},{""cat"":""18"",""src"":""15"",""x"":0,""y"":0},{""cat"":""21"",""src"":""11"",""x"":0,""y"":0},{""cat"":""18"",""src"":""3"",""x"":0,""y"":0},{""cat"":""22"",""src"":""5"",""x"":0,""y"":0}]","[{""cat"":22,""src"":17,""loc"":1},{""cat"":21,""src"":8,""loc"":4},{""cat"":21,""src"":13,""loc"":2},{""cat"":18,""src"":12,""loc"":0},{""cat"":22,""src"":6,""loc"":8},{""cat"":18,""src"":15,""loc"":6},{""cat"":21,""src"":11,""loc"":5},{""cat"":18,""src"":3,""loc"":7},{""cat"":22,""src"":5,""loc"":3}]","5","18,22,21,22,21,21,18,18,22,12,17,13,5,8,11,15,3,6,0,1,2,3,4,5,6,7,8,3,0,2,8,1,6,5,7,4",NA
"1103","sort_feedback","74","html-keyboard-response","163","1280514","0.0-3.0-100.0","3","2020-1-8 21:4:28","MOUSE",NA,NA,NA,NA,NA,NA,NA,NA,NA,NA,NA,NA,NA,NA
NA,"breakStart",NA,"html-keyboard-response","164","1310521","0.0-4.0-0.0","3","2020-1-8 21:4:28","MOUSE",NA,NA,NA,NA,NA,NA,NA,NA,NA,NA,NA,NA,NA,NA
"49157","breakEnd",NA,"html-button-response","165","1359684","0.0-4.0-1.0","3","2020-1-8 21:4:28","MOUSE","0",NA,NA,NA,NA,NA,NA,NA,NA,NA,NA,NA,NA,NA
"19996","setup2",NA,"animation","166","1379683","0.0-5.0-0.0","3","2020-1-8 21:4:28","MOUSE",NA,NA,"[{""cat"":21,""src"":5,""loc"":7},{""cat"":8,""src"":6,""loc"":6},{""cat"":33,""src"":6,""loc"":8},{""cat"":8,""src"":2,""loc"":4},{""cat"":21,""src"":16,""loc"":3},{""cat"":33,""src"":1,""loc"":5},{""cat"":33,""src"":5,""loc"":0},{""cat"":8,""src"":4,""loc"":1},{""cat"":21,""src"":11,""loc"":2}]","2","1110,1107,1104,1128,1105,1108,1106,1115,1111,10002",NA,NA,NA,NA,NA,NA,NA,NA,NA
"813","flanker_instructions","39","html-keyboard-response","167","1380512","0.0-5.0-1.0","3","2020-1-8 21:4:28","MOUSE",NA,NA,NA,NA,NA,NA,NA,NA,NA,NA,NA,NA,NA,NA
"579","flanker_test","39","image-keyboard-response","168","1382101","0.0-5.0-2.0-0.0","3","2020-1-8 21:4:28","MOUSE",NA,NA,NA,NA,NA,"incongruent","right","TRUE",NA,NA,NA,NA,NA,NA
"457","flanker_test","37","image-keyboard-response","169","1382891","0.0-5.0-2.0-0.1","3","2020-1-8 21:4:28","MOUSE",NA,NA,NA,NA,NA,"congruent","left","TRUE",NA,NA,NA,NA,NA,NA
"470","flanker_test","39","image-keyboard-response","170","1384411","0.0-5.0-2.0-0.2","3","2020-1-8 21:4:28","MOUSE",NA,NA,NA,NA,NA,"congruent","right","TRUE",NA,NA,NA,NA,NA,NA
"648","flanker_test","37","image-keyboard-response","171","1386113","0.0-5.0-2.0-0.3","3","2020-1-8 21:4:28","MOUSE",NA,NA,NA,NA,NA,"incongruent","left","TRUE",NA,NA,NA,NA,NA,NA
"23611","sort_trial",NA,"free-sort","172","1410131","0.0-5.0-3.0","3","2020-1-8 21:4:28","MOUSE",NA,NA,NA,NA,NA,NA,NA,NA,"[{""cat"":21,""src"":5,""x"":3,""y"":388},{""cat"":8,""src"":6,""x"":7,""y"":502},{""cat"":33,""src"":6,""x"":32,""y"":240},{""cat"":8,""src"":2,""x"":76,""y"":133},{""cat"":21,""src"":16,""x"":67,""y"":203},{""cat"":33,""src"":1,""x"":19,""y"":65},{""cat"":33,""src"":5,""x"":50,""y"":443},{""cat"":8,""src"":4,""x"":72,""y"":12},{""cat"":21,""src"":11,""x"":4,""y"":300}]","[{""cat"":""33"",""src"":""5"",""x"":0,""y"":0},{""cat"":""8"",""src"":""4"",""x"":0,""y"":0},{""cat"":""21"",""src"":""11"",""x"":0,""y"":0},{""cat"":""33"",""src"":""6"",""x"":0,""y"":0},{""cat"":""21"",""src"":""5"",""x"":0,""y"":0},{""cat"":""8"",""src"":""6"",""x"":0,""y"":0},{""cat"":""33"",""src"":""1"",""x"":0,""y"":0},{""cat"":""8"",""src"":""2"",""x"":0,""y"":0},{""cat"":""21"",""src"":""16"",""x"":0,""y"":0}]","[{""cat"":33,""src"":5,""loc"":0},{""cat"":8,""src"":4,""loc"":1},{""cat"":21,""src"":11,""loc"":2},{""cat"":33,""src"":6,""loc"":8},{""cat"":21,""src"":5,""loc"":7},{""cat"":8,""src"":6,""loc"":6},{""cat"":33,""src"":1,""loc"":5},{""cat"":8,""src"":2,""loc"":4},{""cat"":21,""src"":16,""loc"":3}]","9","33,8,21,21,8,33,8,21,33,5,4,11,16,2,1,6,5,6,0,1,2,3,4,5,6,7,8,0,1,2,8,7,6,5,4,3",NA
"1621","sort_feedback","74","html-keyboard-response","173","1411757","0.0-5.0-4.0","3","2020-1-8 21:4:28","MOUSE",NA,NA,NA,NA,NA,NA,NA,NA,NA,NA,NA,NA,NA,NA
"19974","setup4",NA,"animation","174","1431735","0.0-5.0-5.0","3","2020-1-8 21:4:28","MOUSE",NA,NA,"[{""cat"":20,""src"":2,""loc"":3},{""cat"":20,""src"":8,""loc"":1},{""cat"":20,""src"":13,""loc"":8},{""cat"":11,""src"":19,""loc"":4},{""cat"":11,""src"":2,""loc"":6},{""cat"":11,""src"":8,""loc"":0},{""cat"":14,""src"":3,""loc"":2},{""cat"":14,""src"":9,""loc"":7},{""cat"":14,""src"":19,""loc"":5}]","4","1120,1103,1105,1108,1105,1107,1111,1101,1111,10003",NA,NA,NA,NA,NA,NA,NA,NA,NA
"1926","flanker_instructions","39","html-keyboard-response","175","1433671","0.0-5.0-6.0","3","2020-1-8 21:4:28","MOUSE",NA,NA,NA,NA,NA,NA,NA,NA,NA,NA,NA,NA,NA,NA
"596","flanker_test","39","image-keyboard-response","176","1435276","0.0-5.0-7.0-0.0","3","2020-1-8 21:4:28","MOUSE",NA,NA,NA,NA,NA,"congruent","right","TRUE",NA,NA,NA,NA,NA,NA
"413","flanker_test","39","image-keyboard-response","177","1436257","0.0-5.0-7.0-0.1","3","2020-1-8 21:4:28","MOUSE",NA,NA,NA,NA,NA,"incongruent","right","TRUE",NA,NA,NA,NA,NA,NA
"416","flanker_test","37","image-keyboard-response","178","1437292","0.0-5.0-7.0-0.2","3","2020-1-8 21:4:28","MOUSE",NA,NA,NA,NA,NA,"incongruent","left","TRUE",NA,NA,NA,NA,NA,NA
"519","flanker_test","37","image-keyboard-response","179","1438582","0.0-5.0-7.0-0.3","3","2020-1-8 21:4:28","MOUSE",NA,NA,NA,NA,NA,"congruent","left","TRUE",NA,NA,NA,NA,NA,NA
"24901","sort_trial",NA,"free-sort","180","1464682","0.0-5.0-8.0","3","2020-1-8 21:4:28","MOUSE",NA,NA,NA,NA,NA,NA,NA,NA,"[{""cat"":20,""src"":2,""x"":35,""y"":204},{""cat"":20,""src"":8,""x"":56,""y"":251},{""cat"":20,""src"":13,""x"":66,""y"":60},{""cat"":11,""src"":19,""x"":34,""y"":491},{""cat"":11,""src"":2,""x"":38,""y"":327},{""cat"":11,""src"":8,""x"":82,""y"":147},{""cat"":14,""src"":3,""x"":64,""y"":8},{""cat"":14,""src"":9,""x"":76,""y"":372},{""cat"":14,""src"":19,""x"":9,""y"":426}]","[{""cat"":""14"",""src"":""19"",""x"":0,""y"":0},{""cat"":""11"",""src"":""19"",""x"":0,""y"":0},{""cat"":""20"",""src"":""2"",""x"":0,""y"":0},{""cat"":""11"",""src"":""8"",""x"":0,""y"":0},{""cat"":""14"",""src"":""9"",""x"":0,""y"":0},{""cat"":""20"",""src"":""8"",""x"":0,""y"":0},{""cat"":""14"",""src"":""3"",""x"":0,""y"":0},{""cat"":""11"",""src"":""2"",""x"":0,""y"":0},{""cat"":""20"",""src"":""13"",""x"":0,""y"":0}]","[{""cat"":14,""src"":19,""loc"":4},{""cat"":11,""src"":19,""loc"":5},{""cat"":20,""src"":2,""loc"":3},{""cat"":11,""src"":8,""loc"":1},{""cat"":14,""src"":9,""loc"":7},{""cat"":20,""src"":8,""loc"":2},{""cat"":14,""src"":3,""loc"":8},{""cat"":11,""src"":2,""loc"":0},{""cat"":20,""src"":13,""loc"":6}]","2","11,11,20,20,14,11,20,14,14,2,8,8,2,19,19,13,9,3,0,1,2,3,4,5,6,7,8,7,3,5,2,0,1,8,4,6",NA
"740","sort_feedback","75","html-keyboard-response","181","1465430","0.0-5.0-9.0","3","2020-1-8 21:4:28","MOUSE",NA,NA,NA,NA,NA,NA,NA,NA,NA,NA,NA,NA,NA,NA
"20000","setup3",NA,"animation","182","1485434","0.0-5.0-10.0","3","2020-1-8 21:4:28","MOUSE",NA,NA,"[{""cat"":21,""src"":13,""loc"":4},{""cat"":32,""src"":14,""loc"":7},{""cat"":31,""src"":7,""loc"":2},{""cat"":32,""src"":2,""loc"":8},{""cat"":21,""src"":3,""loc"":5},{""cat"":31,""src"":9,""loc"":1},{""cat"":21,""src"":17,""loc"":3},{""cat"":32,""src"":10,""loc"":6},{""cat"":31,""src"":4,""loc"":0}]","3","1128,1113,1108,1104,1109,1108,1108,1108,1109,10005",NA,NA,NA,NA,NA,NA,NA,NA,NA
"1650","flanker_instructions","39","html-keyboard-response","183","1487091","0.0-5.0-11.0","3","2020-1-8 21:4:28","MOUSE",NA,NA,NA,NA,NA,NA,NA,NA,NA,NA,NA,NA,NA,NA
"620","flanker_test","39","image-keyboard-response","184","1488724","0.0-5.0-12.0-0.0","3","2020-1-8 21:4:28","MOUSE",NA,NA,NA,NA,NA,"incongruent","right","TRUE",NA,NA,NA,NA,NA,NA
"514","flanker_test","37","image-keyboard-response","185","1489786","0.0-5.0-12.0-0.1","3","2020-1-8 21:4:28","MOUSE",NA,NA,NA,NA,NA,"congruent","left","TRUE",NA,NA,NA,NA,NA,NA
"578","flanker_test","37","image-keyboard-response","186","1491229","0.0-5.0-12.0-0.2","3","2020-1-8 21:4:28","MOUSE",NA,NA,NA,NA,NA,"incongruent","left","TRUE",NA,NA,NA,NA,NA,NA
"375","flanker_test","39","image-keyboard-response","187","1492577","0.0-5.0-12.0-0.3","3","2020-1-8 21:4:28","MOUSE",NA,NA,NA,NA,NA,"congruent","right","TRUE",NA,NA,NA,NA,NA,NA
"22035","sort_trial",NA,"free-sort","188","1515731","0.0-5.0-13.0","3","2020-1-8 21:4:28","MOUSE",NA,NA,NA,NA,NA,NA,NA,NA,"[{""cat"":21,""src"":13,""x"":21,""y"":191},{""cat"":32,""src"":14,""x"":74,""y"":310},{""cat"":31,""src"":7,""x"":58,""y"":80},{""cat"":32,""src"":2,""x"":7,""y"":251},{""cat"":21,""src"":3,""x"":73,""y"":433},{""cat"":31,""src"":9,""x"":22,""y"":481},{""cat"":21,""src"":17,""x"":5,""y"":24},{""cat"":32,""src"":10,""x"":17,""y"":373},{""cat"":31,""src"":4,""x"":76,""y"":133}]","[{""cat"":""32"",""src"":""14"",""x"":0,""y"":0},{""cat"":""32"",""src"":""10"",""x"":0,""y"":0},{""cat"":""32"",""src"":""2"",""x"":0,""y"":0},{""cat"":""21"",""src"":""3"",""x"":0,""y"":0},{""cat"":""31"",""src"":""4"",""x"":0,""y"":0},{""cat"":""31"",""src"":""7"",""x"":0,""y"":0},{""cat"":""21"",""src"":""13"",""x"":0,""y"":0},{""cat"":""31"",""src"":""9"",""x"":0,""y"":0},{""cat"":""21"",""src"":""17"",""x"":0,""y"":0}]","[{""cat"":32,""src"":14,""loc"":7},{""cat"":32,""src"":10,""loc"":6},{""cat"":32,""src"":2,""loc"":8},{""cat"":21,""src"":3,""loc"":4},{""cat"":31,""src"":4,""loc"":0},{""cat"":31,""src"":7,""loc"":2},{""cat"":21,""src"":13,""loc"":5},{""cat"":31,""src"":9,""loc"":3},{""cat"":21,""src"":17,""loc"":1}]","5","31,21,31,31,21,21,32,32,32,4,17,7,9,3,13,10,14,2,0,1,2,3,4,5,6,7,8,4,8,5,7,3,6,1,0,2",NA
"848","sort_feedback","74","html-keyboard-response","189","1516585","0.0-5.0-14.0","3","2020-1-8 21:4:28","MOUSE",NA,NA,NA,NA,NA,NA,NA,NA,NA,NA,NA,NA,NA,NA
"19972","setup1",NA,"animation","190","1536557","0.0-5.0-15.0","3","2020-1-8 21:4:28","MOUSE",NA,NA,"[{""cat"":28,""src"":15,""loc"":8},{""cat"":28,""src"":14,""loc"":7},{""cat"":28,""src"":0,""loc"":6},{""cat"":33,""src"":16,""loc"":4},{""cat"":33,""src"":8,""loc"":3},{""cat"":33,""src"":4,""loc"":5},{""cat"":16,""src"":11,""loc"":0},{""cat"":16,""src"":0,""loc"":1},{""cat"":16,""src"":10,""loc"":2}]","1","1105,1105,1107,1102,1106,1115,1110,1107,1109,10006",NA,NA,NA,NA,NA,NA,NA,NA,NA
"1607","flanker_instructions","39","html-keyboard-response","191","1538169","0.0-5.0-16.0","3","2020-1-8 21:4:28","MOUSE",NA,NA,NA,NA,NA,NA,NA,NA,NA,NA,NA,NA,NA,NA
"489","flanker_test","39","image-keyboard-response","192","1539666","0.0-5.0-17.0-0.0","3","2020-1-8 21:4:28","MOUSE",NA,NA,NA,NA,NA,"congruent","right","TRUE",NA,NA,NA,NA,NA,NA
"449","flanker_test","37","image-keyboard-response","193","1540539","0.0-5.0-17.0-0.1","3","2020-1-8 21:4:28","MOUSE",NA,NA,NA,NA,NA,"incongruent","left","TRUE",NA,NA,NA,NA,NA,NA
"434","flanker_test","37","image-keyboard-response","194","1541957","0.0-5.0-17.0-0.2","3","2020-1-8 21:4:28","MOUSE",NA,NA,NA,NA,NA,"congruent","left","TRUE",NA,NA,NA,NA,NA,NA
"470","flanker_test","39","image-keyboard-response","195","1543159","0.0-5.0-17.0-0.3","3","2020-1-8 21:4:28","MOUSE",NA,NA,NA,NA,NA,"incongruent","right","TRUE",NA,NA,NA,NA,NA,NA
"23018","sort_trial",NA,"free-sort","196","1567187","0.0-5.0-18.0","3","2020-1-8 21:4:28","MOUSE",NA,NA,NA,NA,NA,NA,NA,NA,"[{""cat"":28,""src"":15,""x"":49,""y"":190},{""cat"":28,""src"":14,""x"":42,""y"":137},{""cat"":28,""src"":0,""x"":28,""y"":502},{""cat"":33,""src"":16,""x"":38,""y"":385},{""cat"":33,""src"":8,""x"":58,""y"":424},{""cat"":33,""src"":4,""x"":58,""y"":89},{""cat"":16,""src"":11,""x"":42,""y"":267},{""cat"":16,""src"":0,""x"":82,""y"":318},{""cat"":16,""src"":10,""x"":1,""y"":7}]","[{""cat"":""28"",""src"":""15"",""x"":0,""y"":0},{""cat"":""28"",""src"":""0"",""x"":0,""y"":0},{""cat"":""28"",""src"":""14"",""x"":0,""y"":0},{""cat"":""16"",""src"":""0"",""x"":0,""y"":0},{""cat"":""16"",""src"":""11"",""x"":0,""y"":0},{""cat"":""33"",""src"":""16"",""x"":0,""y"":0},{""cat"":""16"",""src"":""10"",""x"":0,""y"":0},{""cat"":""33"",""src"":""4"",""x"":0,""y"":0},{""cat"":""33"",""src"":""8"",""x"":0,""y"":0}]","[{""cat"":28,""src"":15,""loc"":8},{""cat"":28,""src"":0,""loc"":6},{""cat"":28,""src"":14,""loc"":7},{""cat"":16,""src"":0,""loc"":1},{""cat"":16,""src"":11,""loc"":0},{""cat"":33,""src"":16,""loc"":4},{""cat"":16,""src"":10,""loc"":2},{""cat"":33,""src"":4,""loc"":5},{""cat"":33,""src"":8,""loc"":3}]","9","16,16,16,33,33,33,28,28,28,11,0,10,8,16,4,0,14,15,0,1,2,3,4,5,6,7,8,4,3,6,8,5,7,1,2,0",NA
"965","sort_feedback","74","html-keyboard-response","197","1568158","0.0-5.0-19.0","3","2020-1-8 21:4:28","MOUSE",NA,NA,NA,NA,NA,NA,NA,NA,NA,NA,NA,NA,NA,NA
"19970","setup5",NA,"animation","198","1588130","0.0-5.0-20.0","3","2020-1-8 21:4:28","MOUSE",NA,NA,"[{""cat"":22,""src"":3,""loc"":0},{""cat"":5,""src"":14,""loc"":3},{""cat"":29,""src"":17,""loc"":8},{""cat"":22,""src"":14,""loc"":7},{""cat"":29,""src"":11,""loc"":4},{""cat"":5,""src"":17,""loc"":1},{""cat"":5,""src"":0,""loc"":6},{""cat"":29,""src"":10,""loc"":2},{""cat"":22,""src"":9,""loc"":5}]","5","1107,1106,1106,1111,1108,1107,1109,1108,1105,10003",NA,NA,NA,NA,NA,NA,NA,NA,NA
"2129","flanker_instructions","39","html-keyboard-response","199","1590270","0.0-5.0-21.0","3","2020-1-8 21:4:28","MOUSE",NA,NA,NA,NA,NA,NA,NA,NA,NA,NA,NA,NA,NA,NA
"612","flanker_test","37","image-keyboard-response","200","1591892","0.0-5.0-22.0-0.0","3","2020-1-8 21:4:28","MOUSE",NA,NA,NA,NA,NA,"congruent","left","TRUE",NA,NA,NA,NA,NA,NA
"480","flanker_test","39","image-keyboard-response","201","1593064","0.0-5.0-22.0-0.1","3","2020-1-8 21:4:28","MOUSE",NA,NA,NA,NA,NA,"congruent","right","TRUE",NA,NA,NA,NA,NA,NA
"530","flanker_test","37","image-keyboard-response","202","1594245","0.0-5.0-22.0-0.2","3","2020-1-8 21:4:28","MOUSE",NA,NA,NA,NA,NA,"incongruent","left","TRUE",NA,NA,NA,NA,NA,NA
"469","flanker_test","39","image-keyboard-response","203","1595058","0.0-5.0-22.0-0.3","3","2020-1-8 21:4:28","MOUSE",NA,NA,NA,NA,NA,"incongruent","right","TRUE",NA,NA,NA,NA,NA,NA
"29166","sort_trial",NA,"free-sort","204","1625071","0.0-5.0-23.0","3","2020-1-8 21:4:28","MOUSE",NA,NA,NA,NA,NA,NA,NA,NA,"[{""cat"":22,""src"":3,""x"":65,""y"":198},{""cat"":5,""src"":14,""x"":1,""y"":319},{""cat"":29,""src"":17,""x"":70,""y"":502},{""cat"":22,""src"":14,""x"":41,""y"":127},{""cat"":29,""src"":11,""x"":58,""y"":381},{""cat"":5,""src"":17,""x"":62,""y"":430},{""cat"":5,""src"":0,""x"":4,""y"":67},{""cat"":29,""src"":10,""x"":23,""y"":262},{""cat"":22,""src"":9,""x"":22,""y"":14}]","[{""cat"":""5"",""src"":""0"",""x"":0,""y"":0},{""cat"":""5"",""src"":""17"",""x"":0,""y"":0},{""cat"":""29"",""src"":""10"",""x"":385,""y"":173},{""cat"":""22"",""src"":""14"",""x"":271,""y"":359},{""cat"":""22"",""src"":""14"",""x"":0,""y"":0},{""cat"":""29"",""src"":""10"",""x"":0,""y"":0},{""cat"":""5"",""src"":""14"",""x"":0,""y"":0},{""cat"":""22"",""src"":""9"",""x"":0,""y"":0},{""cat"":""22"",""src"":""3"",""x"":0,""y"":0},{""cat"":""29"",""src"":""11"",""x"":0,""y"":0},{""cat"":""29"",""src"":""17"",""x"":0,""y"":0}]","[{""cat"":5,""src"":0,""loc"":6},{""cat"":5,""src"":17,""loc"":1},{""cat"":22,""src"":14,""loc"":7},{""cat"":29,""src"":10,""loc"":2},{""cat"":5,""src"":14,""loc"":4},{""cat"":22,""src"":9,""loc"":0},{""cat"":22,""src"":3,""loc"":8},{""cat"":29,""src"":11,""loc"":3},{""cat"":29,""src"":17,""loc"":5}]","4","22,5,29,29,5,29,5,22,22,9,17,10,11,14,17,0,14,3,0,1,2,3,4,5,6,7,8,5,1,3,7,4,8,0,2,6",NA
"998","sort_feedback","75","html-keyboard-response","205","1626077","0.0-5.0-24.0","3","2020-1-8 21:4:28","MOUSE",NA,NA,NA,NA,NA,NA,NA,NA,NA,NA,NA,NA,NA,NA
"19970","setup4",NA,"animation","206","1646051","0.0-5.0-25.0","3","2020-1-8 21:4:28","MOUSE",NA,NA,"[{""cat"":18,""src"":12,""loc"":4},{""cat"":18,""src"":19,""loc"":0},{""cat"":18,""src"":13,""loc"":6},{""cat"":21,""src"":16,""loc"":2},{""cat"":21,""src"":15,""loc"":8},{""cat"":21,""src"":0,""loc"":5},{""cat"":32,""src"":10,""loc"":7},{""cat"":32,""src"":6,""loc"":3},{""cat"":32,""src"":14,""loc"":1}]","4","1111,1104,1108,1108,1106,1106,1109,1107,1108,10003",NA,NA,NA,NA,NA,NA,NA,NA,NA
"1983","flanker_instructions","39","html-keyboard-response","207","1648051","0.0-5.0-26.0","3","2020-1-8 21:4:28","MOUSE",NA,NA,NA,NA,NA,NA,NA,NA,NA,NA,NA,NA,NA,NA
"738","flanker_test","39","image-keyboard-response","208","1649809","0.0-5.0-27.0-0.0","3","2020-1-8 21:4:28","MOUSE",NA,NA,NA,NA,NA,"incongruent","right","TRUE",NA,NA,NA,NA,NA,NA
"541","flanker_test","37","image-keyboard-response","209","1651170","0.0-5.0-27.0-0.1","3","2020-1-8 21:4:28","MOUSE",NA,NA,NA,NA,NA,"congruent","left","TRUE",NA,NA,NA,NA,NA,NA
"494","flanker_test","39","image-keyboard-response","210","1652826","0.0-5.0-27.0-0.2","3","2020-1-8 21:4:28","MOUSE",NA,NA,NA,NA,NA,"congruent","right","TRUE",NA,NA,NA,NA,NA,NA
"518","flanker_test","37","image-keyboard-response","211","1654051","0.0-5.0-27.0-0.3","3","2020-1-8 21:4:28","MOUSE",NA,NA,NA,NA,NA,"incongruent","left","TRUE",NA,NA,NA,NA,NA,NA
"22776","sort_trial",NA,"free-sort","212","1677227","0.0-5.0-28.0","3","2020-1-8 21:4:28","MOUSE",NA,NA,NA,NA,NA,NA,NA,NA,"[{""cat"":18,""src"":12,""x"":60,""y"":62},{""cat"":18,""src"":19,""x"":46,""y"":376},{""cat"":18,""src"":13,""x"":24,""y"":122},{""cat"":21,""src"":16,""x"":4,""y"":257},{""cat"":21,""src"":15,""x"":56,""y"":434},{""cat"":21,""src"":0,""x"":57,""y"":307},{""cat"":32,""src"":10,""x"":2,""y"":493},{""cat"":32,""src"":6,""x"":65,""y"":204},{""cat"":32,""src"":14,""x"":39,""y"":10}]","[{""cat"":""32"",""src"":""10"",""x"":0,""y"":0},{""cat"":""18"",""src"":""19"",""x"":0,""y"":0},{""cat"":""21"",""src"":""16"",""x"":0,""y"":0},{""cat"":""32"",""src"":""6"",""x"":0,""y"":0},{""cat"":""18"",""src"":""13"",""x"":0,""y"":0},{""cat"":""18"",""src"":""12"",""x"":0,""y"":0},{""cat"":""32"",""src"":""14"",""x"":0,""y"":0},{""cat"":""21"",""src"":""0"",""x"":0,""y"":0},{""cat"":""21"",""src"":""15"",""x"":0,""y"":0}]","[{""cat"":32,""src"":10,""loc"":6},{""cat"":18,""src"":19,""loc"":1},{""cat"":21,""src"":16,""loc"":2},{""cat"":32,""src"":6,""loc"":8},{""cat"":18,""src"":13,""loc"":7},{""cat"":18,""src"":12,""loc"":3},{""cat"":32,""src"":14,""loc"":0},{""cat"":21,""src"":0,""loc"":5},{""cat"":21,""src"":15,""loc"":4}]","2","32,18,21,18,21,21,32,18,32,14,19,16,12,15,0,10,13,6,0,1,2,3,4,5,6,7,8,6,1,2,5,8,7,0,4,3",NA
"2081","sort_feedback","75","html-keyboard-response","213","1679316","0.0-5.0-29.0","3","2020-1-8 21:4:28","MOUSE",NA,NA,NA,NA,NA,NA,NA,NA,NA,NA,NA,NA,NA,NA
"19970","setup5",NA,"animation","214","1699289","0.0-5.0-30.0","3","2020-1-8 21:4:28","MOUSE",NA,NA,"[{""cat"":4,""src"":4,""loc"":0},{""cat"":26,""src"":7,""loc"":7},{""cat"":16,""src"":12,""loc"":4},{""cat"":4,""src"":2,""loc"":5},{""cat"":26,""src"":8,""loc"":2},{""cat"":16,""src"":10,""loc"":6},{""cat"":16,""src"":5,""loc"":1},{""cat"":4,""src"":0,""loc"":8},{""cat"":26,""src"":4,""loc"":3}]","5","1118,1105,1108,1104,1108,1105,1104,1104,1108,10006",NA,NA,NA,NA,NA,NA,NA,NA,NA
"1667","flanker_instructions","39","html-keyboard-response","215","1700966","0.0-5.0-31.0","3","2020-1-8 21:4:28","MOUSE",NA,NA,NA,NA,NA,NA,NA,NA,NA,NA,NA,NA,NA,NA
"523","flanker_test","39","image-keyboard-response","216","1702499","0.0-5.0-32.0-0.0","3","2020-1-8 21:4:28","MOUSE",NA,NA,NA,NA,NA,"incongruent","right","TRUE",NA,NA,NA,NA,NA,NA
"631","flanker_test","37","image-keyboard-response","217","1704165","0.0-5.0-32.0-0.1","3","2020-1-8 21:4:28","MOUSE",NA,NA,NA,NA,NA,"congruent","left","TRUE",NA,NA,NA,NA,NA,NA
"694","flanker_test","37","image-keyboard-response","218","1706045","0.0-5.0-32.0-0.2","3","2020-1-8 21:4:28","MOUSE",NA,NA,NA,NA,NA,"incongruent","left","TRUE",NA,NA,NA,NA,NA,NA
"422","flanker_test","39","image-keyboard-response","219","1707482","0.0-5.0-32.0-0.3","3","2020-1-8 21:4:28","MOUSE",NA,NA,NA,NA,NA,"congruent","right","TRUE",NA,NA,NA,NA,NA,NA
"23675","sort_trial",NA,"free-sort","220","1731947","0.0-5.0-33.0","3","2020-1-8 21:4:28","MOUSE",NA,NA,NA,NA,NA,NA,NA,NA,"[{""cat"":4,""src"":4,""x"":32,""y"":61},{""cat"":26,""src"":7,""x"":64,""y"":485},{""cat"":16,""src"":12,""x"":34,""y"":8},{""cat"":4,""src"":2,""x"":43,""y"":385},{""cat"":26,""src"":8,""x"":2,""y"":257},{""cat"":16,""src"":10,""x"":25,""y"":325},{""cat"":16,""src"":5,""x"":80,""y"":442},{""cat"":4,""src"":0,""x"":50,""y"":184},{""cat"":26,""src"":4,""x"":51,""y"":127}]","[{""cat"":""4"",""src"":""2"",""x"":0,""y"":0},{""cat"":""16"",""src"":""12"",""x"":0,""y"":0},{""cat"":""26"",""src"":""4"",""x"":0,""y"":0},{""cat"":""4"",""src"":""4"",""x"":0,""y"":0},{""cat"":""26"",""src"":""8"",""x"":0,""y"":0},{""cat"":""16"",""src"":""10"",""x"":395,""y"":84},{""cat"":""16"",""src"":""10"",""x"":0,""y"":0},{""cat"":""26"",""src"":""7"",""x"":0,""y"":0},{""cat"":""16"",""src"":""5"",""x"":0,""y"":0},{""cat"":""4"",""src"":""0"",""x"":0,""y"":0}]","[{""cat"":4,""src"":2,""loc"":5},{""cat"":16,""src"":12,""loc"":4},{""cat"":26,""src"":4,""loc"":3},{""cat"":4,""src"":4,""loc"":0},{""cat"":26,""src"":8,""loc"":2},{""cat"":16,""src"":10,""loc"":1},{""cat"":26,""src"":7,""loc"":7},{""cat"":16,""src"":5,""loc"":8},{""cat"":4,""src"":0,""loc"":6}]","6","4,16,26,26,16,4,4,26,16,4,10,8,4,12,2,0,7,5,0,1,2,3,4,5,6,7,8,3,5,4,2,1,0,8,6,7",NA
"878","sort_feedback","74","html-keyboard-response","221","1732831","0.0-5.0-34.0","3","2020-1-8 21:4:28","MOUSE",NA,NA,NA,NA,NA,NA,NA,NA,NA,NA,NA,NA,NA,NA
"19953","setup3",NA,"animation","222","1752785","0.0-5.0-35.0","3","2020-1-8 21:4:28","MOUSE",NA,NA,"[{""cat"":7,""src"":16,""loc"":4},{""cat"":12,""src"":9,""loc"":0},{""cat"":5,""src"":17,""loc"":6},{""cat"":12,""src"":13,""loc"":2},{""cat"":7,""src"":14,""loc"":3},{""cat"":5,""src"":18,""loc"":7},{""cat"":7,""src"":2,""loc"":5},{""cat"":5,""src"":14,""loc"":8},{""cat"":12,""src"":3,""loc"":1}]","3","1107,1107,1103,1104,1103,1106,1106,1107,1105,10005",NA,NA,NA,NA,NA,NA,NA,NA,NA
"1642","flanker_instructions","39","html-keyboard-response","223","1754435","0.0-5.0-36.0","3","2020-1-8 21:4:28","MOUSE",NA,NA,NA,NA,NA,NA,NA,NA,NA,NA,NA,NA,NA,NA
"490","flanker_test","39","image-keyboard-response","224","1755933","0.0-5.0-37.0-0.0","3","2020-1-8 21:4:28","MOUSE",NA,NA,NA,NA,NA,"congruent","right","TRUE",NA,NA,NA,NA,NA,NA
"439","flanker_test","37","image-keyboard-response","225","1756898","0.0-5.0-37.0-0.1","3","2020-1-8 21:4:28","MOUSE",NA,NA,NA,NA,NA,"congruent","left","TRUE",NA,NA,NA,NA,NA,NA
"438","flanker_test","39","image-keyboard-response","226","1758428","0.0-5.0-37.0-0.2","3","2020-1-8 21:4:28","MOUSE",NA,NA,NA,NA,NA,"incongruent","left","FALSE",NA,NA,NA,NA,NA,NA
"537","flanker_test","39","image-keyboard-response","227","1759593","0.0-5.0-37.0-0.3","3","2020-1-8 21:4:28","MOUSE",NA,NA,NA,NA,NA,"incongruent","right","TRUE",NA,NA,NA,NA,NA,NA
"22916","sort_trial",NA,"free-sort","228","1783497","0.0-5.0-38.0","3","2020-1-8 21:4:28","MOUSE",NA,NA,NA,NA,NA,NA,NA,NA,"[{""cat"":7,""src"":16,""x"":31,""y"":325},{""cat"":12,""src"":9,""x"":35,""y"":258},{""cat"":5,""src"":17,""x"":10,""y"":206},{""cat"":12,""src"":13,""x"":22,""y"":10},{""cat"":7,""src"":14,""x"":10,""y"":138},{""cat"":5,""src"":18,""x"":66,""y"":364},{""cat"":7,""src"":2,""x"":18,""y"":484},{""cat"":5,""src"":14,""x"":30,""y"":420},{""cat"":12,""src"":3,""x"":79,""y"":62}]","[{""cat"":""7"",""src"":""14"",""x"":0,""y"":0},{""cat"":""7"",""src"":""16"",""x"":0,""y"":0},{""cat"":""7"",""src"":""2"",""x"":0,""y"":0},{""cat"":""5"",""src"":""14"",""x"":0,""y"":0},{""cat"":""5"",""src"":""18"",""x"":0,""y"":0},{""cat"":""12"",""src"":""13"",""x"":5,""y"":30},{""cat"":""5"",""src"":""17"",""x"":0,""y"":0},{""cat"":""12"",""src"":""13"",""x"":0,""y"":0},{""cat"":""12"",""src"":""9"",""x"":0,""y"":0},{""cat"":""12"",""src"":""3"",""x"":0,""y"":0}]","[{""cat"":7,""src"":14,""loc"":3},{""cat"":7,""src"":16,""loc"":4},{""cat"":7,""src"":2,""loc"":5},{""cat"":5,""src"":14,""loc"":2},{""cat"":5,""src"":18,""loc"":1},{""cat"":5,""src"":17,""loc"":0},{""cat"":12,""src"":13,""loc"":6},{""cat"":12,""src"":9,""loc"":7},{""cat"":12,""src"":3,""loc"":8}]","3","5,5,5,7,7,7,12,12,12,17,18,14,14,16,2,13,9,3,0,1,2,3,4,5,6,7,8,5,4,3,0,1,2,6,7,8",NA
"926","sort_feedback","77","html-keyboard-response","229","1784431","0.0-5.0-39.0","3","2020-1-8 21:4:28","MOUSE",NA,NA,NA,NA,NA,NA,NA,NA,NA,NA,NA,NA,NA,NA
"19988","setup2",NA,"animation","230","1804423","0.0-5.0-40.0","3","2020-1-8 21:4:28","MOUSE",NA,NA,"[{""cat"":13,""src"":11,""loc"":0},{""cat"":22,""src"":16,""loc"":2},{""cat"":31,""src"":10,""loc"":1},{""cat"":13,""src"":1,""loc"":5},{""cat"":22,""src"":15,""loc"":3},{""cat"":31,""src"":19,""loc"":4},{""cat"":22,""src"":2,""loc"":7},{""cat"":31,""src"":7,""loc"":6},{""cat"":13,""src"":12,""loc"":8}]","2","1125,1109,1109,1106,1109,1108,1106,1105,1109,10002",NA,NA,NA,NA,NA,NA,NA,NA,NA
"1310","flanker_instructions","39","html-keyboard-response","231","1805744","0.0-5.0-41.0","3","2020-1-8 21:4:28","MOUSE",NA,NA,NA,NA,NA,NA,NA,NA,NA,NA,NA,NA,NA,NA
"527","flanker_test","39","image-keyboard-response","232","1807277","0.0-5.0-42.0-0.0","3","2020-1-8 21:4:28","MOUSE",NA,NA,NA,NA,NA,"congruent","right","TRUE",NA,NA,NA,NA,NA,NA
"608","flanker_test","39","image-keyboard-response","233","1809062","0.0-5.0-42.0-0.1","3","2020-1-8 21:4:28","MOUSE",NA,NA,NA,NA,NA,"incongruent","right","TRUE",NA,NA,NA,NA,NA,NA
"599","flanker_test","37","image-keyboard-response","234","1810843","0.0-5.0-42.0-0.2","3","2020-1-8 21:4:28","MOUSE",NA,NA,NA,NA,NA,"incongruent","left","TRUE",NA,NA,NA,NA,NA,NA
"675","flanker_test","37","image-keyboard-response","235","1811983","0.0-5.0-42.0-0.3","3","2020-1-8 21:4:28","MOUSE",NA,NA,NA,NA,NA,"congruent","left","TRUE",NA,NA,NA,NA,NA,NA
"24766","sort_trial",NA,"free-sort","236","1837061","0.0-5.0-43.0","3","2020-1-8 21:4:28","MOUSE",NA,NA,NA,NA,NA,NA,NA,NA,"[{""cat"":13,""src"":11,""x"":5,""y"":320},{""cat"":22,""src"":16,""x"":3,""y"":139},{""cat"":31,""src"":10,""x"":75,""y"":375},{""cat"":13,""src"":1,""x"":72,""y"":438},{""cat"":22,""src"":15,""x"":13,""y"":89},{""cat"":31,""src"":19,""x"":77,""y"":20},{""cat"":22,""src"":2,""x"":58,""y"":264},{""cat"":31,""src"":7,""x"":29,""y"":203},{""cat"":13,""src"":12,""x"":36,""y"":503}]","[{""cat"":""31"",""src"":""19"",""x"":0,""y"":0},{""cat"":""13"",""src"":""1"",""x"":0,""y"":0},{""cat"":""31"",""src"":""10"",""x"":0,""y"":0},{""cat"":""31"",""src"":""7"",""x"":0,""y"":0},{""cat"":""13"",""src"":""11"",""x"":0,""y"":0},{""cat"":""22"",""src"":""16"",""x"":0,""y"":0},{""cat"":""22"",""src"":""15"",""x"":0,""y"":0},{""cat"":""22"",""src"":""2"",""x"":0,""y"":0},{""cat"":""13"",""src"":""12"",""x"":0,""y"":0}]","[{""cat"":31,""src"":19,""loc"":4},{""cat"":13,""src"":1,""loc"":5},{""cat"":31,""src"":10,""loc"":1},{""cat"":31,""src"":7,""loc"":6},{""cat"":13,""src"":11,""loc"":0},{""cat"":22,""src"":16,""loc"":2},{""cat"":22,""src"":15,""loc"":3},{""cat"":22,""src"":2,""loc"":8},{""cat"":13,""src"":12,""loc"":7}]","7","13,31,22,22,31,13,31,13,22,11,10,16,15,19,1,7,12,2,0,1,2,3,4,5,6,7,8,4,2,5,6,0,1,3,8,7",NA
"1287","sort_feedback","74","html-keyboard-response","237","1838354","0.0-5.0-44.0","3","2020-1-8 21:4:28","MOUSE",NA,NA,NA,NA,NA,NA,NA,NA,NA,NA,NA,NA,NA,NA
"19976","setup1",NA,"animation","238","1858334","0.0-5.0-45.0","3","2020-1-8 21:4:28","MOUSE",NA,NA,"[{""cat"":3,""src"":19,""loc"":4},{""cat"":3,""src"":6,""loc"":5},{""cat"":3,""src"":7,""loc"":3},{""cat"":30,""src"":12,""loc"":1},{""cat"":30,""src"":0,""loc"":0},{""cat"":30,""src"":10,""loc"":2},{""cat"":27,""src"":14,""loc"":8},{""cat"":27,""src"":10,""loc"":6},{""cat"":27,""src"":1,""loc"":7}]","1","1111,1107,1105,1108,1109,1107,1109,1108,1106,10005",NA,NA,NA,NA,NA,NA,NA,NA,NA
"2032","flanker_instructions","39","html-keyboard-response","239","1860375","0.0-5.0-46.0","3","2020-1-8 21:4:28","MOUSE",NA,NA,NA,NA,NA,NA,NA,NA,NA,NA,NA,NA,NA,NA
"644","flanker_test","39","image-keyboard-response","240","1862031","0.0-5.0-47.0-0.0","3","2020-1-8 21:4:28","MOUSE",NA,NA,NA,NA,NA,"incongruent","right","TRUE",NA,NA,NA,NA,NA,NA
"530","flanker_test","37","image-keyboard-response","241","1863290","0.0-5.0-47.0-0.1","3","2020-1-8 21:4:28","MOUSE",NA,NA,NA,NA,NA,"incongruent","left","TRUE",NA,NA,NA,NA,NA,NA
"683","flanker_test","37","image-keyboard-response","242","1864635","0.0-5.0-47.0-0.2","3","2020-1-8 21:4:28","MOUSE",NA,NA,NA,NA,NA,"congruent","left","TRUE",NA,NA,NA,NA,NA,NA
"537","flanker_test","39","image-keyboard-response","243","1866123","0.0-5.0-47.0-0.3","3","2020-1-8 21:4:28","MOUSE",NA,NA,NA,NA,NA,"congruent","right","TRUE",NA,NA,NA,NA,NA,NA
"19411","sort_trial",NA,"free-sort","244","1886459","0.0-5.0-48.0","3","2020-1-8 21:4:28","MOUSE",NA,NA,NA,NA,NA,NA,NA,NA,"[{""cat"":3,""src"":19,""x"":58,""y"":76},{""cat"":3,""src"":6,""x"":9,""y"":305},{""cat"":3,""src"":7,""x"":68,""y"":145},{""cat"":30,""src"":12,""x"":47,""y"":267},{""cat"":30,""src"":0,""x"":39,""y"":186},{""cat"":30,""src"":10,""x"":12,""y"":28},{""cat"":27,""src"":14,""x"":56,""y"":482},{""cat"":27,""src"":10,""x"":19,""y"":437},{""cat"":27,""src"":1,""x"":42,""y"":363}]","[{""cat"":""27"",""src"":""1"",""x"":0,""y"":0},{""cat"":""27"",""src"":""10"",""x"":0,""y"":0},{""cat"":""27"",""src"":""14"",""x"":0,""y"":0},{""cat"":""30"",""src"":""12"",""x"":0,""y"":0},{""cat"":""3"",""src"":""7"",""x"":0,""y"":0},{""cat"":""3"",""src"":""19"",""x"":0,""y"":0},{""cat"":""3"",""src"":""6"",""x"":0,""y"":0},{""cat"":""30"",""src"":""10"",""x"":0,""y"":0},{""cat"":""30"",""src"":""0"",""x"":0,""y"":0}]","[{""cat"":27,""src"":1,""loc"":6},{""cat"":27,""src"":10,""loc"":7},{""cat"":27,""src"":14,""loc"":8},{""cat"":30,""src"":12,""loc"":1},{""cat"":3,""src"":7,""loc"":5},{""cat"":3,""src"":19,""loc"":3},{""cat"":3,""src"":6,""loc"":4},{""cat"":30,""src"":10,""loc"":0},{""cat"":30,""src"":0,""loc"":2}]","2","30,30,30,3,3,3,27,27,27,10,12,0,19,6,7,1,10,14,0,1,2,3,4,5,6,7,8,7,3,8,5,6,4,0,1,2",NA
"1158","sort_feedback","75","html-keyboard-response","245","1887620","0.0-5.0-49.0","3","2020-1-8 21:4:28","MOUSE",NA,NA,NA,NA,NA,NA,NA,NA,NA,NA,NA,NA,NA,NA
"1812","demographics",NA,"html-button-response","246","1889436","0.0-6.0-0.0","3","2020-1-8 21:4:28","MOUSE","0",NA,NA,NA,NA,NA,NA,NA,NA,NA,NA,NA,NA,NA
"5168","workerID",NA,"survey-text","247","1894610","0.0-6.0-1.0","3","2020-1-8 21:4:28","MOUSE",NA,NA,NA,NA,NA,NA,NA,NA,NA,NA,NA,NA,NA,"{""Q0"":""A1OSRAPSRT934Z""}"
"6139","attn_check",NA,"survey-multi-choice","248","1900765","0.0-6.0-2.0","3","2020-1-8 21:4:28","MOUSE",NA,NA,NA,NA,NA,NA,NA,NA,NA,NA,NA,NA,NA,"{""Q0"":""MOUSE""}"
"4267","age",NA,"survey-text","249","1905039","0.0-6.0-3.0","3","2020-1-8 21:4:28","MOUSE",NA,NA,NA,NA,NA,NA,NA,NA,NA,NA,NA,NA,NA,"{""Q0"":""30""}"
"1802","gender",NA,"survey-multi-choice","250","1906847","0.0-6.0-4.0","3","2020-1-8 21:4:28","MOUSE",NA,NA,NA,NA,NA,NA,NA,NA,NA,NA,NA,NA,NA,"{""Q0"":""Female""}"
"2176","ethnic",NA,"survey-multi-choice","251","1909034","0.0-6.0-5.0","3","2020-1-8 21:4:28","MOUSE",NA,NA,NA,NA,NA,NA,NA,NA,NA,NA,NA,NA,NA,"{""Q0"":""Not Hispanic or Latino""}"
"2404","race",NA,"survey-multi-select","252","1911453","0.0-6.0-6.0","3","2020-1-8 21:4:28","MOUSE",NA,NA,NA,NA,NA,NA,NA,NA,NA,NA,NA,NA,NA,"{""Q0"":[""Black or African American""]}"
"1794","english",NA,"survey-multi-choice","253","1913254","0.0-6.0-7.0","3","2020-1-8 21:4:28","MOUSE",NA,NA,NA,NA,NA,NA,NA,NA,NA,NA,NA,NA,NA,"{""Q0"":""Yes""}"
"2021","understand",NA,"survey-multi-choice","254","1915284","0.0-6.0-8.0","3","2020-1-8 21:4:28","MOUSE",NA,NA,NA,NA,NA,NA,NA,NA,NA,NA,NA,NA,NA,"{""Q0"":""No""}"
"17640","strategies",NA,"survey-text","255","1932929","0.0-6.0-9.0","3","2020-1-8 21:4:28","MOUSE",NA,NA,NA,NA,NA,NA,NA,NA,NA,NA,NA,NA,NA,"{""Q0"":""I tried to categorize each scene.""}"
"3873","comments",NA,"survey-text","256","1936807","0.0-6.0-10.0","3","2020-1-8 21:4:28","MOUSE",NA,NA,NA,NA,NA,NA,NA,NA,NA,NA,NA,NA,NA,"{""Q0"":""""}"
"1595","study_end",NA,"html-button-response","257","1938406","0.0-7.0","3","2020-1-8 21:4:28","MOUSE","0",NA,NA,NA,NA,NA,NA,NA,NA,NA,NA,NA,NA,NA
